"payoff.level"	"balloon"	"rt"	"resp"	"explode.trial"	"explode.time"	"finish.time"	"exploded"	"trial.total"	"cumulative.total"	"finished"	"trial.start"	"trial.end"	"trial.num"	"secs"	"start.time"	"iti"	"isi"
0.01	1	6.83880867000016	1	64	NA	38.2669081270001	0	0.39	0.39	1	0.0131162679999761	6.85192493800014	"1"	3190.644353889	3188.456794339	1.5	0.1
0.01	1	3.00499187600008	1	64	NA	38.2669081270001	0	0.39	0.39	1	7.15854618999992	10.163538066	"1"	3190.644353889	3188.456794339	1.5	0.1
0.01	1	8.11652323199996	1	64	NA	38.2669081270001	0	0.39	0.39	1	10.3973227269998	18.5138459589998	"1"	3190.644353889	3188.456794339	1.5	0.1
0.01	1	0.00328103599986207	1	64	NA	38.2669081270001	0	0.39	0.39	1	18.7446574989999	18.7479385349998	"1"	3190.644353889	3188.456794339	1.5	0.1
0.01	1	0.846761277000041	1	64	NA	38.2669081270001	0	0.39	0.39	1	18.9785733449999	19.8253346219999	"1"	3190.644353889	3188.456794339	1.5	0.1
0.01	1	0.313574948999758	1	64	NA	38.2669081270001	0	0.39	0.39	1	20.0468757650001	20.3604507139999	"1"	3190.644353889	3188.456794339	1.5	0.1
0.01	1	0.23590300900014	1	64	NA	38.2669081270001	0	0.39	0.39	1	20.59789929	20.8338022990001	"1"	3190.644353889	3188.456794339	1.5	0.1
0.01	1	0.256502636000278	1	64	NA	38.2669081270001	0	0.39	0.39	1	21.0652834439998	21.32178608	"1"	3190.644353889	3188.456794339	1.5	0.1
0.01	1	0.268626783999935	1	64	NA	38.2669081270001	0	0.39	0.39	1	21.5494211320001	21.8180479160001	"1"	3190.644353889	3188.456794339	1.5	0.1
0.01	1	0.27861728400012	1	64	NA	38.2669081270001	0	0.39	0.39	1	22.0502924829998	22.3289097669999	"1"	3190.644353889	3188.456794339	1.5	0.1
0.01	1	0.227349789000073	1	64	NA	38.2669081270001	0	0.39	0.39	1	22.55113609	22.7784858790001	"1"	3190.644353889	3188.456794339	1.5	0.1
0.01	1	0.167752391000249	1	64	NA	38.2669081270001	0	0.39	0.39	1	23.0019366349998	23.169689026	"1"	3190.644353889	3188.456794339	1.5	0.1
0.01	1	0.166649250000319	1	64	NA	38.2669081270001	0	0.39	0.39	1	23.4025251399999	23.5691743900002	"1"	3190.644353889	3188.456794339	1.5	0.1
0.01	1	0.110880928999904	1	64	NA	38.2669081270001	0	0.39	0.39	1	23.803131142	23.9140120709999	"1"	3190.644353889	3188.456794339	1.5	0.1
0.01	1	0.136114524000277	1	64	NA	38.2669081270001	0	0.39	0.39	1	24.1370255809998	24.273140105	"1"	3190.644353889	3188.456794339	1.5	0.1
0.01	1	0.12792034999984	1	64	NA	38.2669081270001	0	0.39	0.39	1	24.5044528600001	24.63237321	"1"	3190.644353889	3188.456794339	1.5	0.1
0.01	1	0.115356862000226	1	64	NA	38.2669081270001	0	0.39	0.39	1	24.8549853049999	24.9703421670001	"1"	3190.644353889	3188.456794339	1.5	0.1
0.01	1	0.0594509210000069	1	64	NA	38.2669081270001	0	0.39	0.39	1	25.2055755000001	25.2650264210001	"1"	3190.644353889	3188.456794339	1.5	0.1
0.01	1	0.0880742599997575	1	64	NA	38.2669081270001	0	0.39	0.39	1	25.489341209	25.5774154689998	"1"	3190.644353889	3188.456794339	1.5	0.1
0.01	1	0.00215051599980143	1	64	NA	38.2669081270001	0	0.39	0.39	1	25.8066883390002	25.808838855	"1"	3190.644353889	3188.456794339	1.5	0.1
0.01	1	0.256549753999934	1	64	NA	38.2669081270001	0	0.39	0.39	1	26.0402177330002	26.2967674870001	"1"	3190.644353889	3188.456794339	1.5	0.1
0.01	1	0.00212615500004176	1	64	NA	38.2669081270001	0	0.39	0.39	1	26.524452442	26.526578597	"1"	3190.644353889	3188.456794339	1.5	0.1
0.01	1	0.114586772999701	1	64	NA	38.2669081270001	0	0.39	0.39	1	26.7581654750002	26.8727522479999	"1"	3190.644353889	3188.456794339	1.5	0.1
0.01	1	0.00234808000004705	1	64	NA	38.2669081270001	0	0.39	0.39	1	27.1087545810001	27.1111026610001	"1"	3190.644353889	3188.456794339	1.5	0.1
0.01	1	0.515221311000005	1	64	NA	38.2669081270001	0	0.39	0.39	1	27.3425181719999	27.8577394829999	"1"	3190.644353889	3188.456794339	1.5	0.1
0.01	1	0.131717178000144	1	64	NA	38.2669081270001	0	0.39	0.39	1	28.0937383169999	28.225455495	"1"	3190.644353889	3188.456794339	1.5	0.1
0.01	1	0.2448111409999	1	64	NA	38.2669081270001	0	0.39	0.39	1	28.4610147809999	28.7058259219998	"1"	3190.644353889	3188.456794339	1.5	0.1
0.01	1	0.233667341	1	64	NA	38.2669081270001	0	0.39	0.39	1	28.928568115	29.162235456	"1"	3190.644353889	3188.456794339	1.5	0.1
0.01	1	0.293538835000163	1	64	NA	38.2669081270001	0	0.39	0.39	1	29.395953405	29.6894922400002	"1"	3190.644353889	3188.456794339	1.5	0.1
0.01	1	0.303178376999767	1	64	NA	38.2669081270001	0	0.39	0.39	1	29.91366827	30.2168466469998	"1"	3190.644353889	3188.456794339	1.5	0.1
0.01	1	0.538058458999785	1	64	NA	38.2669081270001	0	0.39	0.39	1	30.4477973120001	30.9858557709999	"1"	3190.644353889	3188.456794339	1.5	0.1
0.01	1	0.985048372000165	1	64	NA	38.2669081270001	0	0.39	0.39	1	31.215596905	32.2006452770001	"1"	3190.644353889	3188.456794339	1.5	0.1
0.01	1	0.670915032000266	1	64	NA	38.2669081270001	0	0.39	0.39	1	32.4343167769998	33.1052318090001	"1"	3190.644353889	3188.456794339	1.5	0.1
0.01	1	0.546298654000111	1	64	NA	38.2669081270001	0	0.39	0.39	1	33.3358164749998	33.8821151289999	"1"	3190.644353889	3188.456794339	1.5	0.1
0.01	1	0.521579075999853	1	64	NA	38.2669081270001	0	0.39	0.39	1	34.103919313	34.6254983889999	"1"	3190.644353889	3188.456794339	1.5	0.1
0.01	1	0.530786062999596	1	64	NA	38.2669081270001	0	0.39	0.39	1	34.8550610000002	35.3858470629998	"1"	3190.644353889	3188.456794339	1.5	0.1
0.01	1	0.498725636000017	1	64	NA	38.2669081270001	0	0.39	0.39	1	35.6231498960001	36.1218755320001	"1"	3190.644353889	3188.456794339	1.5	0.1
0.01	1	0.477645719000066	1	64	NA	38.2669081270001	0	0.39	0.39	1	36.3577707720001	36.8354164910002	"1"	3190.644353889	3188.456794339	1.5	0.1
0.01	1	0.493925346000196	1	64	NA	38.2669081270001	0	0.39	0.39	1	37.0587827549998	37.552708101	"1"	3190.644353889	3188.456794339	1.5	0.1
0.01	1	0.488630385999841	2	64	NA	38.2669081270001	0	0.39	0.39	1	37.7766861489999	38.2653165349998	"1"	3190.644353889	3188.456794339	1.5	0.1
0.01	1	2.17397230400002	1	68	NA	56.0091092799998	0	0.39	0.78	1	40.314291313	42.488263617	"2"	3190.644353889	3188.456794339	1.5	0.1
0.01	1	0.0906535399999484	1	68	NA	56.0091092799998	0	0.39	0.78	1	42.7183187569999	42.8089722969999	"2"	3190.644353889	3188.456794339	1.5	0.1
0.01	1	0.229544331999932	1	68	NA	56.0091092799998	0	0.39	0.78	1	43.0354828210002	43.2650271530001	"2"	3190.644353889	3188.456794339	1.5	0.1
0.01	1	0.146269687000313	1	68	NA	56.0091092799998	0	0.39	0.78	1	43.4863458609998	43.6326155480001	"2"	3190.644353889	3188.456794339	1.5	0.1
0.01	1	0.0171106910001981	1	68	NA	56.0091092799998	0	0.39	0.78	1	43.8702404619999	43.8873511530001	"2"	3190.644353889	3188.456794339	1.5	0.1
0.01	1	0.0223141179999402	1	68	NA	56.0091092799998	0	0.39	0.78	1	44.1208909289999	44.1432050469998	"2"	3190.644353889	3188.456794339	1.5	0.1
0.01	1	0.00234458699969764	1	68	NA	56.0091092799998	0	0.39	0.78	1	44.3710954570001	44.3734400439998	"2"	3190.644353889	3188.456794339	1.5	0.1
0.01	1	0.00218826399986938	1	68	NA	56.0091092799998	0	0.39	0.78	1	44.604869239	44.6070575029999	"2"	3190.644353889	3188.456794339	1.5	0.1
0.01	1	0.0966676069997447	1	68	NA	56.0091092799998	0	0.39	0.78	1	44.8386174480002	44.9352850549999	"2"	3190.644353889	3188.456794339	1.5	0.1
0.01	1	0.00227330600000641	1	68	NA	56.0091092799998	0	0.39	0.78	1	45.1560938520001	45.1583671580001	"2"	3190.644353889	3188.456794339	1.5	0.1
0.01	1	0.00227315099982661	1	68	NA	56.0091092799998	0	0.39	0.78	1	45.3895048700001	45.3917780209999	"2"	3190.644353889	3188.456794339	1.5	0.1
0.01	1	0.00213161199962997	1	68	NA	56.0091092799998	0	0.39	0.78	1	45.6232226470001	45.6253542589998	"2"	3190.644353889	3188.456794339	1.5	0.1
0.01	1	0.00224472499985495	1	68	NA	56.0091092799998	0	0.39	0.78	1	45.856932482	45.8591772069999	"2"	3190.644353889	3188.456794339	1.5	0.1
0.01	1	0.00216481600000407	1	68	NA	56.0091092799998	0	0.39	0.78	1	46.0906392010002	46.0928040170002	"2"	3190.644353889	3188.456794339	1.5	0.1
0.01	1	0.0987341679997371	1	68	NA	56.0091092799998	0	0.39	0.78	1	46.3243798170001	46.4231139849999	"2"	3190.644353889	3188.456794339	1.5	0.1
0.01	1	0.00235091900003681	1	68	NA	56.0091092799998	0	0.39	0.78	1	46.6583537259999	46.6607046449999	"2"	3190.644353889	3188.456794339	1.5	0.1
0.01	1	0.00224000700018223	1	68	NA	56.0091092799998	0	0.39	0.78	1	46.8920699199998	46.894309927	"2"	3190.644353889	3188.456794339	1.5	0.1
0.01	1	0.00220938299980844	1	68	NA	56.0091092799998	0	0.39	0.78	1	47.125861038	47.1280704209998	"2"	3190.644353889	3188.456794339	1.5	0.1
0.01	1	0.00329760499971599	1	68	NA	56.0091092799998	0	0.39	0.78	1	47.3594901440001	47.3627877489998	"2"	3190.644353889	3188.456794339	1.5	0.1
0.01	1	0.00224877699974968	1	68	NA	56.0091092799998	0	0.39	0.78	1	47.5932580570002	47.5955068339999	"2"	3190.644353889	3188.456794339	1.5	0.1
0.01	1	0.00219022800001767	1	68	NA	56.0091092799998	0	0.39	0.78	1	47.8268749220001	47.8290651500001	"2"	3190.644353889	3188.456794339	1.5	0.1
0.01	1	0.0990659630001574	1	68	NA	56.0091092799998	0	0.39	0.78	1	48.0606732729998	48.159739236	"2"	3190.644353889	3188.456794339	1.5	0.1
0.01	1	0.00234752500000468	1	68	NA	56.0091092799998	0	0.39	0.78	1	48.3946086579999	48.3969561829999	"2"	3190.644353889	3188.456794339	1.5	0.1
0.01	1	0.100783882000087	1	68	NA	56.0091092799998	0	0.39	0.78	1	48.628491205	48.7292750870001	"2"	3190.644353889	3188.456794339	1.5	0.1
0.01	1	0.00219173699997555	1	68	NA	56.0091092799998	0	0.39	0.78	1	48.9621766199998	48.9643683569998	"2"	3190.644353889	3188.456794339	1.5	0.1
0.01	1	0.00198215099999288	1	68	NA	56.0091092799998	0	0.39	0.78	1	49.19604011	49.198022261	"2"	3190.644353889	3188.456794339	1.5	0.1
0.01	1	0.0738789629999701	1	68	NA	56.0091092799998	0	0.39	0.78	1	49.4296170930002	49.5034960560001	"2"	3190.644353889	3188.456794339	1.5	0.1
0.01	1	0.00218515799997476	1	68	NA	56.0091092799998	0	0.39	0.78	1	49.7301444469999	49.7323296049999	"2"	3190.644353889	3188.456794339	1.5	0.1
0.01	1	0.00216152900020461	1	68	NA	56.0091092799998	0	0.39	0.78	1	49.9640529809999	49.9662145100001	"2"	3190.644353889	3188.456794339	1.5	0.1
0.01	1	0.147118447000139	1	68	NA	56.0091092799998	0	0.39	0.78	1	50.1976151869999	50.344733634	"2"	3190.644353889	3188.456794339	1.5	0.1
0.01	1	0.00223238099988521	1	68	NA	56.0091092799998	0	0.39	0.78	1	50.5816173640001	50.583849745	"2"	3190.644353889	3188.456794339	1.5	0.1
0.01	1	0.00208805800002665	1	68	NA	56.0091092799998	0	0.39	0.78	1	50.8154707849999	50.8175588429999	"2"	3190.644353889	3188.456794339	1.5	0.1
0.01	1	0.00239086900000984	1	68	NA	56.0091092799998	0	0.39	0.78	1	51.0489979899999	51.0513888589999	"2"	3190.644353889	3188.456794339	1.5	0.1
0.01	1	0.492147042999932	1	68	NA	56.0091092799998	0	0.39	0.78	1	51.2829535649998	51.7751006079998	"2"	3190.644353889	3188.456794339	1.5	0.1
0.01	1	0.487517975000173	1	68	NA	56.0091092799998	0	0.39	0.78	1	52.0005886899999	52.488106665	"2"	3190.644353889	3188.456794339	1.5	0.1
0.01	1	0.681974006000019	1	68	NA	56.0091092799998	0	0.39	0.78	1	52.7184930929998	53.4004670989998	"2"	3190.644353889	3188.456794339	1.5	0.1
0.01	1	0.555755123000381	1	68	NA	56.0091092799998	0	0.39	0.78	1	53.6367722199998	54.1925273430002	"2"	3190.644353889	3188.456794339	1.5	0.1
0.01	1	0.51577787000042	1	68	NA	56.0091092799998	0	0.39	0.78	1	54.4213421599998	54.9371200300002	"2"	3190.644353889	3188.456794339	1.5	0.1
0.01	1	0.412318458999835	1	68	NA	56.0091092799998	0	0.39	0.78	1	55.1725864340001	55.5849048929999	"2"	3190.644353889	3188.456794339	1.5	0.1
0.01	1	0.183756980999988	2	68	NA	56.0091092799998	0	0.39	0.78	1	55.8237018670002	56.0074588480002	"2"	3190.644353889	3188.456794339	1.5	0.1
0.01	1	2.14570296800002	1	33	82.78731384	NA	1	0	0.78	1	58.0442317890002	60.1899347570002	"3"	3190.644353889	3188.456794339	1.5	0.1
0.01	1	0.495411437999792	1	33	82.78731384	NA	1	0	0.78	1	60.4148418270001	60.9102532649999	"3"	3190.644353889	3188.456794339	1.5	0.1
0.01	1	1.44099951199996	1	33	82.78731384	NA	1	0	0.78	1	61.1493876029999	62.5903871149999	"3"	3190.644353889	3188.456794339	1.5	0.1
0.01	1	0.76313976099982	1	33	82.78731384	NA	1	0	0.78	1	62.8189498820002	63.582089643	"3"	3190.644353889	3188.456794339	1.5	0.1
0.01	1	0.747194792999835	1	33	82.78731384	NA	1	0	0.78	1	63.8039455769999	64.5511403699998	"3"	3190.644353889	3188.456794339	1.5	0.1
0.01	1	0.65032799599976	1	33	82.78731384	NA	1	0	0.78	1	64.7887645440001	65.4390925399998	"3"	3190.644353889	3188.456794339	1.5	0.1
0.01	1	0.701750986999741	1	33	82.78731384	NA	1	0	0.78	1	65.6736153090001	66.3753662959998	"3"	3190.644353889	3188.456794339	1.5	0.1
0.01	1	0.654841799999758	1	33	82.78731384	NA	1	0	0.78	1	66.6085470070002	67.263388807	"3"	3190.644353889	3188.456794339	1.5	0.1
0.01	1	0.80840624099983	1	33	82.78731384	NA	1	0	0.78	1	67.4933592269999	68.3017654679998	"3"	3190.644353889	3188.456794339	1.5	0.1
0.01	1	0.486745143999997	1	33	82.78731384	NA	1	0	0.78	1	68.528534515	69.015279659	"3"	3190.644353889	3188.456794339	1.5	0.1
0.01	1	0.281125073000112	1	33	82.78731384	NA	1	0	0.78	1	69.2464368149999	69.527561888	"3"	3190.644353889	3188.456794339	1.5	0.1
0.01	1	0.267370573000335	1	33	82.78731384	NA	1	0	0.78	1	69.7639543599998	70.0313249330002	"3"	3190.644353889	3188.456794339	1.5	0.1
0.01	1	0.246745322000152	1	33	82.78731384	NA	1	0	0.78	1	70.2647499199998	70.5114952419999	"3"	3190.644353889	3188.456794339	1.5	0.1
0.01	1	0.344829842000308	1	33	82.78731384	NA	1	0	0.78	1	70.7488197779999	71.0936496200002	"3"	3190.644353889	3188.456794339	1.5	0.1
0.01	1	0.243448885999896	1	33	82.78731384	NA	1	0	0.78	1	71.316402634	71.5598515199999	"3"	3190.644353889	3188.456794339	1.5	0.1
0.01	1	0.255049520000284	1	33	82.78731384	NA	1	0	0.78	1	71.7839222019998	72.038971722	"3"	3190.644353889	3188.456794339	1.5	0.1
0.01	1	0.226410056999612	1	33	82.78731384	NA	1	0	0.78	1	72.2681823940002	72.4945924509998	"3"	3190.644353889	3188.456794339	1.5	0.1
0.01	1	0.215222541000003	1	33	82.78731384	NA	1	0	0.78	1	72.7187512609999	72.9339738019999	"3"	3190.644353889	3188.456794339	1.5	0.1
0.01	1	0.23685502699982	1	33	82.78731384	NA	1	0	0.78	1	73.16978333	73.4066383569998	"3"	3190.644353889	3188.456794339	1.5	0.1
0.01	1	0.320434467000268	1	33	82.78731384	NA	1	0	0.78	1	73.6372231149999	73.9576575820001	"3"	3190.644353889	3188.456794339	1.5	0.1
0.01	1	0.32318159200031	1	33	82.78731384	NA	1	0	0.78	1	74.1879486809999	74.5111302730002	"3"	3190.644353889	3188.456794339	1.5	0.1
0.01	1	0.300442772999759	1	33	82.78731384	NA	1	0	0.78	1	74.7389109840001	75.0393537569998	"3"	3190.644353889	3188.456794339	1.5	0.1
0.01	1	0.549818525999854	1	33	82.78731384	NA	1	0	0.78	1	75.2732467430001	75.8230652689999	"3"	3190.644353889	3188.456794339	1.5	0.1
0.01	1	0.301524593000067	1	33	82.78731384	NA	1	0	0.78	1	76.0578551799999	76.359379773	"3"	3190.644353889	3188.456794339	1.5	0.1
0.01	1	0.365670645000137	1	33	82.78731384	NA	1	0	0.78	1	76.591968707	76.9576393520001	"3"	3190.644353889	3188.456794339	1.5	0.1
0.01	1	0.326022218000162	1	33	82.78731384	NA	1	0	0.78	1	77.1929995649998	77.519021783	"3"	3190.644353889	3188.456794339	1.5	0.1
0.01	1	0.279649096000412	1	33	82.78731384	NA	1	0	0.78	1	77.7440555069998	78.0237046030002	"3"	3190.644353889	3188.456794339	1.5	0.1
0.01	1	0.489994080000088	1	33	82.78731384	NA	1	0	0.78	1	78.2447628099999	78.73475689	"3"	3190.644353889	3188.456794339	1.5	0.1
0.01	1	0.397024862999842	1	33	82.78731384	NA	1	0	0.78	1	78.9626956669999	79.3597205299998	"3"	3190.644353889	3188.456794339	1.5	0.1
0.01	1	0.970365880999907	1	33	82.78731384	NA	1	0	0.78	1	79.597055533	80.5674214139999	"3"	3190.644353889	3188.456794339	1.5	0.1
0.01	1	0.536085373000333	1	33	82.78731384	NA	1	0	0.78	1	80.7992510949998	81.3353364680002	"3"	3190.644353889	3188.456794339	1.5	0.1
0.01	1	0.353005630999633	1	33	82.78731384	NA	1	0	0.78	1	81.5671752140001	81.9201808449998	"3"	3190.644353889	3188.456794339	1.5	0.1
0.01	1	0.520113750000291	1	33	82.78731384	NA	1	0	0.78	1	82.1514913729998	82.6716051230001	"3"	3190.644353889	3188.456794339	1.5	0.1
0.01	1	0.798902671999713	1	105	NA	107.064762113	0	0.34	1.12	1	84.83924247	85.6381451419998	"4"	3190.644353889	3188.456794339	1.5	0.1
0.01	1	0.259622209000099	1	105	NA	107.064762113	0	0.34	1.12	1	85.8744018319999	86.134024041	"4"	3190.644353889	3188.456794339	1.5	0.1
0.01	1	0.264435500999753	1	105	NA	107.064762113	0	0.34	1.12	1	86.358420475	86.6228559759998	"4"	3190.644353889	3188.456794339	1.5	0.1
0.01	1	0.251481497999976	1	105	NA	107.064762113	0	0.34	1.12	1	86.8592658990001	87.1107473970001	"4"	3190.644353889	3188.456794339	1.5	0.1
0.01	1	0.255629034999856	1	105	NA	107.064762113	0	0.34	1.12	1	87.3434843680002	87.599113403	"4"	3190.644353889	3188.456794339	1.5	0.1
0.01	1	0.2194488680002	1	105	NA	107.064762113	0	0.34	1.12	1	87.827582592	88.0470314600002	"4"	3190.644353889	3188.456794339	1.5	0.1
0.01	1	0.151514758999838	1	105	NA	107.064762113	0	0.34	1.12	1	88.2783084610001	88.4298232199999	"4"	3190.644353889	3188.456794339	1.5	0.1
0.01	1	0.07326966599976	1	105	NA	107.064762113	0	0.34	1.12	1	88.6623735650001	88.7356432309998	"4"	3190.644353889	3188.456794339	1.5	0.1
0.01	1	0.011719376000201	1	105	NA	107.064762113	0	0.34	1.12	1	88.962940635	88.9746600110002	"4"	3190.644353889	3188.456794339	1.5	0.1
0.01	1	0.0182968560002337	1	105	NA	107.064762113	0	0.34	1.12	1	89.2132536039999	89.2315504600001	"4"	3190.644353889	3188.456794339	1.5	0.1
0.01	1	0.303633810000065	1	105	NA	107.064762113	0	0.34	1.12	1	89.4637068950001	89.7673407050002	"4"	3190.644353889	3188.456794339	1.5	0.1
0.01	1	0.424896583000191	1	105	NA	107.064762113	0	0.34	1.12	1	89.9980219839999	90.4229185670001	"4"	3190.644353889	3188.456794339	1.5	0.1
0.01	1	0.527713404000224	1	105	NA	107.064762113	0	0.34	1.12	1	90.64902605	91.1767394540002	"4"	3190.644353889	3188.456794339	1.5	0.1
0.01	1	0.510637877000136	1	105	NA	107.064762113	0	0.34	1.12	1	91.400376949	91.9110148260002	"4"	3190.644353889	3188.456794339	1.5	0.1
0.01	1	0.470870391000062	1	105	NA	107.064762113	0	0.34	1.12	1	92.1515560590001	92.6224264500001	"4"	3190.644353889	3188.456794339	1.5	0.1
0.01	1	0.570109987999786	1	105	NA	107.064762113	0	0.34	1.12	1	92.8526821400001	93.4227921279999	"4"	3190.644353889	3188.456794339	1.5	0.1
0.01	1	0.791747923999992	1	105	NA	107.064762113	0	0.34	1.12	1	93.6540371729998	94.4457850969998	"4"	3190.644353889	3188.456794339	1.5	0.1
0.01	1	0.869461440999657	1	105	NA	107.064762113	0	0.34	1.12	1	94.6723980020001	95.5418594429998	"4"	3190.644353889	3188.456794339	1.5	0.1
0.01	1	0.591372515999865	1	105	NA	107.064762113	0	0.34	1.12	1	95.774428872	96.3658013879999	"4"	3190.644353889	3188.456794339	1.5	0.1
0.01	1	0.462936432999868	1	105	NA	107.064762113	0	0.34	1.12	1	96.5923673510001	97.055303784	"4"	3190.644353889	3188.456794339	1.5	0.1
0.01	1	0.440784232999704	1	105	NA	107.064762113	0	0.34	1.12	1	97.2770074770001	97.7177917099998	"4"	3190.644353889	3188.456794339	1.5	0.1
0.01	1	0.0778009709997605	1	105	NA	107.064762113	0	0.34	1.12	1	97.9446628390001	98.0224638099999	"4"	3190.644353889	3188.456794339	1.5	0.1
0.01	1	0.722335738999845	1	105	NA	107.064762113	0	0.34	1.12	1	98.245288781	98.9676245199998	"4"	3190.644353889	3188.456794339	1.5	0.1
0.01	1	0.546702234999884	1	105	NA	107.064762113	0	0.34	1.12	1	99.1967588020002	99.7434610370001	"4"	3190.644353889	3188.456794339	1.5	0.1
0.01	1	0.336450857000273	1	105	NA	107.064762113	0	0.34	1.12	1	99.9815012999998	100.317952157	"4"	3190.644353889	3188.456794339	1.5	0.1
0.01	1	0.338536434000162	1	105	NA	107.064762113	0	0.34	1.12	1	100.549119721	100.887656155	"4"	3190.644353889	3188.456794339	1.5	0.1
0.01	1	0.305967976999909	1	105	NA	107.064762113	0	0.34	1.12	1	101.116686023	101.422654	"4"	3190.644353889	3188.456794339	1.5	0.1
0.01	1	0.306696192000345	1	105	NA	107.064762113	0	0.34	1.12	1	101.650864895	101.957561087	"4"	3190.644353889	3188.456794339	1.5	0.1
0.01	1	0.32619491000014	1	105	NA	107.064762113	0	0.34	1.12	1	102.18512427	102.51131918	"4"	3190.644353889	3188.456794339	1.5	0.1
0.01	1	0.270474997999827	1	105	NA	107.064762113	0	0.34	1.12	1	102.735960712	103.00643571	"4"	3190.644353889	3188.456794339	1.5	0.1
0.01	1	0.314128678000088	1	105	NA	107.064762113	0	0.34	1.12	1	103.236845455	103.550974133	"4"	3190.644353889	3188.456794339	1.5	0.1
0.01	1	0.562664582000252	1	105	NA	107.064762113	0	0.34	1.12	1	103.787843971	104.350508553	"4"	3190.644353889	3188.456794339	1.5	0.1
0.01	1	0.451976015000128	1	105	NA	107.064762113	0	0.34	1.12	1	104.572433757	105.024409772	"4"	3190.644353889	3188.456794339	1.5	0.1
0.01	1	0.573942832000284	1	105	NA	107.064762113	0	0.34	1.12	1	105.256975978	105.83091881	"4"	3190.644353889	3188.456794339	1.5	0.1
0.01	1	1.00476056399975	2	105	NA	107.064762113	0	0.34	1.12	1	106.058411209	107.063171773	"4"	3190.644353889	3188.456794339	1.5	0.1
0.01	1	0.637142697999934	1	73	NA	125.92787708	0	0.37	1.49	1	109.096881215	109.734023913	"5"	3190.644353889	3188.456794339	1.5	0.1
0.01	1	0.257739933999801	1	73	NA	125.92787708	0	0.37	1.49	1	109.964910913	110.222650847	"5"	3190.644353889	3188.456794339	1.5	0.1
0.01	1	0.126558686999942	1	73	NA	125.92787708	0	0.37	1.49	1	110.448953947	110.575512634	"5"	3190.644353889	3188.456794339	1.5	0.1
0.01	1	0.0148490639999181	1	73	NA	125.92787708	0	0.37	1.49	1	110.799633352	110.814482416	"5"	3190.644353889	3188.456794339	1.5	0.1
0.01	1	0.0287623509998411	1	73	NA	125.92787708	0	0.37	1.49	1	111.050120897	111.078883248	"5"	3190.644353889	3188.456794339	1.5	0.1
0.01	1	0.0740278639996177	1	73	NA	125.92787708	0	0.37	1.49	1	111.31710723	111.391135094	"5"	3190.644353889	3188.456794339	1.5	0.1
0.01	1	0.0144514590001563	1	73	NA	125.92787708	0	0.37	1.49	1	111.617605214	111.632056673	"5"	3190.644353889	3188.456794339	1.5	0.1
0.01	1	0.0349748339999678	1	73	NA	125.92787708	0	0.37	1.49	1	111.8682926	111.903267434	"5"	3190.644353889	3188.456794339	1.5	0.1
0.01	1	0.00220544400008293	1	73	NA	125.92787708	0	0.37	1.49	1	112.13522806	112.137433504	"5"	3190.644353889	3188.456794339	1.5	0.1
0.01	1	0.00223241000003327	1	73	NA	125.92787708	0	0.37	1.49	1	112.36887444	112.37110685	"5"	3190.644353889	3188.456794339	1.5	0.1
0.01	1	0.00743618500018783	1	73	NA	125.92787708	0	0.37	1.49	1	112.602635154	112.610071339	"5"	3190.644353889	3188.456794339	1.5	0.1
0.01	1	0.00233491900007721	1	73	NA	125.92787708	0	0.37	1.49	1	112.83630549	112.838640409	"5"	3190.644353889	3188.456794339	1.5	0.1
0.01	1	0.00233985100021528	1	73	NA	125.92787708	0	0.37	1.49	1	113.070114882	113.072454733	"5"	3190.644353889	3188.456794339	1.5	0.1
0.01	1	0.0022099109996816	1	73	NA	125.92787708	0	0.37	1.49	1	113.30374604	113.305955951	"5"	3190.644353889	3188.456794339	1.5	0.1
0.01	1	0.221741209999891	1	73	NA	125.92787708	0	0.37	1.49	1	113.537559038	113.759300248	"5"	3190.644353889	3188.456794339	1.5	0.1
0.01	1	0.242739538000023	1	73	NA	125.92787708	0	0.37	1.49	1	113.988280765	114.231020303	"5"	3190.644353889	3188.456794339	1.5	0.1
0.01	1	0.214569268000105	1	73	NA	125.92787708	0	0.37	1.49	1	114.455863099	114.670432367	"5"	3190.644353889	3188.456794339	1.5	0.1
0.01	1	0.219679631999952	1	73	NA	125.92787708	0	0.37	1.49	1	114.906513678	115.12619331	"5"	3190.644353889	3188.456794339	1.5	0.1
0.01	1	0.201149187000283	1	73	NA	125.92787708	0	0.37	1.49	1	115.357345735	115.558494922	"5"	3190.644353889	3188.456794339	1.5	0.1
0.01	1	0.231744420999803	1	73	NA	125.92787708	0	0.37	1.49	1	115.791333512	116.023077933	"5"	3190.644353889	3188.456794339	1.5	0.1
0.01	1	0.218822570999691	1	73	NA	125.92787708	0	0.37	1.49	1	116.258786658	116.477609229	"5"	3190.644353889	3188.456794339	1.5	0.1
0.01	1	0.225676809000106	1	73	NA	125.92787708	0	0.37	1.49	1	116.709550259	116.935227068	"5"	3190.644353889	3188.456794339	1.5	0.1
0.01	1	0.231228376999752	1	73	NA	125.92787708	0	0.37	1.49	1	117.160279049	117.391507426	"5"	3190.644353889	3188.456794339	1.5	0.1
0.01	1	0.275380379000126	1	73	NA	125.92787708	0	0.37	1.49	1	117.627764242	117.903144621	"5"	3190.644353889	3188.456794339	1.5	0.1
0.01	1	0.270955313999821	1	73	NA	125.92787708	0	0.37	1.49	1	118.128601922	118.399557236	"5"	3190.644353889	3188.456794339	1.5	0.1
0.01	1	0.297260984999866	1	73	NA	125.92787708	0	0.37	1.49	1	118.629366225	118.92662721	"5"	3190.644353889	3188.456794339	1.5	0.1
0.01	1	0.259470166000028	1	73	NA	125.92787708	0	0.37	1.49	1	119.163713355	119.423183521	"5"	3190.644353889	3188.456794339	1.5	0.1
0.01	1	0.311275006999949	1	73	NA	125.92787708	0	0.37	1.49	1	119.647773393	119.9590484	"5"	3190.644353889	3188.456794339	1.5	0.1
0.01	1	0.311699497999598	1	73	NA	125.92787708	0	0.37	1.49	1	120.18211155	120.493811048	"5"	3190.644353889	3188.456794339	1.5	0.1
0.01	1	0.281681066000147	1	73	NA	125.92787708	0	0.37	1.49	1	120.716297988	120.997979054	"5"	3190.644353889	3188.456794339	1.5	0.1
0.01	1	0.317153633000089	1	73	NA	125.92787708	0	0.37	1.49	1	121.233836714	121.550990347	"5"	3190.644353889	3188.456794339	1.5	0.1
0.01	1	0.293016563000037	1	73	NA	125.92787708	0	0.37	1.49	1	121.78474756	122.077764123	"5"	3190.644353889	3188.456794339	1.5	0.1
0.01	1	0.271529997000016	1	73	NA	125.92787708	0	0.37	1.49	1	122.302299635	122.573829632	"5"	3190.644353889	3188.456794339	1.5	0.1
0.01	1	0.347830579999936	1	73	NA	125.92787708	0	0.37	1.49	1	122.80317305	123.15100363	"5"	3190.644353889	3188.456794339	1.5	0.1
0.01	1	0.40226383900017	1	73	NA	125.92787708	0	0.37	1.49	1	123.387442661	123.7897065	"5"	3190.644353889	3188.456794339	1.5	0.1
0.01	1	0.353163732000212	1	73	NA	125.92787708	0	0.37	1.49	1	124.021958293	124.375122025	"5"	3190.644353889	3188.456794339	1.5	0.1
0.01	1	0.243125449999752	1	73	NA	125.92787708	0	0.37	1.49	1	124.739683055	124.982808505	"5"	3190.644353889	3188.456794339	1.5	0.1
0.01	1	0.719167574000039	2	73	NA	125.92787708	0	0.37	1.49	1	125.207150422	125.926317996	"5"	3190.644353889	3188.456794339	1.5	0.1
0.01	1	0.539665839999998	1	45	NA	143.984220879	0	0.3	1.79	1	127.978482565	128.518148405	"6"	3190.644353889	3188.456794339	1.5	0.1
0.01	1	0.235376596000151	1	45	NA	143.984220879	0	0.3	1.79	1	128.746528238	128.981904834	"6"	3190.644353889	3188.456794339	1.5	0.1
0.01	1	0.217210708000039	1	45	NA	143.984220879	0	0.3	1.79	1	129.213887106	129.431097814	"6"	3190.644353889	3188.456794339	1.5	0.1
0.01	1	0.190206930999921	1	45	NA	143.984220879	0	0.3	1.79	1	129.664648889	129.85485582	"6"	3190.644353889	3188.456794339	1.5	0.1
0.01	1	0.188124795000022	1	45	NA	143.984220879	0	0.3	1.79	1	130.082091639	130.270216434	"6"	3190.644353889	3188.456794339	1.5	0.1
0.01	1	0.203104666000399	1	45	NA	143.984220879	0	0.3	1.79	1	130.499370667	130.702475333	"6"	3190.644353889	3188.456794339	1.5	0.1
0.01	1	0.144493439000144	1	45	NA	143.984220879	0	0.3	1.79	1	130.93352014	131.078013579	"6"	3190.644353889	3188.456794339	1.5	0.1
0.01	1	0.169417753000289	1	45	NA	143.984220879	0	0.3	1.79	1	131.300732714	131.470150467	"6"	3190.644353889	3188.456794339	1.5	0.1
0.01	1	0.128582224999718	1	45	NA	143.984220879	0	0.3	1.79	1	131.7015381	131.830120325	"6"	3190.644353889	3188.456794339	1.5	0.1
0.01	1	0.0901600960000906	1	45	NA	143.984220879	0	0.3	1.79	1	132.068716667	132.158876763	"6"	3190.644353889	3188.456794339	1.5	0.1
0.01	1	0.10941959999991	1	45	NA	143.984220879	0	0.3	1.79	1	132.385894467	132.495314067	"6"	3190.644353889	3188.456794339	1.5	0.1
0.01	1	0.0710183410001264	1	45	NA	143.984220879	0	0.3	1.79	1	132.736423252	132.807441593	"6"	3190.644353889	3188.456794339	1.5	0.1
0.01	1	0.122316838000188	1	45	NA	143.984220879	0	0.3	1.79	1	133.037010733	133.159327571	"6"	3190.644353889	3188.456794339	1.5	0.1
0.01	1	0.434238518999791	1	45	NA	143.984220879	0	0.3	1.79	1	133.387602398	133.821840917	"6"	3190.644353889	3188.456794339	1.5	0.1
0.01	1	0.327603766000266	1	45	NA	143.984220879	0	0.3	1.79	1	134.055485168	134.383088934	"6"	3190.644353889	3188.456794339	1.5	0.1
0.01	1	0.34372353300023	1	45	NA	143.984220879	0	0.3	1.79	1	134.606336477	134.95006001	"6"	3190.644353889	3188.456794339	1.5	0.1
0.01	1	0.289228602000094	1	45	NA	143.984220879	0	0.3	1.79	1	135.173860716	135.463089318	"6"	3190.644353889	3188.456794339	1.5	0.1
0.01	1	0.355890808000368	1	45	NA	143.984220879	0	0.3	1.79	1	135.69151424	136.047405048	"6"	3190.644353889	3188.456794339	1.5	0.1
0.01	1	0.322369916999833	1	45	NA	143.984220879	0	0.3	1.79	1	136.275728897	136.598098814	"6"	3190.644353889	3188.456794339	1.5	0.1
0.01	1	0.467009851000057	1	45	NA	143.984220879	0	0.3	1.79	1	136.826666042	137.293675893	"6"	3190.644353889	3188.456794339	1.5	0.1
0.01	1	0.375636190000023	1	45	NA	143.984220879	0	0.3	1.79	1	137.527828618	137.903464808	"6"	3190.644353889	3188.456794339	1.5	0.1
0.01	1	0.373462961999849	1	45	NA	143.984220879	0	0.3	1.79	1	138.128917026	138.502379988	"6"	3190.644353889	3188.456794339	1.5	0.1
0.01	1	0.421513156999936	1	45	NA	143.984220879	0	0.3	1.79	1	138.729856985	139.151370142	"6"	3190.644353889	3188.456794339	1.5	0.1
0.01	1	0.282478965999871	1	45	NA	143.984220879	0	0.3	1.79	1	139.381035071	139.663514037	"6"	3190.644353889	3188.456794339	1.5	0.1
0.01	1	0.316206456000145	1	45	NA	143.984220879	0	0.3	1.79	1	139.898538463	140.214744919	"6"	3190.644353889	3188.456794339	1.5	0.1
0.01	1	0.277914747000068	1	45	NA	143.984220879	0	0.3	1.79	1	140.449417273	140.72733202	"6"	3190.644353889	3188.456794339	1.5	0.1
0.01	1	0.271184896999785	1	45	NA	143.984220879	0	0.3	1.79	1	140.950373857	141.221558754	"6"	3190.644353889	3188.456794339	1.5	0.1
0.01	1	0.242632882999715	1	45	NA	143.984220879	0	0.3	1.79	1	141.451123876	141.693756759	"6"	3190.644353889	3188.456794339	1.5	0.1
0.01	1	0.607584263999797	1	45	NA	143.984220879	0	0.3	1.79	1	141.918739101	142.526323365	"6"	3190.644353889	3188.456794339	1.5	0.1
0.01	1	0.556884768000145	1	45	NA	143.984220879	0	0.3	1.79	1	142.753290615	143.310175383	"6"	3190.644353889	3188.456794339	1.5	0.1
0.01	1	0.444581408999966	2	45	NA	143.984220879	0	0.3	1.79	1	143.538004381	143.98258579	"6"	3190.644353889	3188.456794339	1.5	0.1
0.01	1	0.701132132000112	1	10	151.804455387	NA	1	0	1.79	1	146.042141599	146.743273731	"7"	3190.644353889	3188.456794339	1.5	0.1
0.01	1	0.580557290999877	1	10	151.804455387	NA	1	0	1.79	1	146.9770739	147.557631191	"7"	3190.644353889	3188.456794339	1.5	0.1
0.01	1	0.427290160999746	1	10	151.804455387	NA	1	0	1.79	1	147.778398027	148.205688188	"7"	3190.644353889	3188.456794339	1.5	0.1
0.01	1	0.378339551999943	1	10	151.804455387	NA	1	0	1.79	1	148.429660355	148.807999907	"7"	3190.644353889	3188.456794339	1.5	0.1
0.01	1	0.271014684999955	1	10	151.804455387	NA	1	0	1.79	1	149.030526515	149.3015412	"7"	3190.644353889	3188.456794339	1.5	0.1
0.01	1	0.268035735000012	1	10	151.804455387	NA	1	0	1.79	1	149.53141883	149.799454565	"7"	3190.644353889	3188.456794339	1.5	0.1
0.01	1	0.245538193999892	1	10	151.804455387	NA	1	0	1.79	1	150.032229243	150.277767437	"7"	3190.644353889	3188.456794339	1.5	0.1
0.01	1	0.259717861999889	1	10	151.804455387	NA	1	0	1.79	1	150.499777049	150.759494911	"7"	3190.644353889	3188.456794339	1.5	0.1
0.01	1	0.24750132500003	1	10	151.804455387	NA	1	0	1.79	1	150.983858195	151.23135952	"7"	3190.644353889	3188.456794339	1.5	0.1
0.01	1	0.219718722999914	1	10	151.804455387	NA	1	0	1.79	1	151.468044696	151.687763419	"7"	3190.644353889	3188.456794339	1.5	0.1
0.01	1	0.566672829000254	1	37	NA	164.792970237	0	0.2	1.99	1	153.855492237	154.422165066	"8"	3190.644353889	3188.456794339	1.5	0.1
0.01	1	0.157850258000053	1	37	NA	164.792970237	0	0.2	1.99	1	154.656641408	154.814491666	"8"	3190.644353889	3188.456794339	1.5	0.1
0.01	1	0.0932288199996947	1	37	NA	164.792970237	0	0.2	1.99	1	155.04082254	155.13405136	"8"	3190.644353889	3188.456794339	1.5	0.1
0.01	1	0.144450157999927	1	37	NA	164.792970237	0	0.2	1.99	1	155.357854886	155.502305044	"8"	3190.644353889	3188.456794339	1.5	0.1
0.01	1	0.0650610459997552	1	37	NA	164.792970237	0	0.2	1.99	1	155.725091833	155.790152879	"8"	3190.644353889	3188.456794339	1.5	0.1
0.01	1	0.0444977829997697	1	37	NA	164.792970237	0	0.2	1.99	1	156.025722417	156.0702202	"8"	3190.644353889	3188.456794339	1.5	0.1
0.01	1	0.0992057930002375	1	37	NA	164.792970237	0	0.2	1.99	1	156.292723524	156.391929317	"8"	3190.644353889	3188.456794339	1.5	0.1
0.01	1	0.00210654300008173	1	37	NA	164.792970237	0	0.2	1.99	1	156.626712624	156.628819167	"8"	3190.644353889	3188.456794339	1.5	0.1
0.01	1	0.0190526909996152	1	37	NA	164.792970237	0	0.2	1.99	1	156.860483796	156.879536487	"8"	3190.644353889	3188.456794339	1.5	0.1
0.01	1	0.0317628600000717	1	37	NA	164.792970237	0	0.2	1.99	1	157.110892295	157.142655155	"8"	3190.644353889	3188.456794339	1.5	0.1
0.01	1	0.243928323000091	1	37	NA	164.792970237	0	0.2	1.99	1	157.377992656	157.621920979	"8"	3190.644353889	3188.456794339	1.5	0.1
0.01	1	0.384846848999587	1	37	NA	164.792970237	0	0.2	1.99	1	157.862179819	158.247026668	"8"	3190.644353889	3188.456794339	1.5	0.1
0.01	1	0.293790883000383	1	37	NA	164.792970237	0	0.2	1.99	1	158.47973587	158.773526753	"8"	3190.644353889	3188.456794339	1.5	0.1
0.01	1	0.280619132000083	1	37	NA	164.792970237	0	0.2	1.99	1	158.997424871	159.278044003	"8"	3190.644353889	3188.456794339	1.5	0.1
0.01	1	0.243556949999856	1	37	NA	164.792970237	0	0.2	1.99	1	159.514841738	159.758398688	"8"	3190.644353889	3188.456794339	1.5	0.1
0.01	1	0.328139697000097	1	37	NA	164.792970237	0	0.2	1.99	1	159.982357634	160.310497331	"8"	3190.644353889	3188.456794339	1.5	0.1
0.01	1	0.617186303999915	1	37	NA	164.792970237	0	0.2	1.99	1	160.533253531	161.150439835	"8"	3190.644353889	3188.456794339	1.5	0.1
0.01	1	0.6143560229998	1	37	NA	164.792970237	0	0.2	1.99	1	161.384704167	161.99906019	"8"	3190.644353889	3188.456794339	1.5	0.1
0.01	1	0.857621002000087	1	37	NA	164.792970237	0	0.2	1.99	1	162.236114975	163.093735977	"8"	3190.644353889	3188.456794339	1.5	0.1
0.01	1	0.509789074999844	1	37	NA	164.792970237	0	0.2	1.99	1	163.321277387	163.831066462	"8"	3190.644353889	3188.456794339	1.5	0.1
0.01	1	0.735571820999667	2	37	NA	164.792970237	0	0.2	1.99	1	164.055833617	164.791405438	"8"	3190.644353889	3188.456794339	1.5	0.1
0.01	1	17.1268828440002	1	108	NA	208.027839533	0	0.38	2.37	1	166.843854727	183.970737571	"9"	3190.644353889	3188.456794339	1.5	0.1
0.01	1	0.251494603000083	1	108	NA	208.027839533	0	0.38	2.37	1	184.206445849	184.457940452	"9"	3190.644353889	3188.456794339	1.5	0.1
0.01	1	0.27994967900031	1	108	NA	208.027839533	0	0.38	2.37	1	184.6905466	184.970496279	"9"	3190.644353889	3188.456794339	1.5	0.1
0.01	1	0.625919133000025	1	108	NA	208.027839533	0	0.38	2.37	1	185.208130027	185.83404916	"9"	3190.644353889	3188.456794339	1.5	0.1
0.01	1	0.213597011000275	1	108	NA	208.027839533	0	0.38	2.37	1	186.059462328	186.273059339	"9"	3190.644353889	3188.456794339	1.5	0.1
0.01	1	0.268542889999935	1	108	NA	208.027839533	0	0.38	2.37	1	186.510300052	186.778842942	"9"	3190.644353889	3188.456794339	1.5	0.1
0.01	1	0.165699209000195	1	108	NA	208.027839533	0	0.38	2.37	1	187.011201417	187.176900626	"9"	3190.644353889	3188.456794339	1.5	0.1
0.01	1	0.310002217999681	1	108	NA	208.027839533	0	0.38	2.37	1	187.411753315	187.721755533	"9"	3190.644353889	3188.456794339	1.5	0.1
0.01	1	0.25580324099974	1	108	NA	208.027839533	0	0.38	2.37	1	187.946013862	188.201817103	"9"	3190.644353889	3188.456794339	1.5	0.1
0.01	1	0.317585756999961	1	108	NA	208.027839533	0	0.38	2.37	1	188.43012685	188.747712607	"9"	3190.644353889	3188.456794339	1.5	0.1
0.01	1	0.380138833999808	1	108	NA	208.027839533	0	0.38	2.37	1	188.98136217	189.361501004	"9"	3190.644353889	3188.456794339	1.5	0.1
0.01	1	0.291805391999787	1	108	NA	208.027839533	0	0.38	2.37	1	189.598798767	189.890604159	"9"	3190.644353889	3188.456794339	1.5	0.1
0.01	1	0.343893908000155	1	108	NA	208.027839533	0	0.38	2.37	1	190.11644028	190.460334188	"9"	3190.644353889	3188.456794339	1.5	0.1
0.01	1	0.349877093000032	1	108	NA	208.027839533	0	0.38	2.37	1	190.700661124	191.050538217	"9"	3190.644353889	3188.456794339	1.5	0.1
0.01	1	0.332467383999756	1	108	NA	208.027839533	0	0.38	2.37	1	191.284919696	191.61738708	"9"	3190.644353889	3188.456794339	1.5	0.1
0.01	1	0.358035482000105	1	108	NA	208.027839533	0	0.38	2.37	1	191.852576963	192.210612445	"9"	3190.644353889	3188.456794339	1.5	0.1
0.01	1	0.469218185000045	1	108	NA	208.027839533	0	0.38	2.37	1	192.436958102	192.906176287	"9"	3190.644353889	3188.456794339	1.5	0.1
0.01	1	0.382951580000281	1	108	NA	208.027839533	0	0.38	2.37	1	193.138156097	193.521107677	"9"	3190.644353889	3188.456794339	1.5	0.1
0.01	1	0.405767065999953	1	108	NA	208.027839533	0	0.38	2.37	1	193.755759114	194.16152618	"9"	3190.644353889	3188.456794339	1.5	0.1
0.01	1	0.444920680999985	1	108	NA	208.027839533	0	0.38	2.37	1	194.390145939	194.83506662	"9"	3190.644353889	3188.456794339	1.5	0.1
0.01	1	0.585008709000249	1	108	NA	208.027839533	0	0.38	2.37	1	195.058004708	195.643013417	"9"	3190.644353889	3188.456794339	1.5	0.1
0.01	1	0.453310713000064	1	108	NA	208.027839533	0	0.38	2.37	1	195.876015254	196.329325967	"9"	3190.644353889	3188.456794339	1.5	0.1
0.01	1	0.530098554999768	1	108	NA	208.027839533	0	0.38	2.37	1	196.56046061	197.090559165	"9"	3190.644353889	3188.456794339	1.5	0.1
0.01	1	0.41740857700006	1	108	NA	208.027839533	0	0.38	2.37	1	197.328426578	197.745835155	"9"	3190.644353889	3188.456794339	1.5	0.1
0.01	1	0.519433805999597	1	108	NA	208.027839533	0	0.38	2.37	1	197.979501909	198.498935715	"9"	3190.644353889	3188.456794339	1.5	0.1
0.01	1	0.495253977000175	1	108	NA	208.027839533	0	0.38	2.37	1	198.730834993	199.22608897	"9"	3190.644353889	3188.456794339	1.5	0.1
0.01	1	0.529718848999892	1	108	NA	208.027839533	0	0.38	2.37	1	199.465457744	199.995176593	"9"	3190.644353889	3188.456794339	1.5	0.1
0.01	1	0.448884097000246	1	108	NA	208.027839533	0	0.38	2.37	1	200.233283491	200.682167588	"9"	3190.644353889	3188.456794339	1.5	0.1
0.01	1	0.522982421000052	1	108	NA	208.027839533	0	0.38	2.37	1	200.917941315	201.440923736	"9"	3190.644353889	3188.456794339	1.5	0.1
0.01	1	0.484971656000198	1	108	NA	208.027839533	0	0.38	2.37	1	201.669177894	202.15414955	"9"	3190.644353889	3188.456794339	1.5	0.1
0.01	1	0.518767918999856	1	108	NA	208.027839533	0	0.38	2.37	1	202.386929263	202.905697182	"9"	3190.644353889	3188.456794339	1.5	0.1
0.01	1	0.35998784100002	1	108	NA	208.027839533	0	0.38	2.37	1	203.138210931	203.498198772	"9"	3190.644353889	3188.456794339	1.5	0.1
0.01	1	0.240117496000039	1	108	NA	208.027839533	0	0.38	2.37	1	203.722520058	203.962637554	"9"	3190.644353889	3188.456794339	1.5	0.1
0.01	1	0.355040546000055	1	108	NA	208.027839533	0	0.38	2.37	1	204.190021241	204.545061787	"9"	3190.644353889	3188.456794339	1.5	0.1
0.01	1	0.395693617000234	1	108	NA	208.027839533	0	0.38	2.37	1	204.774255331	205.169948948	"9"	3190.644353889	3188.456794339	1.5	0.1
0.01	1	0.320979270999942	1	108	NA	208.027839533	0	0.38	2.37	1	205.408783506	205.729762777	"9"	3190.644353889	3188.456794339	1.5	0.1
0.01	1	0.322684280999965	1	108	NA	208.027839533	0	0.38	2.37	1	205.959693533	206.282377814	"9"	3190.644353889	3188.456794339	1.5	0.1
0.01	1	0.49945393400003	1	108	NA	208.027839533	0	0.38	2.37	1	206.510615773	207.010069707	"9"	3190.644353889	3188.456794339	1.5	0.1
0.01	1	0.781066199999714	2	108	NA	208.027839533	0	0.38	2.37	1	207.245205265	208.026271465	"9"	3190.644353889	3188.456794339	1.5	0.1
0.01	1	0.973938157999783	1	18	216.77929505	NA	1	0	2.37	1	210.083213193	211.057151351	"10"	3190.644353889	3188.456794339	1.5	0.1
0.01	1	0.203807654000229	1	18	216.77929505	NA	1	0	2.37	1	211.285416211	211.489223865	"10"	3190.644353889	3188.456794339	1.5	0.1
0.01	1	0.258706264000011	1	18	216.77929505	NA	1	0	2.37	1	211.719270593	211.977976857	"10"	3190.644353889	3188.456794339	1.5	0.1
0.01	1	0.560086469999987	1	18	216.77929505	NA	1	0	2.37	1	212.203430147	212.763516617	"10"	3190.644353889	3188.456794339	1.5	0.1
0.01	1	0.0533365199999025	1	18	216.77929505	NA	1	0	2.37	1	212.988129234	213.041465754	"10"	3190.644353889	3188.456794339	1.5	0.1
0.01	1	0.122189546999834	1	18	216.77929505	NA	1	0	2.37	1	213.271934672	213.394124219	"10"	3190.644353889	3188.456794339	1.5	0.1
0.01	1	0.131837852999979	1	18	216.77929505	NA	1	0	2.37	1	213.62251328	213.754351133	"10"	3190.644353889	3188.456794339	1.5	0.1
0.01	1	0.0203997230000823	1	18	216.77929505	NA	1	0	2.37	1	213.98998803	214.010387753	"10"	3190.644353889	3188.456794339	1.5	0.1
0.01	1	0.00237613399986003	1	18	216.77929505	NA	1	0	2.37	1	214.240224005	214.242600139	"10"	3190.644353889	3188.456794339	1.5	0.1
0.01	1	0.159626077000212	1	18	216.77929505	NA	1	0	2.37	1	214.473997696	214.633623773	"10"	3190.644353889	3188.456794339	1.5	0.1
0.01	1	0.00294223700029761	1	18	216.77929505	NA	1	0	2.37	1	214.87491526	214.877857497	"10"	3190.644353889	3188.456794339	1.5	0.1
0.01	1	0.0127364190002481	1	18	216.77929505	NA	1	0	2.37	1	215.108350262	215.121086681	"10"	3190.644353889	3188.456794339	1.5	0.1
0.01	1	0.00256020799997714	1	18	216.77929505	NA	1	0	2.37	1	215.358796879	215.361357087	"10"	3190.644353889	3188.456794339	1.5	0.1
0.01	1	0.00210744499963766	1	18	216.77929505	NA	1	0	2.37	1	215.592635369	215.594742814	"10"	3190.644353889	3188.456794339	1.5	0.1
0.01	1	0.00218511100001706	1	18	216.77929505	NA	1	0	2.37	1	215.826277223	215.828462334	"10"	3190.644353889	3188.456794339	1.5	0.1
0.01	1	0.00206796500015116	1	18	216.77929505	NA	1	0	2.37	1	216.0600096	216.062077565	"10"	3190.644353889	3188.456794339	1.5	0.1
0.01	1	0.00210941399973308	1	18	216.77929505	NA	1	0	2.37	1	216.293734097	216.295843511	"10"	3190.644353889	3188.456794339	1.5	0.1
0.01	1	0.1385880429998	1	18	216.77929505	NA	1	0	2.37	1	216.527471234	216.666059277	"10"	3190.644353889	3188.456794339	1.5	0.1
0.01	1	0.00293239000029644	1	2	219.183460321	NA	1	0	2.37	1	218.831340985	218.834273375	"11"	3190.644353889	3188.456794339	1.5	0.1
0.01	1	0.00937902499981647	1	2	219.183460321	NA	1	0	2.37	1	219.065006527	219.074385552	"11"	3190.644353889	3188.456794339	1.5	0.1
0.01	1	0.0462818650003101	1	107	NA	222.786844477	0	0.05	2.42	1	221.218627718	221.264909583	"12"	3190.644353889	3188.456794339	1.5	0.1
0.01	1	0.155744788999982	1	107	NA	222.786844477	0	0.05	2.42	1	221.502440027	221.658184816	"12"	3190.644353889	3188.456794339	1.5	0.1
0.01	1	0.0601498149999316	1	107	NA	222.786844477	0	0.05	2.42	1	221.886440453	221.946590268	"12"	3190.644353889	3188.456794339	1.5	0.1
0.01	1	0.016116362000048	1	107	NA	222.786844477	0	0.05	2.42	1	222.170174748	222.18629111	"12"	3190.644353889	3188.456794339	1.5	0.1
0.01	1	0.00223262200006502	1	107	NA	222.786844477	0	0.05	2.42	1	222.420684205	222.422916827	"12"	3190.644353889	3188.456794339	1.5	0.1
0.01	1	0.13098396300029	2	107	NA	222.786844477	0	0.05	2.42	1	222.654350809	222.785334772	"12"	3190.644353889	3188.456794339	1.5	0.1
0.01	1	0.00222175199996855	1	119	NA	227.599674285	0	0.11	2.53	1	224.824669199	224.826890951	"13"	3190.644353889	3188.456794339	1.5	0.1
0.01	1	0.00207320700019409	1	119	NA	227.599674285	0	0.11	2.53	1	225.058460843	225.06053405	"13"	3190.644353889	3188.456794339	1.5	0.1
0.01	1	0.00245438199999626	1	119	NA	227.599674285	0	0.11	2.53	1	225.292102288	225.29455667	"13"	3190.644353889	3188.456794339	1.5	0.1
0.01	1	0.0690208840001105	1	119	NA	227.599674285	0	0.11	2.53	1	225.525864804	225.594885688	"13"	3190.644353889	3188.456794339	1.5	0.1
0.01	1	0.00208994200011148	1	119	NA	227.599674285	0	0.11	2.53	1	225.826344057	225.828433999	"13"	3190.644353889	3188.456794339	1.5	0.1
0.01	1	0.00329662600006486	1	119	NA	227.599674285	0	0.11	2.53	1	226.060128199	226.063424825	"13"	3190.644353889	3188.456794339	1.5	0.1
0.01	1	0.0020755119999194	1	119	NA	227.599674285	0	0.11	2.53	1	226.293823507	226.295899019	"13"	3190.644353889	3188.456794339	1.5	0.1
0.01	1	0.0658713080001689	1	119	NA	227.599674285	0	0.11	2.53	1	226.527658052	226.59352936	"13"	3190.644353889	3188.456794339	1.5	0.1
0.01	1	0.00238632900027369	1	119	NA	227.599674285	0	0.11	2.53	1	226.82802031	226.830406639	"13"	3190.644353889	3188.456794339	1.5	0.1
0.01	1	0.00206354800002373	1	119	NA	227.599674285	0	0.11	2.53	1	227.061932144	227.063995692	"13"	3190.644353889	3188.456794339	1.5	0.1
0.01	1	0.0671239240000432	1	119	NA	227.599674285	0	0.11	2.53	1	227.295511912	227.362635836	"13"	3190.644353889	3188.456794339	1.5	0.1
0.01	1	0.00217630800034385	2	119	NA	227.599674285	0	0.11	2.53	1	227.596015502	227.59819181	"13"	3190.644353889	3188.456794339	1.5	0.1
0.01	1	0.00219479599991246	1	71	NA	235.283048403	0	0.14	2.67	1	229.64956578	229.651760576	"14"	3190.644353889	3188.456794339	1.5	0.1
0.01	1	0.0702647160001106	1	71	NA	235.283048403	0	0.14	2.67	1	229.883151313	229.953416029	"14"	3190.644353889	3188.456794339	1.5	0.1
0.01	1	0.226403097000002	1	71	NA	235.283048403	0	0.14	2.67	1	230.183794999	230.410198096	"14"	3190.644353889	3188.456794339	1.5	0.1
0.01	1	0.13435547600011	1	71	NA	235.283048403	0	0.14	2.67	1	230.634449143	230.768804619	"14"	3190.644353889	3188.456794339	1.5	0.1
0.01	1	0.017134528999577	1	71	NA	235.283048403	0	0.14	2.67	1	231.001722365	231.018856894	"14"	3190.644353889	3188.456794339	1.5	0.1
0.01	1	0.118112008000026	1	71	NA	235.283048403	0	0.14	2.67	1	231.252140893	231.370252901	"14"	3190.644353889	3188.456794339	1.5	0.1
0.01	1	0.0789110600003369	1	71	NA	235.283048403	0	0.14	2.67	1	231.60289506	231.68180612	"14"	3190.644353889	3188.456794339	1.5	0.1
0.01	1	0.0024884170002224	1	71	NA	235.283048403	0	0.14	2.67	1	231.920050553	231.92253897	"14"	3190.644353889	3188.456794339	1.5	0.1
0.01	1	0.103925160000017	1	71	NA	235.283048403	0	0.14	2.67	1	232.153657543	232.257582703	"14"	3190.644353889	3188.456794339	1.5	0.1
0.01	1	0.138793707000332	1	71	NA	235.283048403	0	0.14	2.67	1	232.487585129	232.626378836	"14"	3190.644353889	3188.456794339	1.5	0.1
0.01	1	0.195539335999911	1	71	NA	235.283048403	0	0.14	2.67	1	232.854966754	233.05050609	"14"	3190.644353889	3188.456794339	1.5	0.1
0.01	1	0.280571706000046	1	71	NA	235.283048403	0	0.14	2.67	1	233.28886245	233.569434156	"14"	3190.644353889	3188.456794339	1.5	0.1
0.01	1	0.300532304000171	1	71	NA	235.283048403	0	0.14	2.67	1	233.806449466	234.10698177	"14"	3190.644353889	3188.456794339	1.5	0.1
0.01	1	0.269659366000269	1	71	NA	235.283048403	0	0.14	2.67	1	234.340728793	234.610388159	"14"	3190.644353889	3188.456794339	1.5	0.1
0.01	1	0.439855568999974	2	71	NA	235.283048403	0	0.14	2.67	1	234.841621903	235.281477472	"14"	3190.644353889	3188.456794339	1.5	0.1
0.01	1	0.416435696000008	1	32	NA	253.274593693	0	0.27	2.94	1	237.329021917	237.745457613	"15"	3190.644353889	3188.456794339	1.5	0.1
0.01	1	0.702823068000271	1	32	NA	253.274593693	0	0.27	2.94	1	237.980145653	238.682968721	"15"	3190.644353889	3188.456794339	1.5	0.1
0.01	1	0.135567309999715	1	32	NA	253.274593693	0	0.27	2.94	1	238.915177667	239.050744977	"15"	3190.644353889	3188.456794339	1.5	0.1
0.01	1	0.352179871999851	1	32	NA	253.274593693	0	0.27	2.94	1	239.282411213	239.634591085	"15"	3190.644353889	3188.456794339	1.5	0.1
0.01	1	0.398693575999914	1	32	NA	253.274593693	0	0.27	2.94	1	239.866598141	240.265291717	"15"	3190.644353889	3188.456794339	1.5	0.1
0.01	1	0.605923480000001	1	32	NA	253.274593693	0	0.27	2.94	1	240.501081693	241.107005173	"15"	3190.644353889	3188.456794339	1.5	0.1
0.01	1	0.452156817999821	1	32	NA	253.274593693	0	0.27	2.94	1	241.335774103	241.787930921	"15"	3190.644353889	3188.456794339	1.5	0.1
0.01	1	0.445103611999912	1	32	NA	253.274593693	0	0.27	2.94	1	242.020384464	242.465488076	"15"	3190.644353889	3188.456794339	1.5	0.1
0.01	1	0.435212623000098	1	32	NA	253.274593693	0	0.27	2.94	1	242.688058099	243.123270722	"15"	3190.644353889	3188.456794339	1.5	0.1
0.01	1	0.31870735099983	1	32	NA	253.274593693	0	0.27	2.94	1	243.355856952	243.674564303	"15"	3190.644353889	3188.456794339	1.5	0.1
0.01	1	0.30209207200005	1	32	NA	253.274593693	0	0.27	2.94	1	243.906798227	244.208890299	"15"	3190.644353889	3188.456794339	1.5	0.1
0.01	1	0.250012808000065	1	32	NA	253.274593693	0	0.27	2.94	1	244.441050595	244.691063403	"15"	3190.644353889	3188.456794339	1.5	0.1
0.01	1	0.24420869100004	1	32	NA	253.274593693	0	0.27	2.94	1	244.925097659	245.16930635	"15"	3190.644353889	3188.456794339	1.5	0.1
0.01	1	0.37827428799983	1	32	NA	253.274593693	0	0.27	2.94	1	245.39265106	245.770925348	"15"	3190.644353889	3188.456794339	1.5	0.1
0.01	1	0.256614924000132	1	32	NA	253.274593693	0	0.27	2.94	1	245.993679835	246.250294759	"15"	3190.644353889	3188.456794339	1.5	0.1
0.01	1	0.243684170000051	1	32	NA	253.274593693	0	0.27	2.94	1	246.47773067	246.72141484	"15"	3190.644353889	3188.456794339	1.5	0.1
0.01	1	0.201477872999931	1	32	NA	253.274593693	0	0.27	2.94	1	246.945332664	247.146810537	"15"	3190.644353889	3188.456794339	1.5	0.1
0.01	1	0.279152601000078	1	32	NA	253.274593693	0	0.27	2.94	1	247.379325469	247.65847807	"15"	3190.644353889	3188.456794339	1.5	0.1
0.01	1	0.169557453999914	1	32	NA	253.274593693	0	0.27	2.94	1	247.896906291	248.066463745	"15"	3190.644353889	3188.456794339	1.5	0.1
0.01	1	0.256180360000144	1	32	NA	253.274593693	0	0.27	2.94	1	248.297548433	248.553728793	"15"	3190.644353889	3188.456794339	1.5	0.1
0.01	1	0.317213409000033	1	32	NA	253.274593693	0	0.27	2.94	1	248.781747475	249.098960884	"15"	3190.644353889	3188.456794339	1.5	0.1
0.01	1	0.286850972999673	1	32	NA	253.274593693	0	0.27	2.94	1	249.332589249	249.619440222	"15"	3190.644353889	3188.456794339	1.5	0.1
0.01	1	0.248058921999927	1	32	NA	253.274593693	0	0.27	2.94	1	249.850281161	250.098340083	"15"	3190.644353889	3188.456794339	1.5	0.1
0.01	1	0.259386979999817	1	32	NA	253.274593693	0	0.27	2.94	1	250.334281068	250.593668048	"15"	3190.644353889	3188.456794339	1.5	0.1
0.01	1	0.263996466000208	1	32	NA	253.274593693	0	0.27	2.94	1	250.818420353	251.082416819	"15"	3190.644353889	3188.456794339	1.5	0.1
0.01	1	0.274473673000102	1	32	NA	253.274593693	0	0.27	2.94	1	251.319270004	251.593743677	"15"	3190.644353889	3188.456794339	1.5	0.1
0.01	1	0.270450551000067	1	32	NA	253.274593693	0	0.27	2.94	1	251.820111732	252.090562283	"15"	3190.644353889	3188.456794339	1.5	0.1
0.01	1	0.952054870000211	2	32	NA	253.274593693	0	0.27	2.94	1	252.320964015	253.273018885	"15"	3190.644353889	3188.456794339	1.5	0.1
0.01	1	0.308124232999944	1	7	257.314060814	NA	1	0	2.94	1	255.325982257	255.63410649	"16"	3190.644353889	3188.456794339	1.5	0.1
0.01	1	0.126330848999714	1	7	257.314060814	NA	1	0	2.94	1	255.86042051	255.986751359	"16"	3190.644353889	3188.456794339	1.5	0.1
0.01	1	0.00679005400024835	1	7	257.314060814	NA	1	0	2.94	1	256.227487406	256.23427746	"16"	3190.644353889	3188.456794339	1.5	0.1
0.01	1	0.0357179910001832	1	7	257.314060814	NA	1	0	2.94	1	256.461259588	256.496977579	"16"	3190.644353889	3188.456794339	1.5	0.1
0.01	1	0.0021040090000497	1	7	257.314060814	NA	1	0	2.94	1	256.72842364	256.730527649	"16"	3190.644353889	3188.456794339	1.5	0.1
0.01	1	0.00226901999985785	1	7	257.314060814	NA	1	0	2.94	1	256.96218438	256.9644534	"16"	3190.644353889	3188.456794339	1.5	0.1
0.01	1	0.00220305299990287	1	7	257.314060814	NA	1	0	2.94	1	257.19576401	257.197967063	"16"	3190.644353889	3188.456794339	1.5	0.1
0.01	1	0.187480824999966	1	49	NA	260.554762713	0	0.04	2.98	1	259.349406019	259.536886844	"17"	3190.644353889	3188.456794339	1.5	0.1
0.01	1	0.0581230679999862	1	49	NA	260.554762713	0	0.04	2.98	1	259.766932623	259.825055691	"17"	3190.644353889	3188.456794339	1.5	0.1
0.01	1	0.00210650600001827	1	49	NA	260.554762713	0	0.04	2.98	1	260.050519621	260.052626127	"17"	3190.644353889	3188.456794339	1.5	0.1
0.01	1	0.00207913900021595	1	49	NA	260.554762713	0	0.04	2.98	1	260.284293661	260.2863728	"17"	3190.644353889	3188.456794339	1.5	0.1
0.01	1	0.0351356159999341	2	49	NA	260.554762713	0	0.04	2.98	1	260.518052244	260.55318786	"17"	3190.644353889	3188.456794339	1.5	0.1
0.01	1	0.573386160000155	1	17	NA	265.496743266	0	0.07	3.05	1	262.588246074	263.161632234	"18"	3190.644353889	3188.456794339	1.5	0.1
0.01	1	0.283694931999889	1	17	NA	265.496743266	0	0.07	3.05	1	263.389608561	263.673303493	"18"	3190.644353889	3188.456794339	1.5	0.1
0.01	1	0.11915978900015	1	17	NA	265.496743266	0	0.07	3.05	1	263.907128387	264.026288176	"18"	3190.644353889	3188.456794339	1.5	0.1
0.01	1	0.0491463859998476	1	17	NA	265.496743266	0	0.07	3.05	1	264.25768572	264.306832106	"18"	3190.644353889	3188.456794339	1.5	0.1
0.01	1	0.203846075000001	1	17	NA	265.496743266	0	0.07	3.05	1	264.541509418	264.745355493	"18"	3190.644353889	3188.456794339	1.5	0.1
0.01	1	0.0498086170000533	1	17	NA	265.496743266	0	0.07	3.05	1	264.97559178	265.025400397	"18"	3190.644353889	3188.456794339	1.5	0.1
0.01	1	0.0022518709997712	1	17	NA	265.496743266	0	0.07	3.05	1	265.259399633	265.261651504	"18"	3190.644353889	3188.456794339	1.5	0.1
0.01	1	0.00203076900015731	2	17	NA	265.496743266	0	0.07	3.05	1	265.493032984	265.495063753	"18"	3190.644353889	3188.456794339	1.5	0.1
0.01	1	1.07993964100024	1	20	290.269641799	NA	1	0	3.05	1	267.529862679	268.60980232	"19"	3190.644353889	3188.456794339	1.5	0.1
0.01	1	0.409276937999948	1	20	290.269641799	NA	1	0	3.05	1	268.848819705	269.258096643	"19"	3190.644353889	3188.456794339	1.5	0.1
0.01	1	0.430487599999651	1	20	290.269641799	NA	1	0	3.05	1	269.48313197	269.91361957	"19"	3190.644353889	3188.456794339	1.5	0.1
0.01	1	0.307601364999755	1	20	290.269641799	NA	1	0	3.05	1	270.15103382	270.458635185	"19"	3190.644353889	3188.456794339	1.5	0.1
0.01	1	0.691780325999844	1	20	290.269641799	NA	1	0	3.05	1	270.685162271	271.376942597	"19"	3190.644353889	3188.456794339	1.5	0.1
0.01	1	1.18388886599996	1	20	290.269641799	NA	1	0	3.05	1	271.6033303	272.787219166	"19"	3190.644353889	3188.456794339	1.5	0.1
0.01	1	0.652418954000041	1	20	290.269641799	NA	1	0	3.05	1	273.022466741	273.674885695	"19"	3190.644353889	3188.456794339	1.5	0.1
0.01	1	0.862554803000421	1	20	290.269641799	NA	1	0	3.05	1	273.907289428	274.769844231	"19"	3190.644353889	3188.456794339	1.5	0.1
0.01	1	0.633537641000203	1	20	290.269641799	NA	1	0	3.05	1	274.992441332	275.625978973	"19"	3190.644353889	3188.456794339	1.5	0.1
0.01	1	0.477413743999932	1	20	290.269641799	NA	1	0	3.05	1	275.860688705	276.338102449	"19"	3190.644353889	3188.456794339	1.5	0.1
0.01	1	0.54396724299977	1	20	290.269641799	NA	1	0	3.05	1	276.561747015	277.105714258	"19"	3190.644353889	3188.456794339	1.5	0.1
0.01	1	0.465729261999968	1	20	290.269641799	NA	1	0	3.05	1	277.329691627	277.795420889	"19"	3190.644353889	3188.456794339	1.5	0.1
0.01	1	0.738798846000009	1	20	290.269641799	NA	1	0	3.05	1	278.030798547	278.769597393	"19"	3190.644353889	3188.456794339	1.5	0.1
0.01	1	0.674324703999901	1	20	290.269641799	NA	1	0	3.05	1	278.999099733	279.673424437	"19"	3190.644353889	3188.456794339	1.5	0.1
0.01	1	1.63006572199993	1	20	290.269641799	NA	1	0	3.05	1	279.900703669	281.530769391	"19"	3190.644353889	3188.456794339	1.5	0.1
0.01	1	1.06481076399996	1	20	290.269641799	NA	1	0	3.05	1	281.77046684	282.835277604	"19"	3190.644353889	3188.456794339	1.5	0.1
0.01	1	4.94582283299997	1	20	290.269641799	NA	1	0	3.05	1	283.072605384	288.018428217	"19"	3190.644353889	3188.456794339	1.5	0.1
0.01	1	0.650318062999759	1	20	290.269641799	NA	1	0	3.05	1	288.248144185	288.898462248	"19"	3190.644353889	3188.456794339	1.5	0.1
0.01	1	0.381838979999884	1	20	290.269641799	NA	1	0	3.05	1	289.132819628	289.514658608	"19"	3190.644353889	3188.456794339	1.5	0.1
0.01	1	0.412984688000051	1	20	290.269641799	NA	1	0	3.05	1	289.750546492	290.16353118	"19"	3190.644353889	3188.456794339	1.5	0.1
0.01	1	0.0021645830001944	1	21	NA	312.87590882	0	0.1	3.15	1	292.304777679	292.306942262	"20"	3190.644353889	3188.456794339	1.5	0.1
0.01	1	0.15298546799977	1	21	NA	312.87590882	0	0.1	3.15	1	292.538519443	292.691504911	"20"	3190.644353889	3188.456794339	1.5	0.1
0.01	1	0.352936972999942	1	21	NA	312.87590882	0	0.1	3.15	1	292.922474685	293.275411658	"20"	3190.644353889	3188.456794339	1.5	0.1
0.01	1	13.5840107139998	1	21	NA	312.87590882	0	0.1	3.15	1	293.506843213	307.090853927	"20"	3190.644353889	3188.456794339	1.5	0.1
0.01	1	0.016500559999713	1	21	NA	312.87590882	0	0.1	3.15	1	307.330094627	307.346595187	"20"	3190.644353889	3188.456794339	1.5	0.1
0.01	1	0.189854979999836	1	21	NA	312.87590882	0	0.1	3.15	1	307.580468431	307.770323411	"20"	3190.644353889	3188.456794339	1.5	0.1
0.01	1	0.308515687999716	1	21	NA	312.87590882	0	0.1	3.15	1	307.997915716	308.306431404	"20"	3190.644353889	3188.456794339	1.5	0.1
0.01	1	1.63775995100013	1	21	NA	312.87590882	0	0.1	3.15	1	308.532122459	310.16988241	"20"	3190.644353889	3188.456794339	1.5	0.1
0.01	1	1.04867792699997	1	21	NA	312.87590882	0	0.1	3.15	1	310.401984239	311.450662166	"20"	3190.644353889	3188.456794339	1.5	0.1
0.01	1	0.331755513000189	1	21	NA	312.87590882	0	0.1	3.15	1	311.687527111	312.019282624	"20"	3190.644353889	3188.456794339	1.5	0.1
0.01	1	0.619282668000324	2	21	NA	312.87590882	0	0.1	3.15	1	312.255020019	312.874302687	"20"	3190.644353889	3188.456794339	1.5	0.1
0.01	1	0.675774984000327	1	26	NA	327.499520162	0	0.25	3.4	1	314.926264723	315.602039707	"21"	3190.644353889	3188.456794339	1.5	0.1
0.01	1	0.00207599600025787	1	26	NA	327.499520162	0	0.25	3.4	1	315.827685334	315.82976133	"21"	3190.644353889	3188.456794339	1.5	0.1
0.01	1	0.0601794249996601	1	26	NA	327.499520162	0	0.25	3.4	1	316.061498291	316.121677716	"21"	3190.644353889	3188.456794339	1.5	0.1
0.01	1	0.176405910000085	1	26	NA	327.499520162	0	0.25	3.4	1	316.345230972	316.521636882	"21"	3190.644353889	3188.456794339	1.5	0.1
0.01	1	0.217177956000342	1	26	NA	327.499520162	0	0.25	3.4	1	316.74597079	316.963148746	"21"	3190.644353889	3188.456794339	1.5	0.1
0.01	1	0.125094546000128	1	26	NA	327.499520162	0	0.25	3.4	1	317.196726803	317.321821349	"21"	3190.644353889	3188.456794339	1.5	0.1
0.01	1	0.263052682999842	1	26	NA	327.499520162	0	0.25	3.4	1	317.547319653	317.810372336	"21"	3190.644353889	3188.456794339	1.5	0.1
0.01	1	0.458469702999992	1	26	NA	327.499520162	0	0.25	3.4	1	318.048150434	318.506620137	"21"	3190.644353889	3188.456794339	1.5	0.1
0.01	1	0.133626699999695	1	26	NA	327.499520162	0	0.25	3.4	1	318.732707036	318.866333736	"21"	3190.644353889	3188.456794339	1.5	0.1
0.01	1	0.238935619999666	1	26	NA	327.499520162	0	0.25	3.4	1	319.099836962	319.338772582	"21"	3190.644353889	3188.456794339	1.5	0.1
0.01	1	0.314255176999723	1	26	NA	327.499520162	0	0.25	3.4	1	319.567313203	319.88156838	"21"	3190.644353889	3188.456794339	1.5	0.1
0.01	1	0.468547752000177	1	26	NA	327.499520162	0	0.25	3.4	1	320.118378116	320.586925868	"21"	3190.644353889	3188.456794339	1.5	0.1
0.01	1	0.230422925000312	1	26	NA	327.499520162	0	0.25	3.4	1	320.8194544	321.049877325	"21"	3190.644353889	3188.456794339	1.5	0.1
0.01	1	0.187064333000308	1	26	NA	327.499520162	0	0.25	3.4	1	321.286912578	321.473976911	"21"	3190.644353889	3188.456794339	1.5	0.1
0.01	1	0.274091271000088	1	26	NA	327.499520162	0	0.25	3.4	1	321.704277595	321.978368866	"21"	3190.644353889	3188.456794339	1.5	0.1
0.01	1	0.247082872999727	1	26	NA	327.499520162	0	0.25	3.4	1	322.205151137	322.45223401	"21"	3190.644353889	3188.456794339	1.5	0.1
0.01	1	0.225944704000085	1	26	NA	327.499520162	0	0.25	3.4	1	322.689227561	322.915172265	"21"	3190.644353889	3188.456794339	1.5	0.1
0.01	1	0.573327099999915	1	26	NA	327.499520162	0	0.25	3.4	1	323.139988279	323.713315379	"21"	3190.644353889	3188.456794339	1.5	0.1
0.01	1	0.38220791699996	1	26	NA	327.499520162	0	0.25	3.4	1	323.941424213	324.32363213	"21"	3190.644353889	3188.456794339	1.5	0.1
0.01	1	0.241993921999892	1	26	NA	327.499520162	0	0.25	3.4	1	324.559120769	324.801114691	"21"	3190.644353889	3188.456794339	1.5	0.1
0.01	1	0.184251030999803	1	26	NA	327.499520162	0	0.25	3.4	1	325.026490445	325.210741476	"21"	3190.644353889	3188.456794339	1.5	0.1
0.01	1	0.48652081299997	1	26	NA	327.499520162	0	0.25	3.4	1	325.44390389	325.930424703	"21"	3190.644353889	3188.456794339	1.5	0.1
0.01	1	0.111998502000006	1	26	NA	327.499520162	0	0.25	3.4	1	326.161743552	326.273742054	"21"	3190.644353889	3188.456794339	1.5	0.1
0.01	1	0.0910222140000769	1	26	NA	327.499520162	0	0.25	3.4	1	326.495668389	326.586690603	"21"	3190.644353889	3188.456794339	1.5	0.1
0.01	1	0.0612211299999217	1	26	NA	327.499520162	0	0.25	3.4	1	326.812842844	326.874063974	"21"	3190.644353889	3188.456794339	1.5	0.1
0.01	1	0.401212362000024	2	26	NA	327.499520162	0	0.25	3.4	1	327.096706725	327.497919087	"21"	3190.644353889	3188.456794339	1.5	0.1
0.01	1	0.610861977999775	1	97	NA	344.026771733	0	0.35	3.75	1	329.550804159	330.161666137	"22"	3190.644353889	3188.456794339	1.5	0.1
0.01	1	0.175055111999882	1	97	NA	344.026771733	0	0.35	3.75	1	330.40220757	330.577262682	"22"	3190.644353889	3188.456794339	1.5	0.1
0.01	1	0.071812411999872	1	97	NA	344.026771733	0	0.35	3.75	1	330.802896347	330.874708759	"22"	3190.644353889	3188.456794339	1.5	0.1
0.01	1	0.0352201380001134	1	97	NA	344.026771733	0	0.35	3.75	1	331.103373698	331.138593836	"22"	3190.644353889	3188.456794339	1.5	0.1
0.01	1	0.0476526140000715	1	97	NA	344.026771733	0	0.35	3.75	1	331.370602963	331.418255577	"22"	3190.644353889	3188.456794339	1.5	0.1
0.01	1	0.00222394100001111	1	97	NA	344.026771733	0	0.35	3.75	1	331.654426272	331.656650213	"22"	3190.644353889	3188.456794339	1.5	0.1
0.01	1	0.00217998699963573	1	97	NA	344.026771733	0	0.35	3.75	1	331.888052136	331.890232123	"22"	3190.644353889	3188.456794339	1.5	0.1
0.01	1	0.112704486999974	1	97	NA	344.026771733	0	0.35	3.75	1	332.121940304	332.234644791	"22"	3190.644353889	3188.456794339	1.5	0.1
0.01	1	0.00234402999967642	1	97	NA	344.026771733	0	0.35	3.75	1	332.472381983	332.474726013	"22"	3190.644353889	3188.456794339	1.5	0.1
0.01	1	0.215777720999995	1	97	NA	344.026771733	0	0.35	3.75	1	332.706065129	332.92184285	"22"	3190.644353889	3188.456794339	1.5	0.1
0.01	1	0.66819452100026	1	97	NA	344.026771733	0	0.35	3.75	1	333.156982913	333.825177434	"22"	3190.644353889	3188.456794339	1.5	0.1
0.01	1	0.846804772999803	1	97	NA	344.026771733	0	0.35	3.75	1	334.058331823	334.905136596	"22"	3190.644353889	3188.456794339	1.5	0.1
0.01	1	0.245544537000114	1	97	NA	344.026771733	0	0.35	3.75	1	335.126868588	335.372413125	"22"	3190.644353889	3188.456794339	1.5	0.1
0.01	1	0.151304275000257	1	97	NA	344.026771733	0	0.35	3.75	1	335.594316293	335.745620568	"22"	3190.644353889	3188.456794339	1.5	0.1
0.01	1	0.287998621000042	1	97	NA	344.026771733	0	0.35	3.75	1	335.978292235	336.266290856	"22"	3190.644353889	3188.456794339	1.5	0.1
0.01	1	0.298357516000124	1	97	NA	344.026771733	0	0.35	3.75	1	336.495820533	336.794178049	"22"	3190.644353889	3188.456794339	1.5	0.1
0.01	1	0.220454858000267	1	97	NA	344.026771733	0	0.35	3.75	1	337.030139015	337.250593873	"22"	3190.644353889	3188.456794339	1.5	0.1
0.01	1	0.144804946000022	1	97	NA	344.026771733	0	0.35	3.75	1	337.480757104	337.62556205	"22"	3190.644353889	3188.456794339	1.5	0.1
0.01	1	0.281351660999917	1	97	NA	344.026771733	0	0.35	3.75	1	337.848149927	338.129501588	"22"	3190.644353889	3188.456794339	1.5	0.1
0.01	1	0.196750892999717	1	97	NA	344.026771733	0	0.35	3.75	1	338.36560687	338.562357763	"22"	3190.644353889	3188.456794339	1.5	0.1
0.01	1	0.153802847999941	1	97	NA	344.026771733	0	0.35	3.75	1	338.799682517	338.953485365	"22"	3190.644353889	3188.456794339	1.5	0.1
0.01	1	0.362218911000127	1	97	NA	344.026771733	0	0.35	3.75	1	339.183711134	339.545930045	"22"	3190.644353889	3188.456794339	1.5	0.1
0.01	1	0.170740251000097	1	97	NA	344.026771733	0	0.35	3.75	1	339.768033632	339.938773883	"22"	3190.644353889	3188.456794339	1.5	0.1
0.01	1	0.0817962969999826	1	97	NA	344.026771733	0	0.35	3.75	1	340.16866669	340.250462987	"22"	3190.644353889	3188.456794339	1.5	0.1
0.01	1	0.18128239500038	1	97	NA	344.026771733	0	0.35	3.75	1	340.485908201	340.667190596	"22"	3190.644353889	3188.456794339	1.5	0.1
0.01	1	0.137937893000071	1	97	NA	344.026771733	0	0.35	3.75	1	340.903164263	341.041102156	"22"	3190.644353889	3188.456794339	1.5	0.1
0.01	1	0.140091292999841	1	97	NA	344.026771733	0	0.35	3.75	1	341.270542715	341.410634008	"22"	3190.644353889	3188.456794339	1.5	0.1
0.01	1	0.0915556229997492	1	97	NA	344.026771733	0	0.35	3.75	1	341.637772074	341.729327697	"22"	3190.644353889	3188.456794339	1.5	0.1
0.01	1	0.0141275320002023	1	97	NA	344.026771733	0	0.35	3.75	1	341.95503699	341.969164522	"22"	3190.644353889	3188.456794339	1.5	0.1
0.01	1	0.0121714940000857	1	97	NA	344.026771733	0	0.35	3.75	1	342.205407073	342.217578567	"22"	3190.644353889	3188.456794339	1.5	0.1
0.01	1	0.0275732699997207	1	97	NA	344.026771733	0	0.35	3.75	1	342.439150044	342.466723314	"22"	3190.644353889	3188.456794339	1.5	0.1
0.01	1	0.00779329500028325	1	97	NA	344.026771733	0	0.35	3.75	1	342.689690119	342.697483414	"22"	3190.644353889	3188.456794339	1.5	0.1
0.01	1	0.00715252000009059	1	97	NA	344.026771733	0	0.35	3.75	1	342.923368195	342.930520715	"22"	3190.644353889	3188.456794339	1.5	0.1
0.01	1	0.0021801489997415	1	97	NA	344.026771733	0	0.35	3.75	1	343.157089411	343.15926956	"22"	3190.644353889	3188.456794339	1.5	0.1
0.01	1	0.00209450300008029	1	97	NA	344.026771733	0	0.35	3.75	1	343.390688128	343.392782631	"22"	3190.644353889	3188.456794339	1.5	0.1
0.01	1	0.400570344000243	2	97	NA	344.026771733	0	0.35	3.75	1	343.624627541	344.025197885	"22"	3190.644353889	3188.456794339	1.5	0.1
0.01	1	1.28405641100017	1	118	NA	365.700533615	0	0.45	4.2	1	346.061851051	347.345907462	"23"	3190.644353889	3188.456794339	1.5	0.1
0.01	1	0.461039230000097	1	118	NA	365.700533615	0	0.45	4.2	1	347.581138353	348.042177583	"23"	3190.644353889	3188.456794339	1.5	0.1
0.01	1	0.320005476999995	1	118	NA	365.700533615	0	0.45	4.2	1	348.26568957	348.585695047	"23"	3190.644353889	3188.456794339	1.5	0.1
0.01	1	0.33075832600025	1	118	NA	365.700533615	0	0.45	4.2	1	348.816453642	349.147211968	"23"	3190.644353889	3188.456794339	1.5	0.1
0.01	1	0.330165214999852	1	118	NA	365.700533615	0	0.45	4.2	1	349.384237285	349.7144025	"23"	3190.644353889	3188.456794339	1.5	0.1
0.01	1	0.29890905100001	1	118	NA	365.700533615	0	0.45	4.2	1	349.951858674	350.250767725	"23"	3190.644353889	3188.456794339	1.5	0.1
0.01	1	0.347746601999916	1	118	NA	365.700533615	0	0.45	4.2	1	350.4860399	350.833786502	"23"	3190.644353889	3188.456794339	1.5	0.1
0.01	1	0.307593246000124	1	118	NA	365.700533615	0	0.45	4.2	1	351.070294484	351.37788773	"23"	3190.644353889	3188.456794339	1.5	0.1
0.01	1	0.270235493999735	1	118	NA	365.700533615	0	0.45	4.2	1	351.604594325	351.874829819	"23"	3190.644353889	3188.456794339	1.5	0.1
0.01	1	0.273217250000016	1	118	NA	365.700533615	0	0.45	4.2	1	352.105410063	352.378627313	"23"	3190.644353889	3188.456794339	1.5	0.1
0.01	1	0.19683030799979	1	118	NA	365.700533615	0	0.45	4.2	1	352.606173445	352.803003753	"23"	3190.644353889	3188.456794339	1.5	0.1
0.01	1	0.225498010000138	1	118	NA	365.700533615	0	0.45	4.2	1	353.040240369	353.265738379	"23"	3190.644353889	3188.456794339	1.5	0.1
0.01	1	0.199388111000189	1	118	NA	365.700533615	0	0.45	4.2	1	353.491156739	353.69054485	"23"	3190.644353889	3188.456794339	1.5	0.1
0.01	1	0.228808445000141	1	118	NA	365.700533615	0	0.45	4.2	1	353.925029728	354.153838173	"23"	3190.644353889	3188.456794339	1.5	0.1
0.01	1	0.281562164000206	1	118	NA	365.700533615	0	0.45	4.2	1	354.375859549	354.657421713	"23"	3190.644353889	3188.456794339	1.5	0.1
0.01	1	0.244446389000132	1	118	NA	365.700533615	0	0.45	4.2	1	354.89348355	355.137929939	"23"	3190.644353889	3188.456794339	1.5	0.1
0.01	1	0.43327947500029	1	118	NA	365.700533615	0	0.45	4.2	1	355.360790759	355.794070234	"23"	3190.644353889	3188.456794339	1.5	0.1
0.01	1	0.213298315999964	1	118	NA	365.700533615	0	0.45	4.2	1	356.028624803	356.241923119	"23"	3190.644353889	3188.456794339	1.5	0.1
0.01	1	0.266538039999887	1	118	NA	365.700533615	0	0.45	4.2	1	356.479443537	356.745981577	"23"	3190.644353889	3188.456794339	1.5	0.1
0.01	1	0.253051080000205	1	118	NA	365.700533615	0	0.45	4.2	1	356.980282048	357.233333128	"23"	3190.644353889	3188.456794339	1.5	0.1
0.01	1	0.257756413999687	1	118	NA	365.700533615	0	0.45	4.2	1	357.464339003	357.722095417	"23"	3190.644353889	3188.456794339	1.5	0.1
0.01	1	0.261217656000099	1	118	NA	365.700533615	0	0.45	4.2	1	357.948558752	358.209776408	"23"	3190.644353889	3188.456794339	1.5	0.1
0.01	1	0.161101813999721	1	118	NA	365.700533615	0	0.45	4.2	1	358.432717735	358.593819549	"23"	3190.644353889	3188.456794339	1.5	0.1
0.01	1	0.200550472000032	1	118	NA	365.700533615	0	0.45	4.2	1	358.816755167	359.017305639	"23"	3190.644353889	3188.456794339	1.5	0.1
0.01	1	0.143952055000227	1	118	NA	365.700533615	0	0.45	4.2	1	359.250846947	359.394799002	"23"	3190.644353889	3188.456794339	1.5	0.1
0.01	1	0.0473105679998298	1	118	NA	365.700533615	0	0.45	4.2	1	359.618082031	359.665392599	"23"	3190.644353889	3188.456794339	1.5	0.1
0.01	1	0.0606525420002981	1	118	NA	365.700533615	0	0.45	4.2	1	359.901781794	359.962434336	"23"	3190.644353889	3188.456794339	1.5	0.1
0.01	1	0.0399266139997962	1	118	NA	365.700533615	0	0.45	4.2	1	360.185566939	360.225493553	"23"	3190.644353889	3188.456794339	1.5	0.1
0.01	1	0.0141665239998474	1	118	NA	365.700533615	0	0.45	4.2	1	360.452720912	360.466887436	"23"	3190.644353889	3188.456794339	1.5	0.1
0.01	1	0.0101252760000534	1	118	NA	365.700533615	0	0.45	4.2	1	360.70315794	360.713283216	"23"	3190.644353889	3188.456794339	1.5	0.1
0.01	1	0.0333903929999906	1	118	NA	365.700533615	0	0.45	4.2	1	360.936926543	360.970316936	"23"	3190.644353889	3188.456794339	1.5	0.1
0.01	1	0.0299950470002841	1	118	NA	365.700533615	0	0.45	4.2	1	361.204107967	361.234103014	"23"	3190.644353889	3188.456794339	1.5	0.1
0.01	1	0.0180469110000558	1	118	NA	365.700533615	0	0.45	4.2	1	361.471159794	361.489206705	"23"	3190.644353889	3188.456794339	1.5	0.1
0.01	1	0.0411502560000372	1	118	NA	365.700533615	0	0.45	4.2	1	361.721550343	361.762700599	"23"	3190.644353889	3188.456794339	1.5	0.1
0.01	1	0.0208551239998087	1	118	NA	365.700533615	0	0.45	4.2	1	361.988582935	362.009438059	"23"	3190.644353889	3188.456794339	1.5	0.1
0.01	1	0.0199541719998706	1	118	NA	365.700533615	0	0.45	4.2	1	362.239109791	362.259063963	"23"	3190.644353889	3188.456794339	1.5	0.1
0.01	1	0.00230833700015864	1	118	NA	365.700533615	0	0.45	4.2	1	362.489561176	362.491869513	"23"	3190.644353889	3188.456794339	1.5	0.1
0.01	1	0.0465478830001302	1	118	NA	365.700533615	0	0.45	4.2	1	362.723188648	362.769736531	"23"	3190.644353889	3188.456794339	1.5	0.1
0.01	1	0.0198498680001649	1	118	NA	365.700533615	0	0.45	4.2	1	363.007058227	363.026908095	"23"	3190.644353889	3188.456794339	1.5	0.1
0.01	1	0.0328040300000794	1	118	NA	365.700533615	0	0.45	4.2	1	363.257552141	363.290356171	"23"	3190.644353889	3188.456794339	1.5	0.1
0.01	1	0.0295832029996745	1	118	NA	365.700533615	0	0.45	4.2	1	363.524708628	363.554291831	"23"	3190.644353889	3188.456794339	1.5	0.1
0.01	1	0.0099503139999797	1	118	NA	365.700533615	0	0.45	4.2	1	363.791840393	363.801790707	"23"	3190.644353889	3188.456794339	1.5	0.1
0.01	1	0.0566595400000551	1	118	NA	365.700533615	0	0.45	4.2	1	364.025368191	364.082027731	"23"	3190.644353889	3188.456794339	1.5	0.1
0.01	1	0.0444533760000922	1	118	NA	365.700533615	0	0.45	4.2	1	364.309190463	364.353643839	"23"	3190.644353889	3188.456794339	1.5	0.1
0.01	1	0.169976506000239	1	118	NA	365.700533615	0	0.45	4.2	1	364.576451312	364.746427818	"23"	3190.644353889	3188.456794339	1.5	0.1
0.01	1	0.721811678999984	2	118	NA	365.700533615	0	0.45	4.2	1	364.977099708	365.698911387	"23"	3190.644353889	3188.456794339	1.5	0.1
0.01	1	5.81798073100026	1	100	NA	395.688114854	0	0.22	4.42	1	367.748366776	373.566347507	"24"	3190.644353889	3188.456794339	1.5	0.1
0.01	1	0.846068496000044	1	100	NA	395.688114854	0	0.22	4.42	1	373.791866603	374.637935099	"24"	3190.644353889	3188.456794339	1.5	0.1
0.01	1	1.08292960199969	1	100	NA	395.688114854	0	0.22	4.42	1	374.877044491	375.959974093	"24"	3190.644353889	3188.456794339	1.5	0.1
0.01	1	1.29837155599989	1	100	NA	395.688114854	0	0.22	4.42	1	376.195932267	377.494303823	"24"	3190.644353889	3188.456794339	1.5	0.1
0.01	1	1.02647095599968	1	100	NA	395.688114854	0	0.22	4.42	1	377.731834343	378.758305299	"24"	3190.644353889	3188.456794339	1.5	0.1
0.01	1	2.41443300099991	1	100	NA	395.688114854	0	0.22	4.42	1	378.983908473	381.398341474	"24"	3190.644353889	3188.456794339	1.5	0.1
0.01	1	1.00978803499993	1	100	NA	395.688114854	0	0.22	4.42	1	381.63841946	382.648207495	"24"	3190.644353889	3188.456794339	1.5	0.1
0.01	1	0.781697169000381	1	100	NA	395.688114854	0	0.22	4.42	1	382.873742085	383.655439254	"24"	3190.644353889	3188.456794339	1.5	0.1
0.01	1	1.40312805700023	1	100	NA	395.688114854	0	0.22	4.42	1	383.892186447	385.295314504	"24"	3190.644353889	3188.456794339	1.5	0.1
0.01	1	0.501896855999803	1	100	NA	395.688114854	0	0.22	4.42	1	385.528350217	386.030247073	"24"	3190.644353889	3188.456794339	1.5	0.1
0.01	1	1.91958313800023	1	100	NA	395.688114854	0	0.22	4.42	1	386.262910687	388.182493825	"24"	3190.644353889	3188.456794339	1.5	0.1
0.01	1	0.438667263000298	1	100	NA	395.688114854	0	0.22	4.42	1	388.416492732	388.855159995	"24"	3190.644353889	3188.456794339	1.5	0.1
0.01	1	0.435089156999766	1	100	NA	395.688114854	0	0.22	4.42	1	389.084181699	389.519270856	"24"	3190.644353889	3188.456794339	1.5	0.1
0.01	1	0.44843979999996	1	100	NA	395.688114854	0	0.22	4.42	1	389.75203514	390.20047494	"24"	3190.644353889	3188.456794339	1.5	0.1
0.01	1	0.49742476099982	1	100	NA	395.688114854	0	0.22	4.42	1	390.436592214	390.934016975	"24"	3190.644353889	3188.456794339	1.5	0.1
0.01	1	0.332161065000037	1	100	NA	395.688114854	0	0.22	4.42	1	391.17107684	391.503237905	"24"	3190.644353889	3188.456794339	1.5	0.1
0.01	1	0.315927770000144	1	100	NA	395.688114854	0	0.22	4.42	1	391.738761693	392.054689463	"24"	3190.644353889	3188.456794339	1.5	0.1
0.01	1	0.389464892999968	1	100	NA	395.688114854	0	0.22	4.42	1	392.28966629	392.679131183	"24"	3190.644353889	3188.456794339	1.5	0.1
0.01	1	0.428364667999631	1	100	NA	395.688114854	0	0.22	4.42	1	392.907303279	393.335667947	"24"	3190.644353889	3188.456794339	1.5	0.1
0.01	1	0.311837780000133	1	100	NA	395.688114854	0	0.22	4.42	1	393.55850832	393.8703461	"24"	3190.644353889	3188.456794339	1.5	0.1
0.01	1	0.315012017999834	1	100	NA	395.688114854	0	0.22	4.42	1	394.09267903	394.407691048	"24"	3190.644353889	3188.456794339	1.5	0.1
0.01	1	0.323022910999953	1	100	NA	395.688114854	0	0.22	4.42	1	394.643582452	394.966605363	"24"	3190.644353889	3188.456794339	1.5	0.1
0.01	1	0.492007341999852	2	100	NA	395.688114854	0	0.22	4.42	1	395.194505863	395.686513205	"24"	3190.644353889	3188.456794339	1.5	0.1
0.01	1	1.32248413400021	1	46	NA	412.25572643	0	0.33	4.75	1	397.715383169	399.037867303	"25"	3190.644353889	3188.456794339	1.5	0.1
0.01	1	1.68174761299997	1	46	NA	412.25572643	0	0.33	4.75	1	399.26820683	400.949954443	"25"	3190.644353889	3188.456794339	1.5	0.1
0.01	1	0.266121054999985	1	46	NA	412.25572643	0	0.33	4.75	1	401.187882208	401.454003263	"25"	3190.644353889	3188.456794339	1.5	0.1
0.01	1	0.263120817999607	1	46	NA	412.25572643	0	0.33	4.75	1	401.688712855	401.951833673	"25"	3190.644353889	3188.456794339	1.5	0.1
0.01	1	0.273092721000012	1	46	NA	412.25572643	0	0.33	4.75	1	402.189596635	402.462689356	"25"	3190.644353889	3188.456794339	1.5	0.1
0.01	1	0.244677333999789	1	46	NA	412.25572643	0	0.33	4.75	1	402.690616194	402.935293528	"25"	3190.644353889	3188.456794339	1.5	0.1
0.01	1	0.232687972999884	1	46	NA	412.25572643	0	0.33	4.75	1	403.15787744	403.390565413	"25"	3190.644353889	3188.456794339	1.5	0.1
0.01	1	0.188595633999739	1	46	NA	412.25572643	0	0.33	4.75	1	403.625359903	403.813955537	"25"	3190.644353889	3188.456794339	1.5	0.1
0.01	1	0.156789009000022	1	46	NA	412.25572643	0	0.33	4.75	1	404.042814165	404.199603174	"25"	3190.644353889	3188.456794339	1.5	0.1
0.01	1	0.107353242000045	1	46	NA	412.25572643	0	0.33	4.75	1	404.426775005	404.534128247	"25"	3190.644353889	3188.456794339	1.5	0.1
0.01	1	0.078687440000067	1	46	NA	412.25572643	0	0.33	4.75	1	404.760635096	404.839322536	"25"	3190.644353889	3188.456794339	1.5	0.1
0.01	1	0.0811481690002438	1	46	NA	412.25572643	0	0.33	4.75	1	405.077817812	405.158965981	"25"	3190.644353889	3188.456794339	1.5	0.1
0.01	1	0.0673653610001566	1	46	NA	412.25572643	0	0.33	4.75	1	405.395093142	405.462458503	"25"	3190.644353889	3188.456794339	1.5	0.1
0.01	1	0.0961196160001236	1	46	NA	412.25572643	0	0.33	4.75	1	405.695631475	405.791751091	"25"	3190.644353889	3188.456794339	1.5	0.1
0.01	1	0.113351831999807	1	46	NA	412.25572643	0	0.33	4.75	1	406.029400233	406.142752065	"25"	3190.644353889	3188.456794339	1.5	0.1
0.01	1	0.0597720199998548	1	46	NA	412.25572643	0	0.33	4.75	1	406.38003049	406.43980251	"25"	3190.644353889	3188.456794339	1.5	0.1
0.01	1	0.0622537949998332	1	46	NA	412.25572643	0	0.33	4.75	1	406.663916422	406.726170217	"25"	3190.644353889	3188.456794339	1.5	0.1
0.01	1	0.0420893569998952	1	46	NA	412.25572643	0	0.33	4.75	1	406.96426268	407.006352037	"25"	3190.644353889	3188.456794339	1.5	0.1
0.01	1	0.104172569999719	1	46	NA	412.25572643	0	0.33	4.75	1	407.231348953	407.335521523	"25"	3190.644353889	3188.456794339	1.5	0.1
0.01	1	0.0573630950002553	1	46	NA	412.25572643	0	0.33	4.75	1	407.565340712	407.622703807	"25"	3190.644353889	3188.456794339	1.5	0.1
0.01	1	0.0370893469998919	1	46	NA	412.25572643	0	0.33	4.75	1	407.849196151	407.886285498	"25"	3190.644353889	3188.456794339	1.5	0.1
0.01	1	0.074764813999991	1	46	NA	412.25572643	0	0.33	4.75	1	408.116220211	408.190985025	"25"	3190.644353889	3188.456794339	1.5	0.1
0.01	1	0.0696608839998589	1	46	NA	412.25572643	0	0.33	4.75	1	408.41673619	408.486397074	"25"	3190.644353889	3188.456794339	1.5	0.1
0.01	1	0.0424407329996939	1	46	NA	412.25572643	0	0.33	4.75	1	408.71725508	408.759695813	"25"	3190.644353889	3188.456794339	1.5	0.1
0.01	1	0.0388115280002239	1	46	NA	412.25572643	0	0.33	4.75	1	408.984360875	409.023172403	"25"	3190.644353889	3188.456794339	1.5	0.1
0.01	1	0.0269804780000413	1	46	NA	412.25572643	0	0.33	4.75	1	409.251464375	409.278444853	"25"	3190.644353889	3188.456794339	1.5	0.1
0.01	1	0.0329930620000596	1	46	NA	412.25572643	0	0.33	4.75	1	409.501969195	409.534962257	"25"	3190.644353889	3188.456794339	1.5	0.1
0.01	1	0.00212016499972378	1	46	NA	412.25572643	0	0.33	4.75	1	409.769012263	409.771132428	"25"	3190.644353889	3188.456794339	1.5	0.1
0.01	1	0.0071475710001323	1	46	NA	412.25572643	0	0.33	4.75	1	410.002739322	410.009886893	"25"	3190.644353889	3188.456794339	1.5	0.1
0.01	1	0.00213141099993663	1	46	NA	412.25572643	0	0.33	4.75	1	410.23654373	410.238675141	"25"	3190.644353889	3188.456794339	1.5	0.1
0.01	1	0.0879323660001319	1	46	NA	412.25572643	0	0.33	4.75	1	410.470223493	410.558155859	"25"	3190.644353889	3188.456794339	1.5	0.1
0.01	1	0.25956538399987	1	46	NA	412.25572643	0	0.33	4.75	1	410.78739103	411.046956414	"25"	3190.644353889	3188.456794339	1.5	0.1
0.01	1	0.463490489999913	1	46	NA	412.25572643	0	0.33	4.75	1	411.2883713	411.75186179	"25"	3190.644353889	3188.456794339	1.5	0.1
0.01	1	0.264843878999727	2	46	NA	412.25572643	0	0.33	4.75	1	411.989301252	412.254145131	"25"	3190.644353889	3188.456794339	1.5	0.1
0.01	1	3.04779258799999	1	102	NA	418.046969325	0	0.01	4.76	1	414.310064525	417.357857113	"26"	3190.644353889	3188.456794339	1.5	0.1
0.01	1	0.446441002000029	NA	102	NA	418.046969325	0	0.01	4.76	1	417.5988888	418.045329802	"26"	3190.644353889	3188.456794339	1.5	0.1
0.01	1	2.28722473899961	1	120	NA	434.590771614	0	0.29	5.05	1	420.06971955	422.356944289	"27"	3190.644353889	3188.456794339	1.5	0.1
0.01	1	0.567157005000354	1	120	NA	434.590771614	0	0.29	5.05	1	422.590645427	423.157802432	"27"	3190.644353889	3188.456794339	1.5	0.1
0.01	1	0.421762540000145	1	120	NA	434.590771614	0	0.29	5.05	1	423.39225869	423.81402123	"27"	3190.644353889	3188.456794339	1.5	0.1
0.01	1	0.353203506000227	1	120	NA	434.590771614	0	0.29	5.05	1	424.043105845	424.396309351	"27"	3190.644353889	3188.456794339	1.5	0.1
0.01	1	0.329993759999979	1	120	NA	434.590771614	0	0.29	5.05	1	424.627416642	424.957410402	"27"	3190.644353889	3188.456794339	1.5	0.1
0.01	1	0.354347595000036	1	120	NA	434.590771614	0	0.29	5.05	1	425.195058942	425.549406537	"27"	3190.644353889	3188.456794339	1.5	0.1
0.01	1	0.70638284100005	1	120	NA	434.590771614	0	0.29	5.05	1	425.77930717	426.485690011	"27"	3190.644353889	3188.456794339	1.5	0.1
0.01	1	0.250442292000116	1	120	NA	434.590771614	0	0.29	5.05	1	426.714207002	426.964649294	"27"	3190.644353889	3188.456794339	1.5	0.1
0.01	1	0.198990005999804	1	120	NA	434.590771614	0	0.29	5.05	1	427.198524925	427.397514931	"27"	3190.644353889	3188.456794339	1.5	0.1
0.01	1	0.157390222999766	1	120	NA	434.590771614	0	0.29	5.05	1	427.632576891	427.789967114	"27"	3190.644353889	3188.456794339	1.5	0.1
0.01	1	0.141129756000282	1	120	NA	434.590771614	0	0.29	5.05	1	428.016520195	428.157649951	"27"	3190.644353889	3188.456794339	1.5	0.1
0.01	1	0.149827653000102	1	120	NA	434.590771614	0	0.29	5.05	1	428.383719862	428.533547515	"27"	3190.644353889	3188.456794339	1.5	0.1
0.01	1	0.109363195000242	1	120	NA	434.590771614	0	0.29	5.05	1	428.767735567	428.877098762	"27"	3190.644353889	3188.456794339	1.5	0.1
0.01	1	0.120304753000255	1	120	NA	434.590771614	0	0.29	5.05	1	429.10165884	429.221963593	"27"	3190.644353889	3188.456794339	1.5	0.1
0.01	1	0.103984200000014	1	120	NA	434.590771614	0	0.29	5.05	1	429.45218188	429.55616608	"27"	3190.644353889	3188.456794339	1.5	0.1
0.01	1	0.0903219090000675	1	120	NA	434.590771614	0	0.29	5.05	1	429.786054107	429.876376016	"27"	3190.644353889	3188.456794339	1.5	0.1
0.01	1	0.142044000000169	1	120	NA	434.590771614	0	0.29	5.05	1	430.103212132	430.245256132	"27"	3190.644353889	3188.456794339	1.5	0.1
0.01	1	0.127088388000175	1	120	NA	434.590771614	0	0.29	5.05	1	430.470616265	430.597704653	"27"	3190.644353889	3188.456794339	1.5	0.1
0.01	1	0.0557548890001272	1	120	NA	434.590771614	0	0.29	5.05	1	430.837785544	430.893540433	"27"	3190.644353889	3188.456794339	1.5	0.1
0.01	1	0.098796418999882	1	120	NA	434.590771614	0	0.29	5.05	1	431.121635415	431.220431834	"27"	3190.644353889	3188.456794339	1.5	0.1
0.01	1	0.0854558600003656	1	120	NA	434.590771614	0	0.29	5.05	1	431.455608425	431.541064285	"27"	3190.644353889	3188.456794339	1.5	0.1
0.01	1	0.0960645079999267	1	120	NA	434.590771614	0	0.29	5.05	1	431.772745367	431.868809875	"27"	3190.644353889	3188.456794339	1.5	0.1
0.01	1	0.0826279100001557	1	120	NA	434.590771614	0	0.29	5.05	1	432.10673147	432.18935938	"27"	3190.644353889	3188.456794339	1.5	0.1
0.01	1	0.0933144770001491	1	120	NA	434.590771614	0	0.29	5.05	1	432.423917967	432.517232444	"27"	3190.644353889	3188.456794339	1.5	0.1
0.01	1	0.0874233780000395	1	120	NA	434.590771614	0	0.29	5.05	1	432.741067075	432.828490453	"27"	3190.644353889	3188.456794339	1.5	0.1
0.01	1	0.0828971850000926	1	120	NA	434.590771614	0	0.29	5.05	1	433.0582403	433.141137485	"27"	3190.644353889	3188.456794339	1.5	0.1
0.01	1	0.172995716000059	1	120	NA	434.590771614	0	0.29	5.05	1	433.37558246	433.548578176	"27"	3190.644353889	3188.456794339	1.5	0.1
0.01	1	0.149837719000061	1	120	NA	434.590771614	0	0.29	5.05	1	433.7762254	433.926063119	"27"	3190.644353889	3188.456794339	1.5	0.1
0.01	1	0.148852393000197	1	120	NA	434.590771614	0	0.29	5.05	1	434.16015119	434.309003583	"27"	3190.644353889	3188.456794339	1.5	0.1
0.01	1	0.0450475200000255	2	120	NA	434.590771614	0	0.29	5.05	1	434.544160122	434.589207642	"27"	3190.644353889	3188.456794339	1.5	0.1
0.01	1	6.24002706100009	1	44	NA	467.768657999	0	0.33	5.38	1	436.61432995	442.854357011	"28"	3190.644353889	3188.456794339	1.5	0.1
0.01	1	0.291669604999697	1	44	NA	467.768657999	0	0.33	5.38	1	443.09188734	443.383556945	"28"	3190.644353889	3188.456794339	1.5	0.1
0.01	1	0.269650387999718	1	44	NA	467.768657999	0	0.33	5.38	1	443.609357405	443.879007793	"28"	3190.644353889	3188.456794339	1.5	0.1
0.01	1	0.9844674699998	1	44	NA	467.768657999	0	0.33	5.38	1	444.11030264	445.09477011	"28"	3190.644353889	3188.456794339	1.5	0.1
0.01	1	0.262351226000192	1	44	NA	467.768657999	0	0.33	5.38	1	445.328864827	445.591216053	"28"	3190.644353889	3188.456794339	1.5	0.1
0.01	1	0.248573787999703	1	44	NA	467.768657999	0	0.33	5.38	1	445.829697692	446.07827148	"28"	3190.644353889	3188.456794339	1.5	0.1
0.01	1	0.893750614000055	1	44	NA	467.768657999	0	0.33	5.38	1	446.31389536	447.207645974	"28"	3190.644353889	3188.456794339	1.5	0.1
0.01	1	0.294497981999939	1	44	NA	467.768657999	0	0.33	5.38	1	447.432516877	447.727014859	"28"	3190.644353889	3188.456794339	1.5	0.1
0.01	1	0.217300075000367	1	44	NA	467.768657999	0	0.33	5.38	1	447.949960187	448.167260262	"28"	3190.644353889	3188.456794339	1.5	0.1
0.01	1	0.862177670000165	1	44	NA	467.768657999	0	0.33	5.38	1	448.40065594	449.26283361	"28"	3190.644353889	3188.456794339	1.5	0.1
0.01	1	0.233381761000146	1	44	NA	467.768657999	0	0.33	5.38	1	449.502585162	449.735966923	"28"	3190.644353889	3188.456794339	1.5	0.1
0.01	1	0.148721467000087	1	44	NA	467.768657999	0	0.33	5.38	1	449.97005322	450.118774687	"28"	3190.644353889	3188.456794339	1.5	0.1
0.01	1	1.59648254900003	1	44	NA	467.768657999	0	0.33	5.38	1	450.354121345	451.950603894	"28"	3190.644353889	3188.456794339	1.5	0.1
0.01	1	0.312812726000175	1	44	NA	467.768657999	0	0.33	5.38	1	452.173783665	452.486596391	"28"	3190.644353889	3188.456794339	1.5	0.1
0.01	1	0.170050597000227	1	44	NA	467.768657999	0	0.33	5.38	1	452.724755685	452.894806282	"28"	3190.644353889	3188.456794339	1.5	0.1
0.01	1	0.754825987000004	1	44	NA	467.768657999	0	0.33	5.38	1	453.125321347	453.880147334	"28"	3190.644353889	3188.456794339	1.5	0.1
0.01	1	0.320158050000373	1	44	NA	467.768657999	0	0.33	5.38	1	454.1104401	454.43059815	"28"	3190.644353889	3188.456794339	1.5	0.1
0.01	1	0.194174837999981	1	44	NA	467.768657999	0	0.33	5.38	1	454.661198985	454.855373823	"28"	3190.644353889	3188.456794339	1.5	0.1
0.01	1	0.711656857999969	1	44	NA	467.768657999	0	0.33	5.38	1	455.078629018	455.790285876	"28"	3190.644353889	3188.456794339	1.5	0.1
0.01	1	0.241889895999975	1	44	NA	467.768657999	0	0.33	5.38	1	456.030249182	456.272139078	"28"	3190.644353889	3188.456794339	1.5	0.1
0.01	1	0.190155699000115	1	44	NA	467.768657999	0	0.33	5.38	1	456.497650674	456.687806373	"28"	3190.644353889	3188.456794339	1.5	0.1
0.01	1	0.995665088999885	1	44	NA	467.768657999	0	0.33	5.38	1	456.91502531	457.910690399	"28"	3190.644353889	3188.456794339	1.5	0.1
0.01	1	0.225876923000214	1	44	NA	467.768657999	0	0.33	5.38	1	458.13386255	458.359739473	"28"	3190.644353889	3188.456794339	1.5	0.1
0.01	1	0.182739677999962	1	44	NA	467.768657999	0	0.33	5.38	1	458.584531047	458.767270725	"28"	3190.644353889	3188.456794339	1.5	0.1
0.01	1	0.749143838999771	1	44	NA	467.768657999	0	0.33	5.38	1	459.001768852	459.750912691	"28"	3190.644353889	3188.456794339	1.5	0.1
0.01	1	0.165313245999641	1	44	NA	467.768657999	0	0.33	5.38	1	459.98677243	460.152085676	"28"	3190.644353889	3188.456794339	1.5	0.1
0.01	1	0.0905051260001528	1	44	NA	467.768657999	0	0.33	5.38	1	460.38760019	460.478105316	"28"	3190.644353889	3188.456794339	1.5	0.1
0.01	1	1.97540511399984	1	44	NA	467.768657999	0	0.33	5.38	1	460.704819782	462.680224896	"28"	3190.644353889	3188.456794339	1.5	0.1
0.01	1	0.202452125000036	1	44	NA	467.768657999	0	0.33	5.38	1	462.908450235	463.11090236	"28"	3190.644353889	3188.456794339	1.5	0.1
0.01	1	0.151905314000032	1	44	NA	467.768657999	0	0.33	5.38	1	463.342543595	463.494448909	"28"	3190.644353889	3188.456794339	1.5	0.1
0.01	1	2.59189770900002	1	44	NA	467.768657999	0	0.33	5.38	1	463.72655343	466.318451139	"28"	3190.644353889	3188.456794339	1.5	0.1
0.01	1	0.267337199999929	1	44	NA	467.768657999	0	0.33	5.38	1	466.54801657	466.81535377	"28"	3190.644353889	3188.456794339	1.5	0.1
0.01	1	0.158429699999942	1	44	NA	467.768657999	0	0.33	5.38	1	467.04869852	467.20712822	"28"	3190.644353889	3188.456794339	1.5	0.1
0.01	1	0.334416177000094	2	44	NA	467.768657999	0	0.33	5.38	1	467.432685042	467.767101219	"28"	3190.644353889	3188.456794339	1.5	0.1
0.01	1	1.13186797900016	1	75	NA	496.265524367	0	0.36	5.74	1	469.820064877	470.951932856	"29"	3190.644353889	3188.456794339	1.5	0.1
0.01	1	0.67319039899985	1	75	NA	496.265524367	0	0.36	5.74	1	471.188930067	471.862120466	"29"	3190.644353889	3188.456794339	1.5	0.1
0.01	1	0.507906054000159	1	75	NA	496.265524367	0	0.36	5.74	1	472.090584305	472.598490359	"29"	3190.644353889	3188.456794339	1.5	0.1
0.01	1	0.534713461000138	1	75	NA	496.265524367	0	0.36	5.74	1	472.825101127	473.359814588	"29"	3190.644353889	3188.456794339	1.5	0.1
0.01	1	0.333381176999865	1	75	NA	496.265524367	0	0.36	5.74	1	473.593099627	473.926480804	"29"	3190.644353889	3188.456794339	1.5	0.1
0.01	1	0.407058015000075	1	75	NA	496.265524367	0	0.36	5.74	1	474.160775945	474.56783396	"29"	3190.644353889	3188.456794339	1.5	0.1
0.01	1	0.643205139000202	1	75	NA	496.265524367	0	0.36	5.74	1	474.79512292	475.438328059	"29"	3190.644353889	3188.456794339	1.5	0.1
0.01	1	2.48810684	1	75	NA	496.265524367	0	0.36	5.74	1	475.6633285	478.15143534	"29"	3190.644353889	3188.456794339	1.5	0.1
0.01	1	0.357987420999962	1	75	NA	496.265524367	0	0.36	5.74	1	478.384542103	478.742529524	"29"	3190.644353889	3188.456794339	1.5	0.1
0.01	1	3.51962388699985	1	75	NA	496.265524367	0	0.36	5.74	1	478.968791621	482.488415508	"29"	3190.644353889	3188.456794339	1.5	0.1
0.01	1	0.251522381000086	1	75	NA	496.265524367	0	0.36	5.74	1	482.72517341	482.976695791	"29"	3190.644353889	3188.456794339	1.5	0.1
0.01	1	3.56684511100002	1	75	NA	496.265524367	0	0.36	5.74	1	483.209202152	486.776047263	"29"	3190.644353889	3188.456794339	1.5	0.1
0.01	1	0.256690284999877	1	75	NA	496.265524367	0	0.36	5.74	1	487.01572722	487.272417505	"29"	3190.644353889	3188.456794339	1.5	0.1
0.01	1	0.48505286999989	1	75	NA	496.265524367	0	0.36	5.74	1	487.499792992	487.984845862	"29"	3190.644353889	3188.456794339	1.5	0.1
0.01	1	2.18206598400002	1	75	NA	496.265524367	0	0.36	5.74	1	488.21772813	490.399794114	"29"	3190.644353889	3188.456794339	1.5	0.1
0.01	1	0.0738778479999382	1	75	NA	496.265524367	0	0.36	5.74	1	490.638405707	490.712283555	"29"	3190.644353889	3188.456794339	1.5	0.1
0.01	1	0.0537803430001986	1	75	NA	496.265524367	0	0.36	5.74	1	490.938881132	490.992661475	"29"	3190.644353889	3188.456794339	1.5	0.1
0.01	1	0.0896837219997906	1	75	NA	496.265524367	0	0.36	5.74	1	491.222731275	491.312414997	"29"	3190.644353889	3188.456794339	1.5	0.1
0.01	1	0.0286010830000123	1	75	NA	496.265524367	0	0.36	5.74	1	491.539969594	491.568570677	"29"	3190.644353889	3188.456794339	1.5	0.1
0.01	1	0.00206221300004472	1	75	NA	496.265524367	0	0.36	5.74	1	491.790337692	491.792399905	"29"	3190.644353889	3188.456794339	1.5	0.1
0.01	1	0.00465103499982433	1	75	NA	496.265524367	0	0.36	5.74	1	492.02414506	492.028796095	"29"	3190.644353889	3188.456794339	1.5	0.1
0.01	1	0.00206950900019365	1	75	NA	496.265524367	0	0.36	5.74	1	492.257777251	492.25984676	"29"	3190.644353889	3188.456794339	1.5	0.1
0.01	1	0.00206833499987624	1	75	NA	496.265524367	0	0.36	5.74	1	492.491452589	492.493520924	"29"	3190.644353889	3188.456794339	1.5	0.1
0.01	1	0.00209474700022838	1	75	NA	496.265524367	0	0.36	5.74	1	492.725272193	492.72736694	"29"	3190.644353889	3188.456794339	1.5	0.1
0.01	1	0.136780309000187	1	75	NA	496.265524367	0	0.36	5.74	1	492.958850345	493.095630654	"29"	3190.644353889	3188.456794339	1.5	0.1
0.01	1	0.00239840399990499	1	75	NA	496.265524367	0	0.36	5.74	1	493.326222987	493.328621391	"29"	3190.644353889	3188.456794339	1.5	0.1
0.01	1	0.00385957600019537	1	75	NA	496.265524367	0	0.36	5.74	1	493.559938985	493.563798561	"29"	3190.644353889	3188.456794339	1.5	0.1
0.01	1	0.117954215999816	1	75	NA	496.265524367	0	0.36	5.74	1	493.79363822	493.911592436	"29"	3190.644353889	3188.456794339	1.5	0.1
0.01	1	0.0037758550001854	1	75	NA	496.265524367	0	0.36	5.74	1	494.144166192	494.147942047	"29"	3190.644353889	3188.456794339	1.5	0.1
0.01	1	0.0306744530003016	1	75	NA	496.265524367	0	0.36	5.74	1	494.37802217	494.408696623	"29"	3190.644353889	3188.456794339	1.5	0.1
0.01	1	0.012096064999696	1	75	NA	496.265524367	0	0.36	5.74	1	494.645064015	494.65716008	"29"	3190.644353889	3188.456794339	1.5	0.1
0.01	1	0.0318380580001758	1	75	NA	496.265524367	0	0.36	5.74	1	494.895599341	494.927437399	"29"	3190.644353889	3188.456794339	1.5	0.1
0.01	1	0.0213773330001459	1	75	NA	496.265524367	0	0.36	5.74	1	495.1627461	495.184123433	"29"	3190.644353889	3188.456794339	1.5	0.1
0.01	1	0.00392352800008666	1	75	NA	496.265524367	0	0.36	5.74	1	495.413180135	495.417103663	"29"	3190.644353889	3188.456794339	1.5	0.1
0.01	1	0.0177013500001522	1	75	NA	496.265524367	0	0.36	5.74	1	495.6468198	495.66452115	"29"	3190.644353889	3188.456794339	1.5	0.1
0.01	1	0.0394002989996807	1	75	NA	496.265524367	0	0.36	5.74	1	495.89721228	495.936612579	"29"	3190.644353889	3188.456794339	1.5	0.1
0.01	1	0.0995554430000993	2	75	NA	496.265524367	0	0.36	5.74	1	496.164387473	496.263942916	"29"	3190.644353889	3188.456794339	1.5	0.1
0.01	1	0.114595528999871	1	61	NA	508.617178603	0	0.3	6.04	1	498.31792799	498.432523519	"30"	3190.644353889	3188.456794339	1.5	0.1
0.01	1	0.403998585999943	1	61	NA	508.617178603	0	0.3	6.04	1	498.66859651	499.072595096	"30"	3190.644353889	3188.456794339	1.5	0.1
0.01	1	0.289093158000014	1	61	NA	508.617178603	0	0.3	6.04	1	499.302974455	499.592067613	"30"	3190.644353889	3188.456794339	1.5	0.1
0.01	1	0.0608363970000028	1	61	NA	508.617178603	0	0.3	6.04	1	499.820417302	499.881253699	"30"	3190.644353889	3188.456794339	1.5	0.1
0.01	1	0.176439410000057	1	61	NA	508.617178603	0	0.3	6.04	1	500.10421614	500.28065555	"30"	3190.644353889	3188.456794339	1.5	0.1
0.01	1	0.00382395399992674	1	61	NA	508.617178603	0	0.3	6.04	1	500.504990907	500.508814861	"30"	3190.644353889	3188.456794339	1.5	0.1
0.01	1	0.0373570659999132	1	61	NA	508.617178603	0	0.3	6.04	1	500.738726181	500.776083247	"30"	3190.644353889	3188.456794339	1.5	0.1
0.01	1	0.305878269000004	1	61	NA	508.617178603	0	0.3	6.04	1	501.005939131	501.3118174	"30"	3190.644353889	3188.456794339	1.5	0.1
0.01	1	0.0852473320001081	1	61	NA	508.617178603	0	0.3	6.04	1	501.53997795	501.625225282	"30"	3190.644353889	3188.456794339	1.5	0.1
0.01	1	0.47068564600022	1	61	NA	508.617178603	0	0.3	6.04	1	501.857329785	502.328015431	"30"	3190.644353889	3188.456794339	1.5	0.1
0.01	1	0.322640282000066	1	61	NA	508.617178603	0	0.3	6.04	1	502.558502847	502.881143129	"30"	3190.644353889	3188.456794339	1.5	0.1
0.01	1	0.266815906999909	1	61	NA	508.617178603	0	0.3	6.04	1	503.109380775	503.376196682	"30"	3190.644353889	3188.456794339	1.5	0.1
0.01	1	0.00390087499999936	1	61	NA	508.617178603	0	0.3	6.04	1	503.61020503	503.614105905	"30"	3190.644353889	3188.456794339	1.5	0.1
0.01	1	0.0528155619999779	1	61	NA	508.617178603	0	0.3	6.04	1	503.843885952	503.896701514	"30"	3190.644353889	3188.456794339	1.5	0.1
0.01	1	0.105427471999974	1	61	NA	508.617178603	0	0.3	6.04	1	504.127719462	504.233146934	"30"	3190.644353889	3188.456794339	1.5	0.1
0.01	1	0.147393448000003	1	61	NA	508.617178603	0	0.3	6.04	1	504.46158062	504.608974068	"30"	3190.644353889	3188.456794339	1.5	0.1
0.01	1	0.0755421879998721	1	61	NA	508.617178603	0	0.3	6.04	1	504.8455769	504.921119088	"30"	3190.644353889	3188.456794339	1.5	0.1
0.01	1	0.0950197980000667	1	61	NA	508.617178603	0	0.3	6.04	1	505.146161545	505.241181343	"30"	3190.644353889	3188.456794339	1.5	0.1
0.01	1	0.0489711800000805	1	61	NA	508.617178603	0	0.3	6.04	1	505.463304095	505.512275275	"30"	3190.644353889	3188.456794339	1.5	0.1
0.01	1	0.0380644850001772	1	61	NA	508.617178603	0	0.3	6.04	1	505.74721758	505.785282065	"30"	3190.644353889	3188.456794339	1.5	0.1
0.01	1	0.034278145999906	1	61	NA	508.617178603	0	0.3	6.04	1	506.014248907	506.048527053	"30"	3190.644353889	3188.456794339	1.5	0.1
0.01	1	0.00904793300014717	1	61	NA	508.617178603	0	0.3	6.04	1	506.281411447	506.29045938	"30"	3190.644353889	3188.456794339	1.5	0.1
0.01	1	0.00197521900008724	1	61	NA	508.617178603	0	0.3	6.04	1	506.515079253	506.517054472	"30"	3190.644353889	3188.456794339	1.5	0.1
0.01	1	0.00199369900019519	1	61	NA	508.617178603	0	0.3	6.04	1	506.74885311	506.750846809	"30"	3190.644353889	3188.456794339	1.5	0.1
0.01	1	0.002028951000284	1	61	NA	508.617178603	0	0.3	6.04	1	506.982563582	506.984592533	"30"	3190.644353889	3188.456794339	1.5	0.1
0.01	1	0.0247244810002485	1	61	NA	508.617178603	0	0.3	6.04	1	507.216173982	507.240898463	"30"	3190.644353889	3188.456794339	1.5	0.1
0.01	1	0.00466504599990003	1	61	NA	508.617178603	0	0.3	6.04	1	507.466756761	507.471421807	"30"	3190.644353889	3188.456794339	1.5	0.1
0.01	1	0.0838068849998308	1	61	NA	508.617178603	0	0.3	6.04	1	507.700349532	507.784156417	"30"	3190.644353889	3188.456794339	1.5	0.1
0.01	1	0.00397872800022014	1	61	NA	508.617178603	0	0.3	6.04	1	508.017604927	508.021583655	"30"	3190.644353889	3188.456794339	1.5	0.1
0.01	1	0.00371312999959628	1	61	NA	508.617178603	0	0.3	6.04	1	508.251354927	508.255068057	"30"	3190.644353889	3188.456794339	1.5	0.1
0.01	1	0.130532199999834	2	61	NA	508.617178603	0	0.3	6.04	1	508.48504639	508.61557859	"30"	3190.644353889	3188.456794339	1.5	0.1
