"payoff.level"	"balloon"	"rt"	"resp"	"explode.trial"	"explode.time"	"finish.time"	"exploded"	"trial.total"	"cumulative.total"	"finished"	"trial.start"	"trial.end"	"trial.num"	"secs"	"start.time"	"iti"	"isi"
0.01	1	3.82619451800002	1	64	26.730309583	NA	1	0	0	1	0.0144369549999794	3.840631473	"1"	521.136728637	518.569896863	1.5	0.1
0.01	1	0.42606096199998	1	64	26.730309583	NA	1	0	0	1	4.221480146	4.64754110799998	"1"	521.136728637	518.569896863	1.5	0.1
0.01	1	0.391514359000013	1	64	26.730309583	NA	1	0	0	1	4.87254981299998	5.26406417199999	"1"	521.136728637	518.569896863	1.5	0.1
0.01	1	0.40454945099998	1	64	26.730309583	NA	1	0	0	1	5.490275099	5.89482454999998	"1"	521.136728637	518.569896863	1.5	0.1
0.01	1	0.434529398999985	1	64	26.730309583	NA	1	0	0	1	6.12468927099999	6.55921866999998	"1"	521.136728637	518.569896863	1.5	0.1
0.01	1	0.327738304000007	1	64	26.730309583	NA	1	0	0	1	6.792483393	7.12022169700001	"1"	521.136728637	518.569896863	1.5	0.1
0.01	1	0.310791572999989	1	64	26.730309583	NA	1	0	0	1	7.36003572499999	7.67082729799998	"1"	521.136728637	518.569896863	1.5	0.1
0.01	1	0.152182753000005	1	64	26.730309583	NA	1	0	0	1	7.89449456199998	8.04667731499998	"1"	521.136728637	518.569896863	1.5	0.1
0.01	1	0.00352029800001219	1	64	26.730309583	NA	1	0	0	1	8.27844243299998	8.28196273099999	"1"	521.136728637	518.569896863	1.5	0.1
0.01	1	0.00251905500002181	1	64	26.730309583	NA	1	0	0	1	8.51217513999998	8.514694195	"1"	521.136728637	518.569896863	1.5	0.1
0.01	1	0.00228843100001086	1	64	26.730309583	NA	1	0	0	1	8.74577762999999	8.748066061	"1"	521.136728637	518.569896863	1.5	0.1
0.01	1	0.00215808000001516	1	64	26.730309583	NA	1	0	0	1	8.97955835099998	8.981716431	"1"	521.136728637	518.569896863	1.5	0.1
0.01	1	0.673738214999986	1	64	26.730309583	NA	1	0	0	1	9.21323586	9.88697407499998	"1"	521.136728637	518.569896863	1.5	0.1
0.01	1	0.00212490300000923	1	64	26.730309583	NA	1	0	0	1	10.114803848	10.116928751	"1"	521.136728637	518.569896863	1.5	0.1
0.01	1	0.00341238399997223	1	64	26.730309583	NA	1	0	0	1	10.348505149	10.351917533	"1"	521.136728637	518.569896863	1.5	0.1
0.01	1	0.00218623500001058	1	64	26.730309583	NA	1	0	0	1	10.58228532	10.584471555	"1"	521.136728637	518.569896863	1.5	0.1
0.01	1	0.00427121199999192	1	64	26.730309583	NA	1	0	0	1	10.816097668	10.82036888	"1"	521.136728637	518.569896863	1.5	0.1
0.01	1	0.00227305099997466	1	64	26.730309583	NA	1	0	0	1	11.04961706	11.051890111	"1"	521.136728637	518.569896863	1.5	0.1
0.01	1	0.00320958800000426	1	64	26.730309583	NA	1	0	0	1	11.283349473	11.286559061	"1"	521.136728637	518.569896863	1.5	0.1
0.01	1	0.443097606999999	1	64	26.730309583	NA	1	0	0	1	11.517129563	11.96022717	"1"	521.136728637	518.569896863	1.5	0.1
0.01	1	0.00318920200001571	1	64	26.730309583	NA	1	0	0	1	12.184992869	12.188182071	"1"	521.136728637	518.569896863	1.5	0.1
0.01	1	0.00230159800000251	1	64	26.730309583	NA	1	0	0	1	12.418650988	12.420952586	"1"	521.136728637	518.569896863	1.5	0.1
0.01	1	0.00231161199999974	1	64	26.730309583	NA	1	0	0	1	12.652399535	12.654711147	"1"	521.136728637	518.569896863	1.5	0.1
0.01	1	0.00210344499998882	1	64	26.730309583	NA	1	0	0	1	12.886147435	12.88825088	"1"	521.136728637	518.569896863	1.5	0.1
0.01	1	0.00216533000002528	1	64	26.730309583	NA	1	0	0	1	13.119842118	13.122007448	"1"	521.136728637	518.569896863	1.5	0.1
0.01	1	0.509199276999993	1	64	26.730309583	NA	1	0	0	1	13.353555823	13.8627551	"1"	521.136728637	518.569896863	1.5	0.1
0.01	1	0.00393371000001252	1	64	26.730309583	NA	1	0	0	1	14.088133555	14.092067265	"1"	521.136728637	518.569896863	1.5	0.1
0.01	1	0.00274258400000349	1	64	26.730309583	NA	1	0	0	1	14.321833597	14.324576181	"1"	521.136728637	518.569896863	1.5	0.1
0.01	1	0.0021313320000047	1	64	26.730309583	NA	1	0	0	1	14.555569181	14.557700513	"1"	521.136728637	518.569896863	1.5	0.1
0.01	1	0.00339820799999302	1	64	26.730309583	NA	1	0	0	1	14.789340677	14.792738885	"1"	521.136728637	518.569896863	1.5	0.1
0.01	1	0.00270176800000854	1	64	26.730309583	NA	1	0	0	1	15.022860287	15.025562055	"1"	521.136728637	518.569896863	1.5	0.1
0.01	1	0.391180378999991	1	64	26.730309583	NA	1	0	0	1	15.25670237	15.647882749	"1"	521.136728637	518.569896863	1.5	0.1
0.01	1	0.00394946200000845	1	64	26.730309583	NA	1	0	0	1	15.874505563	15.878455025	"1"	521.136728637	518.569896863	1.5	0.1
0.01	1	0.00336519399999702	1	64	26.730309583	NA	1	0	0	1	16.108159533	16.111524727	"1"	521.136728637	518.569896863	1.5	0.1
0.01	1	0.00302640600000359	1	64	26.730309583	NA	1	0	0	1	16.341926721	16.344953127	"1"	521.136728637	518.569896863	1.5	0.1
0.01	1	0.00368927599998869	1	64	26.730309583	NA	1	0	0	1	16.575602833	16.579292109	"1"	521.136728637	518.569896863	1.5	0.1
0.01	1	0.00211368600000128	1	64	26.730309583	NA	1	0	0	1	16.809299121	16.811412807	"1"	521.136728637	518.569896863	1.5	0.1
0.01	1	0.484631820999994	1	64	26.730309583	NA	1	0	0	1	17.04310415	17.527735971	"1"	521.136728637	518.569896863	1.5	0.1
0.01	1	0.00397303999997689	1	64	26.730309583	NA	1	0	0	1	17.761036133	17.765009173	"1"	521.136728637	518.569896863	1.5	0.1
0.01	1	0.00373965299999668	1	64	26.730309583	NA	1	0	0	1	17.99460881	17.998348463	"1"	521.136728637	518.569896863	1.5	0.1
0.01	1	0.00226293200000782	1	64	26.730309583	NA	1	0	0	1	18.228355793	18.230618725	"1"	521.136728637	518.569896863	1.5	0.1
0.01	1	0.537518583999997	1	64	26.730309583	NA	1	0	0	1	18.462148955	18.999667539	"1"	521.136728637	518.569896863	1.5	0.1
0.01	1	0.00207861900000239	1	64	26.730309583	NA	1	0	0	1	19.230073443	19.232152062	"1"	521.136728637	518.569896863	1.5	0.1
0.01	1	0.00208624400002577	1	64	26.730309583	NA	1	0	0	1	19.463796959	19.465883203	"1"	521.136728637	518.569896863	1.5	0.1
0.01	1	0.00212317899999448	1	64	26.730309583	NA	1	0	0	1	19.697606921	19.6997301	"1"	521.136728637	518.569896863	1.5	0.1
0.01	1	0.48353703799998	1	64	26.730309583	NA	1	0	0	1	19.931242075	20.414779113	"1"	521.136728637	518.569896863	1.5	0.1
0.01	1	0.00476902500000165	1	64	26.730309583	NA	1	0	0	1	20.649233468	20.654002493	"1"	521.136728637	518.569896863	1.5	0.1
0.01	1	0.00267968399998608	1	64	26.730309583	NA	1	0	0	1	20.882840485	20.885520169	"1"	521.136728637	518.569896863	1.5	0.1
0.01	1	0.00230190700000321	1	64	26.730309583	NA	1	0	0	1	21.116522001	21.118823908	"1"	521.136728637	518.569896863	1.5	0.1
0.01	1	0.472699480000017	1	64	26.730309583	NA	1	0	0	1	21.350381488	21.823080968	"1"	521.136728637	518.569896863	1.5	0.1
0.01	1	0.00227557200000206	1	64	26.730309583	NA	1	0	0	1	22.05149128	22.053766852	"1"	521.136728637	518.569896863	1.5	0.1
0.01	1	0.00224951799998507	1	64	26.730309583	NA	1	0	0	1	22.285103314	22.287352832	"1"	521.136728637	518.569896863	1.5	0.1
0.01	1	0.00220040399997856	1	64	26.730309583	NA	1	0	0	1	22.518994738	22.521195142	"1"	521.136728637	518.569896863	1.5	0.1
0.01	1	0.447219023000002	1	64	26.730309583	NA	1	0	0	1	22.752651605	23.199870628	"1"	521.136728637	518.569896863	1.5	0.1
0.01	1	0.00340811999998891	1	64	26.730309583	NA	1	0	0	1	23.437188371	23.440596491	"1"	521.136728637	518.569896863	1.5	0.1
0.01	1	0.00308028399999216	1	64	26.730309583	NA	1	0	0	1	23.670834733	23.673915017	"1"	521.136728637	518.569896863	1.5	0.1
0.01	1	0.00278051399999413	1	64	26.730309583	NA	1	0	0	1	23.904589355	23.907369869	"1"	521.136728637	518.569896863	1.5	0.1
0.01	1	0.00224255700001663	1	64	26.730309583	NA	1	0	0	1	24.138289248	24.140531805	"1"	521.136728637	518.569896863	1.5	0.1
0.01	1	0.540215302999997	1	64	26.730309583	NA	1	0	0	1	24.37200861	24.912223913	"1"	521.136728637	518.569896863	1.5	0.1
0.01	1	0.00413108199998646	1	64	26.730309583	NA	1	0	0	1	25.139970543	25.144101625	"1"	521.136728637	518.569896863	1.5	0.1
0.01	1	0.00375497400000313	1	64	26.730309583	NA	1	0	0	1	25.373798923	25.377553897	"1"	521.136728637	518.569896863	1.5	0.1
0.01	1	0.00336944400001471	1	64	26.730309583	NA	1	0	0	1	25.607404171	25.610773615	"1"	521.136728637	518.569896863	1.5	0.1
0.01	1	0.542679853999999	1	64	26.730309583	NA	1	0	0	1	25.841170433	26.383850287	"1"	521.136728637	518.569896863	1.5	0.1
0.01	1	0.00408335500000589	1	64	26.730309583	NA	1	0	0	1	26.609115848	26.613199203	"1"	521.136728637	518.569896863	1.5	0.1
0.01	1	0.316062054000014	1	102	NA	31.889857757	0	0.12	0.12	1	28.762825708	29.078887762	"2"	521.136728637	518.569896863	1.5	0.1
0.01	1	0.00232308400001102	1	102	NA	31.889857757	0	0.12	0.12	1	29.313669509	29.315992593	"2"	521.136728637	518.569896863	1.5	0.1
0.01	1	0.00323496000001455	1	102	NA	31.889857757	0	0.12	0.12	1	29.547351079	29.550586039	"2"	521.136728637	518.569896863	1.5	0.1
0.01	1	0.00385008899999661	1	102	NA	31.889857757	0	0.12	0.12	1	29.78113881	29.784988899	"2"	521.136728637	518.569896863	1.5	0.1
0.01	1	0.00342340800000329	1	102	NA	31.889857757	0	0.12	0.12	1	30.014839187	30.018262595	"2"	521.136728637	518.569896863	1.5	0.1
0.01	1	0.00419240499999773	1	102	NA	31.889857757	0	0.12	0.12	1	30.24864033	30.252832735	"2"	521.136728637	518.569896863	1.5	0.1
0.01	1	0.00349202499998569	1	102	NA	31.889857757	0	0.12	0.12	1	30.48231052	30.485802545	"2"	521.136728637	518.569896863	1.5	0.1
0.01	1	0.00227930200000515	1	102	NA	31.889857757	0	0.12	0.12	1	30.716107756	30.718387058	"2"	521.136728637	518.569896863	1.5	0.1
0.01	1	0.00221826399999259	1	102	NA	31.889857757	0	0.12	0.12	1	30.949820988	30.952039252	"2"	521.136728637	518.569896863	1.5	0.1
0.01	1	0.00340717999998219	1	102	NA	31.889857757	0	0.12	0.12	1	31.183512853	31.186920033	"2"	521.136728637	518.569896863	1.5	0.1
0.01	1	0.00404405699998733	1	102	NA	31.889857757	0	0.12	0.12	1	31.41718616	31.421230217	"2"	521.136728637	518.569896863	1.5	0.1
0.01	1	0.00383983799997623	1	102	NA	31.889857757	0	0.12	0.12	1	31.650920243	31.654760081	"2"	521.136728637	518.569896863	1.5	0.1
0.01	1	0.00323687200000222	2	102	NA	31.889857757	0	0.12	0.12	1	31.884802693	31.888039565	"2"	521.136728637	518.569896863	1.5	0.1
0.01	1	0.00383850700001176	1	97	NA	36.08075144	0	0.08	0.2	1	33.938127698	33.941966205	"3"	521.136728637	518.569896863	1.5	0.1
0.01	1	0.0038691110000002	1	97	NA	36.08075144	0	0.08	0.2	1	34.17199654	34.175865651	"3"	521.136728637	518.569896863	1.5	0.1
0.01	1	0.00286712799999123	1	97	NA	36.08075144	0	0.08	0.2	1	34.405669983	34.408537111	"3"	521.136728637	518.569896863	1.5	0.1
0.01	1	0.00341152999999395	1	97	NA	36.08075144	0	0.08	0.2	1	34.639351509	34.642763039	"3"	521.136728637	518.569896863	1.5	0.1
0.01	1	0.00254388600001221	1	97	NA	36.08075144	0	0.08	0.2	1	34.873047623	34.875591509	"3"	521.136728637	518.569896863	1.5	0.1
0.01	1	0.00293903799999384	1	97	NA	36.08075144	0	0.08	0.2	1	35.106825185	35.109764223	"3"	521.136728637	518.569896863	1.5	0.1
0.01	1	0.00337118400000236	1	97	NA	36.08075144	0	0.08	0.2	1	35.340575817	35.343947001	"3"	521.136728637	518.569896863	1.5	0.1
0.01	1	0.00342176399999516	1	97	NA	36.08075144	0	0.08	0.2	1	35.574217431	35.577639195	"3"	521.136728637	518.569896863	1.5	0.1
0.01	1	0.271141137000001	2	97	NA	36.08075144	0	0.08	0.2	1	35.808010068	36.079151205	"3"	521.136728637	518.569896863	1.5	0.1
0.01	1	0.00363197800001558	1	51	NA	47.505147571	0	0.37	0.57	1	38.128524733	38.132156711	"4"	521.136728637	518.569896863	1.5	0.1
0.01	1	0.00225179299999922	1	51	NA	47.505147571	0	0.37	0.57	1	38.362290082	38.364541875	"4"	521.136728637	518.569896863	1.5	0.1
0.01	1	0.00229446199998051	1	51	NA	47.505147571	0	0.37	0.57	1	38.595896076	38.598190538	"4"	521.136728637	518.569896863	1.5	0.1
0.01	1	0.0022498279999752	1	51	NA	47.505147571	0	0.37	0.57	1	38.829689935	38.831939763	"4"	521.136728637	518.569896863	1.5	0.1
0.01	1	0.0021401360000084	1	51	NA	47.505147571	0	0.37	0.57	1	39.063425105	39.065565241	"4"	521.136728637	518.569896863	1.5	0.1
0.01	1	0.00339215799999693	1	51	NA	47.505147571	0	0.37	0.57	1	39.297194123	39.300586281	"4"	521.136728637	518.569896863	1.5	0.1
0.01	1	0.00330581200000779	1	51	NA	47.505147571	0	0.37	0.57	1	39.530833751	39.534139563	"4"	521.136728637	518.569896863	1.5	0.1
0.01	1	0.00459553900000742	1	51	NA	47.505147571	0	0.37	0.57	1	39.764592449	39.769187988	"4"	521.136728637	518.569896863	1.5	0.1
0.01	1	0.0039195280000115	1	51	NA	47.505147571	0	0.37	0.57	1	39.998402553	40.002322081	"4"	521.136728637	518.569896863	1.5	0.1
0.01	1	0.00336622200001102	1	51	NA	47.505147571	0	0.37	0.57	1	40.232144311	40.235510533	"4"	521.136728637	518.569896863	1.5	0.1
0.01	1	0.00363822499997468	1	51	NA	47.505147571	0	0.37	0.57	1	40.465806568	40.469444793	"4"	521.136728637	518.569896863	1.5	0.1
0.01	1	0.00332361400000991	1	51	NA	47.505147571	0	0.37	0.57	1	40.699559079	40.702882693	"4"	521.136728637	518.569896863	1.5	0.1
0.01	1	0.00214450800001487	1	51	NA	47.505147571	0	0.37	0.57	1	40.933233233	40.935377741	"4"	521.136728637	518.569896863	1.5	0.1
0.01	1	0.00391634500002169	1	51	NA	47.505147571	0	0.37	0.57	1	41.166980238	41.170896583	"4"	521.136728637	518.569896863	1.5	0.1
0.01	1	0.0034502620000012	1	51	NA	47.505147571	0	0.37	0.57	1	41.400675145	41.404125407	"4"	521.136728637	518.569896863	1.5	0.1
0.01	1	0.00317262999999457	1	51	NA	47.505147571	0	0.37	0.57	1	41.634463719	41.637636349	"4"	521.136728637	518.569896863	1.5	0.1
0.01	1	0.00226055400000291	1	51	NA	47.505147571	0	0.37	0.57	1	41.868147759	41.870408313	"4"	521.136728637	518.569896863	1.5	0.1
0.01	1	0.00221417800000268	1	51	NA	47.505147571	0	0.37	0.57	1	42.101864925	42.104079103	"4"	521.136728637	518.569896863	1.5	0.1
0.01	1	0.00224862100000678	1	51	NA	47.505147571	0	0.37	0.57	1	42.335610641	42.337859262	"4"	521.136728637	518.569896863	1.5	0.1
0.01	1	0.00336283999999409	1	51	NA	47.505147571	0	0.37	0.57	1	42.569334787	42.572697627	"4"	521.136728637	518.569896863	1.5	0.1
0.01	1	0.00322466000000077	1	51	NA	47.505147571	0	0.37	0.57	1	42.803082199	42.806306859	"4"	521.136728637	518.569896863	1.5	0.1
0.01	1	0.00335692999999537	1	51	NA	47.505147571	0	0.37	0.57	1	43.036850311	43.040207241	"4"	521.136728637	518.569896863	1.5	0.1
0.01	1	0.00215748400000848	1	51	NA	47.505147571	0	0.37	0.57	1	43.270532248	43.272689732	"4"	521.136728637	518.569896863	1.5	0.1
0.01	1	0.00335897000002205	1	51	NA	47.505147571	0	0.37	0.57	1	43.504200483	43.507559453	"4"	521.136728637	518.569896863	1.5	0.1
0.01	1	0.00343286600002557	1	51	NA	47.505147571	0	0.37	0.57	1	43.737982853	43.741415719	"4"	521.136728637	518.569896863	1.5	0.1
0.01	1	0.00289444099999514	1	51	NA	47.505147571	0	0.37	0.57	1	43.971669257	43.974563698	"4"	521.136728637	518.569896863	1.5	0.1
0.01	1	0.00338539800000603	1	51	NA	47.505147571	0	0.37	0.57	1	44.205442413	44.208827811	"4"	521.136728637	518.569896863	1.5	0.1
0.01	1	0.0022095150000041	1	51	NA	47.505147571	0	0.37	0.57	1	44.439177795	44.44138731	"4"	521.136728637	518.569896863	1.5	0.1
0.01	1	0.00221782100001633	1	51	NA	47.505147571	0	0.37	0.57	1	44.672893119	44.67511094	"4"	521.136728637	518.569896863	1.5	0.1
0.01	1	0.00339075799999478	1	51	NA	47.505147571	0	0.37	0.57	1	44.906521915	44.909912673	"4"	521.136728637	518.569896863	1.5	0.1
0.01	1	0.00302350199999069	1	51	NA	47.505147571	0	0.37	0.57	1	45.140325289	45.143348791	"4"	521.136728637	518.569896863	1.5	0.1
0.01	1	0.00345859999998765	1	51	NA	47.505147571	0	0.37	0.57	1	45.374069967	45.377528567	"4"	521.136728637	518.569896863	1.5	0.1
0.01	1	0.00269601799999464	1	51	NA	47.505147571	0	0.37	0.57	1	45.607702937	45.610398955	"4"	521.136728637	518.569896863	1.5	0.1
0.01	1	0.00336122199999522	1	51	NA	47.505147571	0	0.37	0.57	1	45.841462781	45.844824003	"4"	521.136728637	518.569896863	1.5	0.1
0.01	1	0.00339290999997388	1	51	NA	47.505147571	0	0.37	0.57	1	46.075159259	46.078552169	"4"	521.136728637	518.569896863	1.5	0.1
0.01	1	0.00334645800000999	1	51	NA	47.505147571	0	0.37	0.57	1	46.308987593	46.312334051	"4"	521.136728637	518.569896863	1.5	0.1
0.01	1	0.00394949799999722	1	51	NA	47.505147571	0	0.37	0.57	1	46.542707173	46.546656671	"4"	521.136728637	518.569896863	1.5	0.1
0.01	1	0.726980257000008	2	51	NA	47.505147571	0	0.37	0.57	1	46.776475438	47.503455695	"4"	521.136728637	518.569896863	1.5	0.1
0.01	1	0.019974469999994	1	116	NA	85.485904629	0	0.47	1.04	1	49.564510518	49.584484988	"5"	521.136728637	518.569896863	1.5	0.1
0.01	1	0.00401873600000613	1	116	NA	85.485904629	0	0.47	1.04	1	49.814897073	49.818915809	"5"	521.136728637	518.569896863	1.5	0.1
0.01	1	0.00364123599999289	1	116	NA	85.485904629	0	0.47	1.04	1	50.048615423	50.052256659	"5"	521.136728637	518.569896863	1.5	0.1
0.01	1	0.0024747399999967	1	116	NA	85.485904629	0	0.47	1.04	1	50.282279535	50.284754275	"5"	521.136728637	518.569896863	1.5	0.1
0.01	1	0.0021254130000159	1	116	NA	85.485904629	0	0.47	1.04	1	50.516062238	50.518187651	"5"	521.136728637	518.569896863	1.5	0.1
0.01	1	0.00348014399997965	1	116	NA	85.485904629	0	0.47	1.04	1	50.749760393	50.753240537	"5"	521.136728637	518.569896863	1.5	0.1
0.01	1	0.00431375899998443	1	116	NA	85.485904629	0	0.47	1.04	1	50.983443978	50.987757737	"5"	521.136728637	518.569896863	1.5	0.1
0.01	1	0.00385746500001005	1	116	NA	85.485904629	0	0.47	1.04	1	51.217278868	51.221136333	"5"	521.136728637	518.569896863	1.5	0.1
0.01	1	0.00301500000000487	1	116	NA	85.485904629	0	0.47	1.04	1	51.450944149	51.453959149	"5"	521.136728637	518.569896863	1.5	0.1
0.01	1	0.00233847900000228	1	116	NA	85.485904629	0	0.47	1.04	1	51.684736711	51.68707519	"5"	521.136728637	518.569896863	1.5	0.1
0.01	1	0.00390928500002019	1	116	NA	85.485904629	0	0.47	1.04	1	51.91829222	51.922201505	"5"	521.136728637	518.569896863	1.5	0.1
0.01	1	0.00458359000000996	1	116	NA	85.485904629	0	0.47	1.04	1	52.152167363	52.156750953	"5"	521.136728637	518.569896863	1.5	0.1
0.01	1	0.00394085299998892	1	116	NA	85.485904629	0	0.47	1.04	1	52.38591022	52.389851073	"5"	521.136728637	518.569896863	1.5	0.1
0.01	1	0.00271679499999777	1	116	NA	85.485904629	0	0.47	1.04	1	52.619575353	52.622292148	"5"	521.136728637	518.569896863	1.5	0.1
0.01	1	0.00211050900000487	1	116	NA	85.485904629	0	0.47	1.04	1	52.85329392	52.855404429	"5"	521.136728637	518.569896863	1.5	0.1
0.01	1	0.00237978299998076	1	116	NA	85.485904629	0	0.47	1.04	1	53.087107	53.089486783	"5"	521.136728637	518.569896863	1.5	0.1
0.01	1	0.00464114000001814	1	116	NA	85.485904629	0	0.47	1.04	1	53.320846248	53.325487388	"5"	521.136728637	518.569896863	1.5	0.1
0.01	1	0.00394325199999912	1	116	NA	85.485904629	0	0.47	1.04	1	53.554526243	53.558469495	"5"	521.136728637	518.569896863	1.5	0.1
0.01	1	0.0021293369999853	1	116	NA	85.485904629	0	0.47	1.04	1	53.78819152	53.790320857	"5"	521.136728637	518.569896863	1.5	0.1
0.01	1	0.00224407499999302	1	116	NA	85.485904629	0	0.47	1.04	1	54.021953858	54.024197933	"5"	521.136728637	518.569896863	1.5	0.1
0.01	1	0.00439570699998626	1	116	NA	85.485904629	0	0.47	1.04	1	54.255692248	54.260087955	"5"	521.136728637	518.569896863	1.5	0.1
0.01	1	0.00391503700001294	1	116	NA	85.485904629	0	0.47	1.04	1	54.48932616	54.493241197	"5"	521.136728637	518.569896863	1.5	0.1
0.01	1	0.00230312800002253	1	116	NA	85.485904629	0	0.47	1.04	1	54.723144536	54.725447664	"5"	521.136728637	518.569896863	1.5	0.1
0.01	1	0.00228125200001728	1	116	NA	85.485904629	0	0.47	1.04	1	54.956729351	54.959010603	"5"	521.136728637	518.569896863	1.5	0.1
0.01	1	0.00222735400001284	1	116	NA	85.485904629	0	0.47	1.04	1	55.190538375	55.192765729	"5"	521.136728637	518.569896863	1.5	0.1
0.01	1	0.00212652799999091	1	116	NA	85.485904629	0	0.47	1.04	1	55.42433279	55.426459318	"5"	521.136728637	518.569896863	1.5	0.1
0.01	1	0.00211828299998729	1	116	NA	85.485904629	0	0.47	1.04	1	55.658056679	55.660174962	"5"	521.136728637	518.569896863	1.5	0.1
0.01	1	0.00229259200000342	1	116	NA	85.485904629	0	0.47	1.04	1	55.891756057	55.894048649	"5"	521.136728637	518.569896863	1.5	0.1
0.01	1	0.457172676000027	1	116	NA	85.485904629	0	0.47	1.04	1	56.12541081	56.582583486	"5"	521.136728637	518.569896863	1.5	0.1
0.01	1	0.0928383300000064	1	116	NA	85.485904629	0	0.47	1.04	1	56.809918016	56.902756346	"5"	521.136728637	518.569896863	1.5	0.1
0.01	1	0.00226405000000796	1	116	NA	85.485904629	0	0.47	1.04	1	57.127095829	57.129359879	"5"	521.136728637	518.569896863	1.5	0.1
0.01	1	0.0304515920000199	1	116	NA	85.485904629	0	0.47	1.04	1	57.360774813	57.391226405	"5"	521.136728637	518.569896863	1.5	0.1
0.01	1	1.25943357	1	116	NA	85.485904629	0	0.47	1.04	1	57.627973728	58.887407298	"5"	521.136728637	518.569896863	1.5	0.1
0.01	1	18.058212461	1	116	NA	85.485904629	0	0.47	1.04	1	59.113756798	77.171969259	"5"	521.136728637	518.569896863	1.5	0.1
0.01	1	0.00391219700003376	1	116	NA	85.485904629	0	0.47	1.04	1	77.411250528	77.415162725	"5"	521.136728637	518.569896863	1.5	0.1
0.01	1	0.00337475200001336	1	116	NA	85.485904629	0	0.47	1.04	1	77.645048127	77.648422879	"5"	521.136728637	518.569896863	1.5	0.1
0.01	1	0.00323983200001976	1	116	NA	85.485904629	0	0.47	1.04	1	77.878677711	77.881917543	"5"	521.136728637	518.569896863	1.5	0.1
0.01	1	0.435174306000022	1	116	NA	85.485904629	0	0.47	1.04	1	78.11244423	78.547618536	"5"	521.136728637	518.569896863	1.5	0.1
0.01	1	0.00222420500000453	1	116	NA	85.485904629	0	0.47	1.04	1	78.780234437	78.782458642	"5"	521.136728637	518.569896863	1.5	0.1
0.01	1	0.00220345299999281	1	116	NA	85.485904629	0	0.47	1.04	1	79.014028328	79.016231781	"5"	521.136728637	518.569896863	1.5	0.1
0.01	1	0.021203542999956	1	116	NA	85.485904629	0	0.47	1.04	1	79.247688863	79.268892406	"5"	521.136728637	518.569896863	1.5	0.1
0.01	1	0.00326869200000601	1	116	NA	85.485904629	0	0.47	1.04	1	79.498056659	79.501325351	"5"	521.136728637	518.569896863	1.5	0.1
0.01	1	1.65558539399996	1	116	NA	85.485904629	0	0.47	1.04	1	79.731799093	81.387384487	"5"	521.136728637	518.569896863	1.5	0.1
0.01	1	0.473226672999999	1	116	NA	85.485904629	0	0.47	1.04	1	81.61844806	82.091674733	"5"	521.136728637	518.569896863	1.5	0.1
0.01	1	0.796474703000001	1	116	NA	85.485904629	0	0.47	1.04	1	82.319496021	83.115970724	"5"	521.136728637	518.569896863	1.5	0.1
0.01	1	0.658236921999958	1	116	NA	85.485904629	0	0.47	1.04	1	83.338025753	83.996262675	"5"	521.136728637	518.569896863	1.5	0.1
0.01	1	0.438063443000033	1	116	NA	85.485904629	0	0.47	1.04	1	84.222709853	84.660773296	"5"	521.136728637	518.569896863	1.5	0.1
0.01	1	0.593760887999963	2	116	NA	85.485904629	0	0.47	1.04	1	84.890497368	85.484258256	"5"	521.136728637	518.569896863	1.5	0.1
0.01	1	0.410359105999987	1	118	NA	103.166518097	0	0.46	1.5	1	87.545029565	87.955388671	"6"	521.136728637	518.569896863	1.5	0.1
0.01	1	0.00397047900003145	1	118	NA	103.166518097	0	0.46	1.5	1	88.17932841	88.183298889	"6"	521.136728637	518.569896863	1.5	0.1
0.01	1	0.03980434500005	1	118	NA	103.166518097	0	0.46	1.5	1	88.413099416	88.452903761	"6"	521.136728637	518.569896863	1.5	0.1
0.01	1	0.0283213340000543	1	118	NA	103.166518097	0	0.46	1.5	1	88.680182568	88.708503902	"6"	521.136728637	518.569896863	1.5	0.1
0.01	1	0.0258477840000069	1	118	NA	103.166518097	0	0.46	1.5	1	88.930630079	88.956477863	"6"	521.136728637	518.569896863	1.5	0.1
0.01	1	0.00389509299998281	1	118	NA	103.166518097	0	0.46	1.5	1	89.181184518	89.185079611	"6"	521.136728637	518.569896863	1.5	0.1
0.01	1	0.42206324	1	118	NA	103.166518097	0	0.46	1.5	1	89.414784478	89.836847718	"6"	521.136728637	518.569896863	1.5	0.1
0.01	1	0.00214474500000961	1	118	NA	103.166518097	0	0.46	1.5	1	90.065888793	90.068033538	"6"	521.136728637	518.569896863	1.5	0.1
0.01	1	0.00342316800004028	1	118	NA	103.166518097	0	0.46	1.5	1	90.299554863	90.302978031	"6"	521.136728637	518.569896863	1.5	0.1
0.01	1	0.0022862810000106	1	118	NA	103.166518097	0	0.46	1.5	1	90.533306105	90.535592386	"6"	521.136728637	518.569896863	1.5	0.1
0.01	1	0.00326740599996356	1	118	NA	103.166518097	0	0.46	1.5	1	90.766974365	90.770241771	"6"	521.136728637	518.569896863	1.5	0.1
0.01	1	0.00402972699998827	1	118	NA	103.166518097	0	0.46	1.5	1	91.00073591	91.004765637	"6"	521.136728637	518.569896863	1.5	0.1
0.01	1	0.00398819500003356	1	118	NA	103.166518097	0	0.46	1.5	1	91.234541528	91.238529723	"6"	521.136728637	518.569896863	1.5	0.1
0.01	1	0.00394783899997719	1	118	NA	103.166518097	0	0.46	1.5	1	91.46829771	91.472245549	"6"	521.136728637	518.569896863	1.5	0.1
0.01	1	0.00329107599998224	1	118	NA	103.166518097	0	0.46	1.5	1	91.702011433	91.705302509	"6"	521.136728637	518.569896863	1.5	0.1
0.01	1	0.00374432099999922	1	118	NA	103.166518097	0	0.46	1.5	1	91.93569707	91.939441391	"6"	521.136728637	518.569896863	1.5	0.1
0.01	1	0.00365869300003396	1	118	NA	103.166518097	0	0.46	1.5	1	92.169432688	92.173091381	"6"	521.136728637	518.569896863	1.5	0.1
0.01	1	0.00211155400000962	1	118	NA	103.166518097	0	0.46	1.5	1	92.403250878	92.405362432	"6"	521.136728637	518.569896863	1.5	0.1
0.01	1	0.00262808999997333	1	118	NA	103.166518097	0	0.46	1.5	1	92.636935301	92.639563391	"6"	521.136728637	518.569896863	1.5	0.1
0.01	1	0.00216789799998196	1	118	NA	103.166518097	0	0.46	1.5	1	92.87063359	92.872801488	"6"	521.136728637	518.569896863	1.5	0.1
0.01	1	0.00351643599998397	1	118	NA	103.166518097	0	0.46	1.5	1	93.104370355	93.107886791	"6"	521.136728637	518.569896863	1.5	0.1
0.01	1	0.0040902250000272	1	118	NA	103.166518097	0	0.46	1.5	1	93.338036318	93.342126543	"6"	521.136728637	518.569896863	1.5	0.1
0.01	1	0.943346113000018	1	118	NA	103.166518097	0	0.46	1.5	1	93.571788289	94.515134402	"6"	521.136728637	518.569896863	1.5	0.1
0.01	1	0.00213770700003124	1	118	NA	103.166518097	0	0.46	1.5	1	94.740469101	94.742606808	"6"	521.136728637	518.569896863	1.5	0.1
0.01	1	0.00376661500001774	1	118	NA	103.166518097	0	0.46	1.5	1	94.97420235	94.977968965	"6"	521.136728637	518.569896863	1.5	0.1
0.01	1	0.00214802899995448	1	118	NA	103.166518097	0	0.46	1.5	1	95.20790375	95.210051779	"6"	521.136728637	518.569896863	1.5	0.1
0.01	1	0.00212380499999654	1	118	NA	103.166518097	0	0.46	1.5	1	95.441596755	95.44372056	"6"	521.136728637	518.569896863	1.5	0.1
0.01	1	0.00360521900000776	1	118	NA	103.166518097	0	0.46	1.5	1	95.67539358	95.678998799	"6"	521.136728637	518.569896863	1.5	0.1
0.01	1	0.00336725800002569	1	118	NA	103.166518097	0	0.46	1.5	1	95.909048285	95.912415543	"6"	521.136728637	518.569896863	1.5	0.1
0.01	1	0.49412987200003	1	118	NA	103.166518097	0	0.46	1.5	1	96.142633861	96.636763733	"6"	521.136728637	518.569896863	1.5	0.1
0.01	1	0.00344809799997847	1	118	NA	103.166518097	0	0.46	1.5	1	96.860710185	96.864158283	"6"	521.136728637	518.569896863	1.5	0.1
0.01	1	0.00316123599998264	1	118	NA	103.166518097	0	0.46	1.5	1	97.094434433	97.097595669	"6"	521.136728637	518.569896863	1.5	0.1
0.01	1	0.00347905600000331	1	118	NA	103.166518097	0	0.46	1.5	1	97.328041423	97.331520479	"6"	521.136728637	518.569896863	1.5	0.1
0.01	1	0.00336211800004094	1	118	NA	103.166518097	0	0.46	1.5	1	97.561822783	97.565184901	"6"	521.136728637	518.569896863	1.5	0.1
0.01	1	0.69581765199996	1	118	NA	103.166518097	0	0.46	1.5	1	97.795614381	98.491432033	"6"	521.136728637	518.569896863	1.5	0.1
0.01	1	0.00386245800001461	1	118	NA	103.166518097	0	0.46	1.5	1	98.713811863	98.717674321	"6"	521.136728637	518.569896863	1.5	0.1
0.01	1	0.00216726799999378	1	118	NA	103.166518097	0	0.46	1.5	1	98.947544813	98.949712081	"6"	521.136728637	518.569896863	1.5	0.1
0.01	1	0.00209083700002566	1	118	NA	103.166518097	0	0.46	1.5	1	99.181232629	99.183323466	"6"	521.136728637	518.569896863	1.5	0.1
0.01	1	0.00346231200001057	1	118	NA	103.166518097	0	0.46	1.5	1	99.414951341	99.418413653	"6"	521.136728637	518.569896863	1.5	0.1
0.01	1	0.531720228999973	1	118	NA	103.166518097	0	0.46	1.5	1	99.648589088	100.180309317	"6"	521.136728637	518.569896863	1.5	0.1
0.01	1	0.00221097999997255	1	118	NA	103.166518097	0	0.46	1.5	1	100.416605542	100.418816522	"6"	521.136728637	518.569896863	1.5	0.1
0.01	1	0.00341324199996507	1	118	NA	103.166518097	0	0.46	1.5	1	100.650338433	100.653751675	"6"	521.136728637	518.569896863	1.5	0.1
0.01	1	0.352839140000015	1	118	NA	103.166518097	0	0.46	1.5	1	100.884136418	101.236975558	"6"	521.136728637	518.569896863	1.5	0.1
0.01	1	0.0241981519999968	1	118	NA	103.166518097	0	0.46	1.5	1	101.46842769	101.492625842	"6"	521.136728637	518.569896863	1.5	0.1
0.01	1	0.00353898500003424	1	118	NA	103.166518097	0	0.46	1.5	1	101.718824468	101.722363453	"6"	521.136728637	518.569896863	1.5	0.1
0.01	1	0.651376408000033	1	118	NA	103.166518097	0	0.46	1.5	1	101.952681233	102.604057641	"6"	521.136728637	518.569896863	1.5	0.1
0.01	1	0.327513052000029	2	118	NA	103.166518097	0	0.46	1.5	1	102.837385666	103.164898718	"6"	521.136728637	518.569896863	1.5	0.1
0.01	1	0.236566213000003	1	87	NA	110.308869037	0	0.2	1.7	1	105.208120218	105.444686431	"7"	521.136728637	518.569896863	1.5	0.1
0.01	1	0.00373195999998188	1	87	NA	110.308869037	0	0.2	1.7	1	105.675598863	105.679330823	"7"	521.136728637	518.569896863	1.5	0.1
0.01	1	0.00443779500000119	1	87	NA	110.308869037	0	0.2	1.7	1	105.909156043	105.913593838	"7"	521.136728637	518.569896863	1.5	0.1
0.01	1	0.00349947000000839	1	87	NA	110.308869037	0	0.2	1.7	1	106.142963093	106.146462563	"7"	521.136728637	518.569896863	1.5	0.1
0.01	1	0.00382841699996561	1	87	NA	110.308869037	0	0.2	1.7	1	106.376706258	106.380534675	"7"	521.136728637	518.569896863	1.5	0.1
0.01	1	0.00463465500001803	1	87	NA	110.308869037	0	0.2	1.7	1	106.610349063	106.614983718	"7"	521.136728637	518.569896863	1.5	0.1
0.01	1	0.0044374640000342	1	87	NA	110.308869037	0	0.2	1.7	1	106.844143736	106.8485812	"7"	521.136728637	518.569896863	1.5	0.1
0.01	1	0.00333219600003076	1	87	NA	110.308869037	0	0.2	1.7	1	107.077823511	107.081155707	"7"	521.136728637	518.569896863	1.5	0.1
0.01	1	0.00329016599999932	1	87	NA	110.308869037	0	0.2	1.7	1	107.311492743	107.314782909	"7"	521.136728637	518.569896863	1.5	0.1
0.01	1	0.00374464899999793	1	87	NA	110.308869037	0	0.2	1.7	1	107.545273528	107.549018177	"7"	521.136728637	518.569896863	1.5	0.1
0.01	1	0.00400969400004669	1	87	NA	110.308869037	0	0.2	1.7	1	107.778934083	107.782943777	"7"	521.136728637	518.569896863	1.5	0.1
0.01	1	0.00402086100001497	1	87	NA	110.308869037	0	0.2	1.7	1	108.01269467	108.016715531	"7"	521.136728637	518.569896863	1.5	0.1
0.01	1	0.00401207700002715	1	87	NA	110.308869037	0	0.2	1.7	1	108.246479688	108.250491765	"7"	521.136728637	518.569896863	1.5	0.1
0.01	1	0.00320823000004111	1	87	NA	110.308869037	0	0.2	1.7	1	108.480318783	108.483527013	"7"	521.136728637	518.569896863	1.5	0.1
0.01	1	0.00385947099999839	1	87	NA	110.308869037	0	0.2	1.7	1	108.71391357	108.717773041	"7"	521.136728637	518.569896863	1.5	0.1
0.01	1	0.00404265100002021	1	87	NA	110.308869037	0	0.2	1.7	1	108.947627298	108.951669949	"7"	521.136728637	518.569896863	1.5	0.1
0.01	1	0.00235218699998541	1	87	NA	110.308869037	0	0.2	1.7	1	109.181328758	109.183680945	"7"	521.136728637	518.569896863	1.5	0.1
0.01	1	0.00238883600002282	1	87	NA	110.308869037	0	0.2	1.7	1	109.414980862	109.417369698	"7"	521.136728637	518.569896863	1.5	0.1
0.01	1	0.00498037500000237	1	87	NA	110.308869037	0	0.2	1.7	1	109.648883723	109.653864098	"7"	521.136728637	518.569896863	1.5	0.1
0.01	1	0.00385579699997152	1	87	NA	110.308869037	0	0.2	1.7	1	109.882491158	109.886346955	"7"	521.136728637	518.569896863	1.5	0.1
0.01	1	0.191157413999974	2	87	NA	110.308869037	0	0.2	1.7	1	110.116200133	110.307357547	"7"	521.136728637	518.569896863	1.5	0.1
0.01	1	0.339276880999989	1	6	113.975848995	NA	1	0	1.7	1	112.353334057	112.692610938	"8"	521.136728637	518.569896863	1.5	0.1
0.01	1	0.00381203500000993	1	6	113.975848995	NA	1	0	1.7	1	112.921007218	112.924819253	"8"	521.136728637	518.569896863	1.5	0.1
0.01	1	0.00407788899997286	1	6	113.975848995	NA	1	0	1.7	1	113.15474881	113.158826699	"8"	521.136728637	518.569896863	1.5	0.1
0.01	1	0.00217460900000788	1	6	113.975848995	NA	1	0	1.7	1	113.388349226	113.390523835	"8"	521.136728637	518.569896863	1.5	0.1
0.01	1	0.00210479899999427	1	6	113.975848995	NA	1	0	1.7	1	113.622233808	113.624338607	"8"	521.136728637	518.569896863	1.5	0.1
0.01	1	0.00403353699999798	1	6	113.975848995	NA	1	0	1.7	1	113.855880248	113.859913785	"8"	521.136728637	518.569896863	1.5	0.1
0.01	1	0.106648802000052	1	106	NA	135.037555587	0	0.55	2.25	1	116.00949164	116.116140442	"9"	521.136728637	518.569896863	1.5	0.1
0.01	1	0.00221925700003567	1	106	NA	135.037555587	0	0.55	2.25	1	116.34339127	116.345610527	"9"	521.136728637	518.569896863	1.5	0.1
0.01	1	0.00398469700002124	1	106	NA	135.037555587	0	0.55	2.25	1	116.577127988	116.581112685	"9"	521.136728637	518.569896863	1.5	0.1
0.01	1	0.00324336200003472	1	106	NA	135.037555587	0	0.55	2.25	1	116.810930179	116.814173541	"9"	521.136728637	518.569896863	1.5	0.1
0.01	1	0.00393294400004152	1	106	NA	135.037555587	0	0.55	2.25	1	117.044701823	117.048634767	"9"	521.136728637	518.569896863	1.5	0.1
0.01	1	0.0044377869999721	1	106	NA	135.037555587	0	0.55	2.25	1	117.278369166	117.282806953	"9"	521.136728637	518.569896863	1.5	0.1
0.01	1	0.00409745899997915	1	106	NA	135.037555587	0	0.55	2.25	1	117.51201937	117.516116829	"9"	521.136728637	518.569896863	1.5	0.1
0.01	1	0.00416682000002311	1	106	NA	135.037555587	0	0.55	2.25	1	117.745757703	117.749924523	"9"	521.136728637	518.569896863	1.5	0.1
0.01	1	0.0038105900000005	1	106	NA	135.037555587	0	0.55	2.25	1	117.979478265	117.983288855	"9"	521.136728637	518.569896863	1.5	0.1
0.01	1	0.00240584900001295	1	106	NA	135.037555587	0	0.55	2.25	1	118.213161713	118.215567562	"9"	521.136728637	518.569896863	1.5	0.1
0.01	1	0.00342899800000396	1	106	NA	135.037555587	0	0.55	2.25	1	118.446980431	118.450409429	"9"	521.136728637	518.569896863	1.5	0.1
0.01	1	0.00327405799998814	1	106	NA	135.037555587	0	0.55	2.25	1	118.680657327	118.683931385	"9"	521.136728637	518.569896863	1.5	0.1
0.01	1	0.00219742600000927	1	106	NA	135.037555587	0	0.55	2.25	1	118.914310055	118.916507481	"9"	521.136728637	518.569896863	1.5	0.1
0.01	1	0.00219559900000377	1	106	NA	135.037555587	0	0.55	2.25	1	119.148127703	119.150323302	"9"	521.136728637	518.569896863	1.5	0.1
0.01	1	0.00375367899999901	1	106	NA	135.037555587	0	0.55	2.25	1	119.38193765	119.385691329	"9"	521.136728637	518.569896863	1.5	0.1
0.01	1	0.00231943500000398	1	106	NA	135.037555587	0	0.55	2.25	1	119.61553733	119.617856765	"9"	521.136728637	518.569896863	1.5	0.1
0.01	1	0.00220123500002956	1	106	NA	135.037555587	0	0.55	2.25	1	119.849226953	119.851428188	"9"	521.136728637	518.569896863	1.5	0.1
0.01	1	0.00219948799997383	1	106	NA	135.037555587	0	0.55	2.25	1	120.083020369	120.085219857	"9"	521.136728637	518.569896863	1.5	0.1
0.01	1	0.00219622800000252	1	106	NA	135.037555587	0	0.55	2.25	1	120.316779678	120.318975906	"9"	521.136728637	518.569896863	1.5	0.1
0.01	1	0.002282082000022	1	106	NA	135.037555587	0	0.55	2.25	1	120.550381933	120.552664015	"9"	521.136728637	518.569896863	1.5	0.1
0.01	1	0.00242993199998409	1	106	NA	135.037555587	0	0.55	2.25	1	120.784241336	120.786671268	"9"	521.136728637	518.569896863	1.5	0.1
0.01	1	0.00220281600002181	1	106	NA	135.037555587	0	0.55	2.25	1	121.017859028	121.020061844	"9"	521.136728637	518.569896863	1.5	0.1
0.01	1	0.0022908689999781	1	106	NA	135.037555587	0	0.55	2.25	1	121.251639947	121.253930816	"9"	521.136728637	518.569896863	1.5	0.1
0.01	1	0.00225061499997992	1	106	NA	135.037555587	0	0.55	2.25	1	121.485366844	121.487617459	"9"	521.136728637	518.569896863	1.5	0.1
0.01	1	0.00235429100001738	1	106	NA	135.037555587	0	0.55	2.25	1	121.719122763	121.721477054	"9"	521.136728637	518.569896863	1.5	0.1
0.01	1	0.00220601399996667	1	106	NA	135.037555587	0	0.55	2.25	1	121.95286797	121.955073984	"9"	521.136728637	518.569896863	1.5	0.1
0.01	1	0.00367012099997055	1	106	NA	135.037555587	0	0.55	2.25	1	122.186702308	122.190372429	"9"	521.136728637	518.569896863	1.5	0.1
0.01	1	0.00269420199998649	1	106	NA	135.037555587	0	0.55	2.25	1	122.420308669	122.423002871	"9"	521.136728637	518.569896863	1.5	0.1
0.01	1	0.00334896999999046	1	106	NA	135.037555587	0	0.55	2.25	1	122.654057793	122.657406763	"9"	521.136728637	518.569896863	1.5	0.1
0.01	1	0.0024425589999737	1	106	NA	135.037555587	0	0.55	2.25	1	122.887672231	122.89011479	"9"	521.136728637	518.569896863	1.5	0.1
0.01	1	0.00232872800000905	1	106	NA	135.037555587	0	0.55	2.25	1	123.121424155	123.123752883	"9"	521.136728637	518.569896863	1.5	0.1
0.01	1	0.00237774600003604	1	106	NA	135.037555587	0	0.55	2.25	1	123.355261754	123.3576395	"9"	521.136728637	518.569896863	1.5	0.1
0.01	1	0.00208995200000572	1	106	NA	135.037555587	0	0.55	2.25	1	123.588932628	123.59102258	"9"	521.136728637	518.569896863	1.5	0.1
0.01	1	0.00213879399996131	1	106	NA	135.037555587	0	0.55	2.25	1	123.822569137	123.824707931	"9"	521.136728637	518.569896863	1.5	0.1
0.01	1	0.388076499000022	1	106	NA	135.037555587	0	0.55	2.25	1	124.056303229	124.444379728	"9"	521.136728637	518.569896863	1.5	0.1
0.01	1	0.0042464840000207	1	106	NA	135.037555587	0	0.55	2.25	1	124.674062953	124.678309437	"9"	521.136728637	518.569896863	1.5	0.1
0.01	1	0.00360639099994842	1	106	NA	135.037555587	0	0.55	2.25	1	124.907869918	124.911476309	"9"	521.136728637	518.569896863	1.5	0.1
0.01	1	0.00331631400001697	1	106	NA	135.037555587	0	0.55	2.25	1	125.141611573	125.144927887	"9"	521.136728637	518.569896863	1.5	0.1
0.01	1	0.00324457800002165	1	106	NA	135.037555587	0	0.55	2.25	1	125.375232563	125.378477141	"9"	521.136728637	518.569896863	1.5	0.1
0.01	1	0.00210251799995831	1	106	NA	135.037555587	0	0.55	2.25	1	125.608917103	125.611019621	"9"	521.136728637	518.569896863	1.5	0.1
0.01	1	0.00477751699997953	1	106	NA	135.037555587	0	0.55	2.25	1	125.842815418	125.847592935	"9"	521.136728637	518.569896863	1.5	0.1
0.01	1	0.0038889070000323	1	106	NA	135.037555587	0	0.55	2.25	1	126.07656472	126.080453627	"9"	521.136728637	518.569896863	1.5	0.1
0.01	1	0.00484857700001839	1	106	NA	135.037555587	0	0.55	2.25	1	126.310185098	126.315033675	"9"	521.136728637	518.569896863	1.5	0.1
0.01	1	0.00357167599997865	1	106	NA	135.037555587	0	0.55	2.25	1	126.543945553	126.547517229	"9"	521.136728637	518.569896863	1.5	0.1
0.01	1	0.00410848199999236	1	106	NA	135.037555587	0	0.55	2.25	1	126.777737155	126.781845637	"9"	521.136728637	518.569896863	1.5	0.1
0.01	1	0.44836890900001	1	106	NA	135.037555587	0	0.55	2.25	1	127.011239563	127.459608472	"9"	521.136728637	518.569896863	1.5	0.1
0.01	1	0.00207537400001456	1	106	NA	135.037555587	0	0.55	2.25	1	127.695847381	127.697922755	"9"	521.136728637	518.569896863	1.5	0.1
0.01	1	0.00371624000001702	1	106	NA	135.037555587	0	0.55	2.25	1	127.929665593	127.933381833	"9"	521.136728637	518.569896863	1.5	0.1
0.01	1	0.29687542299996	1	106	NA	135.037555587	0	0.55	2.25	1	128.16336967	128.460245093	"9"	521.136728637	518.569896863	1.5	0.1
0.01	1	0.00987571999996817	1	106	NA	135.037555587	0	0.55	2.25	1	128.697585521	128.707461241	"9"	521.136728637	518.569896863	1.5	0.1
0.01	1	0.00259416400001555	1	106	NA	135.037555587	0	0.55	2.25	1	128.931259119	128.933853283	"9"	521.136728637	518.569896863	1.5	0.1
0.01	1	0.447706150999977	1	106	NA	135.037555587	0	0.55	2.25	1	129.165043788	129.612749939	"9"	521.136728637	518.569896863	1.5	0.1
0.01	1	0.978515902000026	1	106	NA	135.037555587	0	0.55	2.25	1	129.849458699	130.827974601	"9"	521.136728637	518.569896863	1.5	0.1
0.01	1	2.29701517800004	1	106	NA	135.037555587	0	0.55	2.25	1	131.051564077	133.348579255	"9"	521.136728637	518.569896863	1.5	0.1
0.01	1	0.942738211999995	1	106	NA	135.037555587	0	0.55	2.25	1	133.589102478	134.53184069	"9"	521.136728637	518.569896863	1.5	0.1
0.01	1	0.278265422000004	2	106	NA	135.037555587	0	0.55	2.25	1	134.757764288	135.03602971	"9"	521.136728637	518.569896863	1.5	0.1
0.01	1	0.332963223000036	1	21	142.204811519	NA	1	0	2.25	1	137.078289195	137.411252418	"10"	521.136728637	518.569896863	1.5	0.1
0.01	1	0.00213791600003788	1	21	142.204811519	NA	1	0	2.25	1	137.645856721	137.647994637	"10"	521.136728637	518.569896863	1.5	0.1
0.01	1	0.00225271799996563	1	21	142.204811519	NA	1	0	2.25	1	137.879616973	137.881869691	"10"	521.136728637	518.569896863	1.5	0.1
0.01	1	0.00217600199999879	1	21	142.204811519	NA	1	0	2.25	1	138.113357827	138.115533829	"10"	521.136728637	518.569896863	1.5	0.1
0.01	1	0.00227210399998512	1	21	142.204811519	NA	1	0	2.25	1	138.346989071	138.349261175	"10"	521.136728637	518.569896863	1.5	0.1
0.01	1	0.00223483999997143	1	21	142.204811519	NA	1	0	2.25	1	138.580791401	138.583026241	"10"	521.136728637	518.569896863	1.5	0.1
0.01	1	0.00438505699997904	1	21	142.204811519	NA	1	0	2.25	1	138.814662853	138.81904791	"10"	521.136728637	518.569896863	1.5	0.1
0.01	1	0.00233155500001203	1	21	142.204811519	NA	1	0	2.25	1	139.048221868	139.050553423	"10"	521.136728637	518.569896863	1.5	0.1
0.01	1	0.00211080299999367	1	21	142.204811519	NA	1	0	2.25	1	139.282060075	139.284170878	"10"	521.136728637	518.569896863	1.5	0.1
0.01	1	0.00471965499997395	1	21	142.204811519	NA	1	0	2.25	1	139.515856008	139.520575663	"10"	521.136728637	518.569896863	1.5	0.1
0.01	1	0.00403789999995752	1	21	142.204811519	NA	1	0	2.25	1	139.749466443	139.753504343	"10"	521.136728637	518.569896863	1.5	0.1
0.01	1	0.00206406400002379	1	21	142.204811519	NA	1	0	2.25	1	139.983094527	139.985158591	"10"	521.136728637	518.569896863	1.5	0.1
0.01	1	0.00206406899997091	1	21	142.204811519	NA	1	0	2.25	1	140.216766758	140.218830827	"10"	521.136728637	518.569896863	1.5	0.1
0.01	1	0.00208218500000612	1	21	142.204811519	NA	1	0	2.25	1	140.450710737	140.452792922	"10"	521.136728637	518.569896863	1.5	0.1
0.01	1	0.0022434250000174	1	21	142.204811519	NA	1	0	2.25	1	140.684341299	140.686584724	"10"	521.136728637	518.569896863	1.5	0.1
0.01	1	0.00243143800003054	1	21	142.204811519	NA	1	0	2.25	1	140.918052711	140.920484149	"10"	521.136728637	518.569896863	1.5	0.1
0.01	1	0.0020988900000134	1	21	142.204811519	NA	1	0	2.25	1	141.151868643	141.153967533	"10"	521.136728637	518.569896863	1.5	0.1
0.01	1	0.00236966600004962	1	21	142.204811519	NA	1	0	2.25	1	141.385486241	141.387855907	"10"	521.136728637	518.569896863	1.5	0.1
0.01	1	0.00216811000001371	1	21	142.204811519	NA	1	0	2.25	1	141.619364058	141.621532168	"10"	521.136728637	518.569896863	1.5	0.1
0.01	1	0.00221608199996126	1	21	142.204811519	NA	1	0	2.25	1	141.852984972	141.855201054	"10"	521.136728637	518.569896863	1.5	0.1
0.01	1	0.00265730000000985	1	21	142.204811519	NA	1	0	2.25	1	142.086701609	142.089358909	"10"	521.136728637	518.569896863	1.5	0.1
0.01	1	0.00215099999996937	1	19	148.584042493	NA	1	0	2.25	1	144.257019387	144.259170387	"11"	521.136728637	518.569896863	1.5	0.1
0.01	1	0.00227108199999293	1	19	148.584042493	NA	1	0	2.25	1	144.490761906	144.493032988	"11"	521.136728637	518.569896863	1.5	0.1
0.01	1	0.00247998499997948	1	19	148.584042493	NA	1	0	2.25	1	144.724423305	144.72690329	"11"	521.136728637	518.569896863	1.5	0.1
0.01	1	0.00204459100001486	1	19	148.584042493	NA	1	0	2.25	1	144.958183881	144.960228472	"11"	521.136728637	518.569896863	1.5	0.1
0.01	1	0.00210110000000441	1	19	148.584042493	NA	1	0	2.25	1	145.191972642	145.194073742	"11"	521.136728637	518.569896863	1.5	0.1
0.01	1	0.00228805900002271	1	19	148.584042493	NA	1	0	2.25	1	145.42574427	145.428032329	"11"	521.136728637	518.569896863	1.5	0.1
0.01	1	0.00212124900002664	1	19	148.584042493	NA	1	0	2.25	1	145.659368361	145.66148961	"11"	521.136728637	518.569896863	1.5	0.1
0.01	1	0.00229658599999993	1	19	148.584042493	NA	1	0	2.25	1	145.893081522	145.895378108	"11"	521.136728637	518.569896863	1.5	0.1
0.01	1	0.00213608900003237	1	19	148.584042493	NA	1	0	2.25	1	146.126871051	146.12900714	"11"	521.136728637	518.569896863	1.5	0.1
0.01	1	0.00236000299997841	1	19	148.584042493	NA	1	0	2.25	1	146.360527677	146.36288768	"11"	521.136728637	518.569896863	1.5	0.1
0.01	1	0.00213423600001761	1	19	148.584042493	NA	1	0	2.25	1	146.594257493	146.596391729	"11"	521.136728637	518.569896863	1.5	0.1
0.01	1	0.00212530399994648	1	19	148.584042493	NA	1	0	2.25	1	146.827924643	146.830049947	"11"	521.136728637	518.569896863	1.5	0.1
0.01	1	0.00224815300003911	1	19	148.584042493	NA	1	0	2.25	1	147.061798799	147.064046952	"11"	521.136728637	518.569896863	1.5	0.1
0.01	1	0.00219308200001933	1	19	148.584042493	NA	1	0	2.25	1	147.295541497	147.297734579	"11"	521.136728637	518.569896863	1.5	0.1
0.01	1	0.00205822999998873	1	19	148.584042493	NA	1	0	2.25	1	147.529290743	147.531348973	"11"	521.136728637	518.569896863	1.5	0.1
0.01	1	0.00311009000000695	1	19	148.584042493	NA	1	0	2.25	1	147.762914137	147.766024227	"11"	521.136728637	518.569896863	1.5	0.1
0.01	1	0.00275456600002144	1	19	148.584042493	NA	1	0	2.25	1	147.996602379	147.999356945	"11"	521.136728637	518.569896863	1.5	0.1
0.01	1	0.00241354799999272	1	19	148.584042493	NA	1	0	2.25	1	148.230331601	148.232745149	"11"	521.136728637	518.569896863	1.5	0.1
0.01	1	0.00208101100002978	1	19	148.584042493	NA	1	0	2.25	1	148.46415575	148.466236761	"11"	521.136728637	518.569896863	1.5	0.1
0.01	1	0.00431246300001931	1	63	NA	152.558016144	0	0.08	2.33	1	150.61764042	150.621952883	"12"	521.136728637	518.569896863	1.5	0.1
0.01	1	0.00221685500002877	1	63	NA	152.558016144	0	0.08	2.33	1	150.851403733	150.853620588	"12"	521.136728637	518.569896863	1.5	0.1
0.01	1	0.00223715699996774	1	63	NA	152.558016144	0	0.08	2.33	1	151.085131805	151.087368962	"12"	521.136728637	518.569896863	1.5	0.1
0.01	1	0.0020965989999695	1	63	NA	152.558016144	0	0.08	2.33	1	151.318860007	151.320956606	"12"	521.136728637	518.569896863	1.5	0.1
0.01	1	0.00227125000003525	1	63	NA	152.558016144	0	0.08	2.33	1	151.552585865	151.554857115	"12"	521.136728637	518.569896863	1.5	0.1
0.01	1	0.0021042570000418	1	63	NA	152.558016144	0	0.08	2.33	1	151.786318836	151.788423093	"12"	521.136728637	518.569896863	1.5	0.1
0.01	1	0.0020708280000008	1	63	NA	152.558016144	0	0.08	2.33	1	152.020005081	152.022075909	"12"	521.136728637	518.569896863	1.5	0.1
0.01	1	0.00211760299998787	1	63	NA	152.558016144	0	0.08	2.33	1	152.253717299	152.255834902	"12"	521.136728637	518.569896863	1.5	0.1
0.01	1	0.068981621999967	2	63	NA	152.558016144	0	0.08	2.33	1	152.48750787	152.556489492	"12"	521.136728637	518.569896863	1.5	0.1
0.01	1	0.00214405899998837	1	54	NA	158.141915449	0	0.14	2.47	1	154.607644579	154.609788638	"13"	521.136728637	518.569896863	1.5	0.1
0.01	1	0.00210202399995296	1	54	NA	158.141915449	0	0.14	2.47	1	154.841444227	154.843546251	"13"	521.136728637	518.569896863	1.5	0.1
0.01	1	0.00207826199999772	1	54	NA	158.141915449	0	0.14	2.47	1	155.07516314	155.077241402	"13"	521.136728637	518.569896863	1.5	0.1
0.01	1	0.00228170000002592	1	54	NA	158.141915449	0	0.14	2.47	1	155.308891788	155.311173488	"13"	521.136728637	518.569896863	1.5	0.1
0.01	1	0.0021202100000437	1	54	NA	158.141915449	0	0.14	2.47	1	155.542587435	155.544707645	"13"	521.136728637	518.569896863	1.5	0.1
0.01	1	0.00210785000001579	1	54	NA	158.141915449	0	0.14	2.47	1	155.776333525	155.778441375	"13"	521.136728637	518.569896863	1.5	0.1
0.01	1	0.00216741499997397	1	54	NA	158.141915449	0	0.14	2.47	1	156.010032358	156.012199773	"13"	521.136728637	518.569896863	1.5	0.1
0.01	1	0.00229275200001666	1	54	NA	158.141915449	0	0.14	2.47	1	156.243899239	156.246191991	"13"	521.136728637	518.569896863	1.5	0.1
0.01	1	0.00331764200001317	1	54	NA	158.141915449	0	0.14	2.47	1	156.477549321	156.480866963	"13"	521.136728637	518.569896863	1.5	0.1
0.01	1	0.0038190540000187	1	54	NA	158.141915449	0	0.14	2.47	1	156.711286823	156.715105877	"13"	521.136728637	518.569896863	1.5	0.1
0.01	1	0.00462351200002331	1	54	NA	158.141915449	0	0.14	2.47	1	156.945175088	156.9497986	"13"	521.136728637	518.569896863	1.5	0.1
0.01	1	0.00396562700001368	1	54	NA	158.141915449	0	0.14	2.47	1	157.178709558	157.182675185	"13"	521.136728637	518.569896863	1.5	0.1
0.01	1	0.00222177399996326	1	54	NA	158.141915449	0	0.14	2.47	1	157.412386604	157.414608378	"13"	521.136728637	518.569896863	1.5	0.1
0.01	1	0.00377417000004243	1	54	NA	158.141915449	0	0.14	2.47	1	157.646244913	157.650019083	"13"	521.136728637	518.569896863	1.5	0.1
0.01	1	0.260300460999986	2	54	NA	158.141915449	0	0.14	2.47	1	157.879988648	158.140289109	"13"	521.136728637	518.569896863	1.5	0.1
0.01	1	0.00428002099999958	1	103	NA	163.854645043	0	0.14	2.61	1	160.183877052	160.188157073	"14"	521.136728637	518.569896863	1.5	0.1
0.01	1	0.00389884899999515	1	103	NA	163.854645043	0	0.14	2.61	1	160.417650698	160.421549547	"14"	521.136728637	518.569896863	1.5	0.1
0.01	1	0.00327470999997104	1	103	NA	163.854645043	0	0.14	2.61	1	160.651174851	160.654449561	"14"	521.136728637	518.569896863	1.5	0.1
0.01	1	0.00357149999996409	1	103	NA	163.854645043	0	0.14	2.61	1	160.885058183	160.888629683	"14"	521.136728637	518.569896863	1.5	0.1
0.01	1	0.00402460300000484	1	103	NA	163.854645043	0	0.14	2.61	1	161.118813878	161.122838481	"14"	521.136728637	518.569896863	1.5	0.1
0.01	1	0.00387210200000254	1	103	NA	163.854645043	0	0.14	2.61	1	161.352363595	161.356235697	"14"	521.136728637	518.569896863	1.5	0.1
0.01	1	0.00392712299998266	1	103	NA	163.854645043	0	0.14	2.61	1	161.58618207	161.590109193	"14"	521.136728637	518.569896863	1.5	0.1
0.01	1	0.00340307800001938	1	103	NA	163.854645043	0	0.14	2.61	1	161.819933035	161.823336113	"14"	521.136728637	518.569896863	1.5	0.1
0.01	1	0.00392815700001847	1	103	NA	163.854645043	0	0.14	2.61	1	162.05361479	162.057542947	"14"	521.136728637	518.569896863	1.5	0.1
0.01	1	0.00390230300001804	1	103	NA	163.854645043	0	0.14	2.61	1	162.287243408	162.291145711	"14"	521.136728637	518.569896863	1.5	0.1
0.01	1	0.00466319999998177	1	103	NA	163.854645043	0	0.14	2.61	1	162.521183378	162.525846578	"14"	521.136728637	518.569896863	1.5	0.1
0.01	1	0.0039989690000084	1	103	NA	163.854645043	0	0.14	2.61	1	162.754835738	162.758834707	"14"	521.136728637	518.569896863	1.5	0.1
0.01	1	0.00470460499997216	1	103	NA	163.854645043	0	0.14	2.61	1	162.988524553	162.993229158	"14"	521.136728637	518.569896863	1.5	0.1
0.01	1	0.00322540600001275	1	103	NA	163.854645043	0	0.14	2.61	1	163.222262729	163.225488135	"14"	521.136728637	518.569896863	1.5	0.1
0.01	1	0.397002944999997	2	103	NA	163.854645043	0	0.14	2.61	1	163.455933488	163.852936433	"14"	521.136728637	518.569896863	1.5	0.1
0.01	1	0.00472767499996962	1	120	NA	174.390555081	0	0.32	2.93	1	165.910231743	165.914959418	"15"	521.136728637	518.569896863	1.5	0.1
0.01	1	0.00394170700002405	1	120	NA	174.390555081	0	0.32	2.93	1	166.14372953	166.147671237	"15"	521.136728637	518.569896863	1.5	0.1
0.01	1	0.00386780799999542	1	120	NA	174.390555081	0	0.32	2.93	1	166.377658233	166.381526041	"15"	521.136728637	518.569896863	1.5	0.1
0.01	1	0.0042033650000235	1	120	NA	174.390555081	0	0.32	2.93	1	166.611298338	166.615501703	"15"	521.136728637	518.569896863	1.5	0.1
0.01	1	0.00305837399997699	1	120	NA	174.390555081	0	0.32	2.93	1	166.844954755	166.848013129	"15"	521.136728637	518.569896863	1.5	0.1
0.01	1	0.00331682600000249	1	120	NA	174.390555081	0	0.32	2.93	1	167.078742123	167.082058949	"15"	521.136728637	518.569896863	1.5	0.1
0.01	1	0.00372687100002622	1	120	NA	174.390555081	0	0.32	2.93	1	167.312494198	167.316221069	"15"	521.136728637	518.569896863	1.5	0.1
0.01	1	0.00274105500000132	1	120	NA	174.390555081	0	0.32	2.93	1	167.546208765	167.54894982	"15"	521.136728637	518.569896863	1.5	0.1
0.01	1	0.0036588380000353	1	120	NA	174.390555081	0	0.32	2.93	1	167.780017593	167.783676431	"15"	521.136728637	518.569896863	1.5	0.1
0.01	1	0.0036467969999876	1	120	NA	174.390555081	0	0.32	2.93	1	168.013703578	168.017350375	"15"	521.136728637	518.569896863	1.5	0.1
0.01	1	0.00389296100001957	1	120	NA	174.390555081	0	0.32	2.93	1	168.24741268	168.251305641	"15"	521.136728637	518.569896863	1.5	0.1
0.01	1	0.00397894200000337	1	120	NA	174.390555081	0	0.32	2.93	1	168.481191013	168.485169955	"15"	521.136728637	518.569896863	1.5	0.1
0.01	1	0.00422116900000447	1	120	NA	174.390555081	0	0.32	2.93	1	168.71488725	168.719108419	"15"	521.136728637	518.569896863	1.5	0.1
0.01	1	0.00387211200001047	1	120	NA	174.390555081	0	0.32	2.93	1	168.948595605	168.952467717	"15"	521.136728637	518.569896863	1.5	0.1
0.01	1	0.00447852799999282	1	120	NA	174.390555081	0	0.32	2.93	1	169.182321162	169.18679969	"15"	521.136728637	518.569896863	1.5	0.1
0.01	1	0.00376878999998098	1	120	NA	174.390555081	0	0.32	2.93	1	169.416056325	169.419825115	"15"	521.136728637	518.569896863	1.5	0.1
0.01	1	0.00324786800001675	1	120	NA	174.390555081	0	0.32	2.93	1	169.649758235	169.653006103	"15"	521.136728637	518.569896863	1.5	0.1
0.01	1	0.00404959000002236	1	120	NA	174.390555081	0	0.32	2.93	1	169.883444033	169.887493623	"15"	521.136728637	518.569896863	1.5	0.1
0.01	1	0.0039975700000241	1	120	NA	174.390555081	0	0.32	2.93	1	170.117221843	170.121219413	"15"	521.136728637	518.569896863	1.5	0.1
0.01	1	0.00380019200002835	1	120	NA	174.390555081	0	0.32	2.93	1	170.350875423	170.354675615	"15"	521.136728637	518.569896863	1.5	0.1
0.01	1	0.00385785299999952	1	120	NA	174.390555081	0	0.32	2.93	1	170.58463004	170.588487893	"15"	521.136728637	518.569896863	1.5	0.1
0.01	1	0.00395866899998509	1	120	NA	174.390555081	0	0.32	2.93	1	170.81837175	170.822330419	"15"	521.136728637	518.569896863	1.5	0.1
0.01	1	0.00379545499998812	1	120	NA	174.390555081	0	0.32	2.93	1	171.052194718	171.055990173	"15"	521.136728637	518.569896863	1.5	0.1
0.01	1	0.00373690000003535	1	120	NA	174.390555081	0	0.32	2.93	1	171.285830323	171.289567223	"15"	521.136728637	518.569896863	1.5	0.1
0.01	1	0.00396613099997012	1	120	NA	174.390555081	0	0.32	2.93	1	171.519606748	171.523572879	"15"	521.136728637	518.569896863	1.5	0.1
0.01	1	0.0032673480000085	1	120	NA	174.390555081	0	0.32	2.93	1	171.753262915	171.756530263	"15"	521.136728637	518.569896863	1.5	0.1
0.01	1	0.00459767699999247	1	120	NA	174.390555081	0	0.32	2.93	1	171.987046318	171.991643995	"15"	521.136728637	518.569896863	1.5	0.1
0.01	1	0.504246199000022	1	120	NA	174.390555081	0	0.32	2.93	1	172.220774066	172.725020265	"15"	521.136728637	518.569896863	1.5	0.1
0.01	1	0.0256675119999841	1	120	NA	174.390555081	0	0.32	2.93	1	172.955283383	172.980950895	"15"	521.136728637	518.569896863	1.5	0.1
0.01	1	0.00411463699998649	1	120	NA	174.390555081	0	0.32	2.93	1	173.222500358	173.226614995	"15"	521.136728637	518.569896863	1.5	0.1
0.01	1	0.0432493270000123	1	120	NA	174.390555081	0	0.32	2.93	1	173.45614255	173.499391877	"15"	521.136728637	518.569896863	1.5	0.1
0.01	1	0.00396698299999798	1	120	NA	174.390555081	0	0.32	2.93	1	173.72332835	173.727295333	"15"	521.136728637	518.569896863	1.5	0.1
0.01	1	0.431986409999979	2	120	NA	174.390555081	0	0.32	2.93	1	173.957023655	174.389010065	"15"	521.136728637	518.569896863	1.5	0.1
0.01	1	0.00471538499999724	1	109	NA	180.374397517	0	0.16	3.09	1	176.444595518	176.449310903	"16"	521.136728637	518.569896863	1.5	0.1
0.01	1	0.00408675900001754	1	109	NA	180.374397517	0	0.16	3.09	1	176.678198958	176.682285717	"16"	521.136728637	518.569896863	1.5	0.1
0.01	1	0.00340884199999891	1	109	NA	180.374397517	0	0.16	3.09	1	176.911993695	176.915402537	"16"	521.136728637	518.569896863	1.5	0.1
0.01	1	0.00332996399998819	1	109	NA	180.374397517	0	0.16	3.09	1	177.145669149	177.148999113	"16"	521.136728637	518.569896863	1.5	0.1
0.01	1	0.00474110199996858	1	109	NA	180.374397517	0	0.16	3.09	1	177.379512733	177.384253835	"16"	521.136728637	518.569896863	1.5	0.1
0.01	1	0.00504664999999704	1	109	NA	180.374397517	0	0.16	3.09	1	177.613285778	177.618332428	"16"	521.136728637	518.569896863	1.5	0.1
0.01	1	0.00379553900000928	1	109	NA	180.374397517	0	0.16	3.09	1	177.8467826	177.850578139	"16"	521.136728637	518.569896863	1.5	0.1
0.01	1	0.00344931999995879	1	109	NA	180.374397517	0	0.16	3.09	1	178.080629971	178.084079291	"16"	521.136728637	518.569896863	1.5	0.1
0.01	1	0.00382652700000108	1	109	NA	180.374397517	0	0.16	3.09	1	178.31436746	178.318193987	"16"	521.136728637	518.569896863	1.5	0.1
0.01	1	0.00390984099999514	1	109	NA	180.374397517	0	0.16	3.09	1	178.548061588	178.551971429	"16"	521.136728637	518.569896863	1.5	0.1
0.01	1	0.00473770000002105	1	109	NA	180.374397517	0	0.16	3.09	1	178.781897088	178.786634788	"16"	521.136728637	518.569896863	1.5	0.1
0.01	1	0.00465308199994752	1	109	NA	180.374397517	0	0.16	3.09	1	179.015557638	179.02021072	"16"	521.136728637	518.569896863	1.5	0.1
0.01	1	0.00372244099997943	1	109	NA	180.374397517	0	0.16	3.09	1	179.24922805	179.252950491	"16"	521.136728637	518.569896863	1.5	0.1
0.01	1	0.00387618700000303	1	109	NA	180.374397517	0	0.16	3.09	1	179.482967118	179.486843305	"16"	521.136728637	518.569896863	1.5	0.1
0.01	1	0.00392208199997413	1	109	NA	180.374397517	0	0.16	3.09	1	179.716729843	179.720651925	"16"	521.136728637	518.569896863	1.5	0.1
0.01	1	0.0046908099999996	1	109	NA	180.374397517	0	0.16	3.09	1	179.950482493	179.955173303	"16"	521.136728637	518.569896863	1.5	0.1
0.01	1	0.188706577999994	2	109	NA	180.374397517	0	0.16	3.09	1	180.184094878	180.372801456	"16"	521.136728637	518.569896863	1.5	0.1
0.01	1	0.00406994700000496	1	71	NA	197.486117106	0	0.43	3.52	1	182.40460536	182.408675307	"17"	521.136728637	518.569896863	1.5	0.1
0.01	1	0.00208150499997828	1	71	NA	197.486117106	0	0.43	3.52	1	182.638253556	182.640335061	"17"	521.136728637	518.569896863	1.5	0.1
0.01	1	0.00344807800001945	1	71	NA	197.486117106	0	0.43	3.52	1	182.871990805	182.875438883	"17"	521.136728637	518.569896863	1.5	0.1
0.01	1	0.00396534899999779	1	71	NA	197.486117106	0	0.43	3.52	1	183.10578525	183.109750599	"17"	521.136728637	518.569896863	1.5	0.1
0.01	1	0.00379665499997373	1	71	NA	197.486117106	0	0.43	3.52	1	183.33932834	183.343124995	"17"	521.136728637	518.569896863	1.5	0.1
0.01	1	0.00391629900002499	1	71	NA	197.486117106	0	0.43	3.52	1	183.57322909	183.577145389	"17"	521.136728637	518.569896863	1.5	0.1
0.01	1	0.00394450400000323	1	71	NA	197.486117106	0	0.43	3.52	1	183.806931975	183.810876479	"17"	521.136728637	518.569896863	1.5	0.1
0.01	1	0.00362006799997516	1	71	NA	197.486117106	0	0.43	3.52	1	184.040543113	184.044163181	"17"	521.136728637	518.569896863	1.5	0.1
0.01	1	0.00372677799998655	1	71	NA	197.486117106	0	0.43	3.52	1	184.274380915	184.278107693	"17"	521.136728637	518.569896863	1.5	0.1
0.01	1	0.00377005999996527	1	71	NA	197.486117106	0	0.43	3.52	1	184.507990323	184.511760383	"17"	521.136728637	518.569896863	1.5	0.1
0.01	1	0.00330660599996691	1	71	NA	197.486117106	0	0.43	3.52	1	184.741808589	184.745115195	"17"	521.136728637	518.569896863	1.5	0.1
0.01	1	0.00374310699999114	1	71	NA	197.486117106	0	0.43	3.52	1	184.975449228	184.979192335	"17"	521.136728637	518.569896863	1.5	0.1
0.01	1	0.00409594699999616	1	71	NA	197.486117106	0	0.43	3.52	1	185.209301848	185.213397795	"17"	521.136728637	518.569896863	1.5	0.1
0.01	1	0.00377176099999588	1	71	NA	197.486117106	0	0.43	3.52	1	185.442938928	185.446710689	"17"	521.136728637	518.569896863	1.5	0.1
0.01	1	0.0044603409999695	1	71	NA	197.486117106	0	0.43	3.52	1	185.676695499	185.68115584	"17"	521.136728637	518.569896863	1.5	0.1
0.01	1	0.00389879899995549	1	71	NA	197.486117106	0	0.43	3.52	1	185.910429468	185.914328267	"17"	521.136728637	518.569896863	1.5	0.1
0.01	1	0.00306016799999043	1	71	NA	197.486117106	0	0.43	3.52	1	186.144090227	186.147150395	"17"	521.136728637	518.569896863	1.5	0.1
0.01	1	0.00378952099998742	1	71	NA	197.486117106	0	0.43	3.52	1	186.37790773	186.381697251	"17"	521.136728637	518.569896863	1.5	0.1
0.01	1	0.00404800199999045	1	71	NA	197.486117106	0	0.43	3.52	1	186.611592315	186.615640317	"17"	521.136728637	518.569896863	1.5	0.1
0.01	1	0.638059741999996	1	71	NA	197.486117106	0	0.43	3.52	1	186.845360633	187.483420375	"17"	521.136728637	518.569896863	1.5	0.1
0.01	1	0.00390158100003646	1	71	NA	197.486117106	0	0.43	3.52	1	187.713465878	187.717367459	"17"	521.136728637	518.569896863	1.5	0.1
0.01	1	0.00385285700002669	1	71	NA	197.486117106	0	0.43	3.52	1	187.9471256	187.950978457	"17"	521.136728637	518.569896863	1.5	0.1
0.01	1	0.543185655000002	1	71	NA	197.486117106	0	0.43	3.52	1	188.18097806	188.724163715	"17"	521.136728637	518.569896863	1.5	0.1
0.01	1	0.0042129500000101	1	71	NA	197.486117106	0	0.43	3.52	1	188.965563773	188.969776723	"17"	521.136728637	518.569896863	1.5	0.1
0.01	1	0.0039223250000191	1	71	NA	197.486117106	0	0.43	3.52	1	189.19939064	189.203312965	"17"	521.136728637	518.569896863	1.5	0.1
0.01	1	0.00342724299997599	1	71	NA	197.486117106	0	0.43	3.52	1	189.433028558	189.436455801	"17"	521.136728637	518.569896863	1.5	0.1
0.01	1	0.474211867999998	1	71	NA	197.486117106	0	0.43	3.52	1	189.666721273	190.140933141	"17"	521.136728637	518.569896863	1.5	0.1
0.01	1	0.0038493879999919	1	71	NA	197.486117106	0	0.43	3.52	1	190.367904073	190.371753461	"17"	521.136728637	518.569896863	1.5	0.1
0.01	1	0.003983466999955	1	71	NA	197.486117106	0	0.43	3.52	1	190.601755318	190.605738785	"17"	521.136728637	518.569896863	1.5	0.1
0.01	1	0.00396016100000907	1	71	NA	197.486117106	0	0.43	3.52	1	190.835403528	190.839363689	"17"	521.136728637	518.569896863	1.5	0.1
0.01	1	0.00362335300002314	1	71	NA	197.486117106	0	0.43	3.52	1	191.069116238	191.072739591	"17"	521.136728637	518.569896863	1.5	0.1
0.01	1	0.557174425000028	1	71	NA	197.486117106	0	0.43	3.52	1	191.302847361	191.860021786	"17"	521.136728637	518.569896863	1.5	0.1
0.01	1	0.00383135499998843	1	71	NA	197.486117106	0	0.43	3.52	1	192.08748916	192.091320515	"17"	521.136728637	518.569896863	1.5	0.1
0.01	1	0.0034143860000313	1	71	NA	197.486117106	0	0.43	3.52	1	192.321177431	192.324591817	"17"	521.136728637	518.569896863	1.5	0.1
0.01	1	0.00345690099999274	1	71	NA	197.486117106	0	0.43	3.52	1	192.55494094	192.558397841	"17"	521.136728637	518.569896863	1.5	0.1
0.01	1	0.719086291999986	1	71	NA	197.486117106	0	0.43	3.52	1	192.788570053	193.507656345	"17"	521.136728637	518.569896863	1.5	0.1
0.01	1	0.0154815230000054	1	71	NA	197.486117106	0	0.43	3.52	1	193.740289723	193.755771246	"17"	521.136728637	518.569896863	1.5	0.1
0.01	1	0.0139169269999684	1	71	NA	197.486117106	0	0.43	3.52	1	193.99064518	194.004562107	"17"	521.136728637	518.569896863	1.5	0.1
0.01	1	0.546300127999984	1	71	NA	197.486117106	0	0.43	3.52	1	194.24119779	194.787497918	"17"	521.136728637	518.569896863	1.5	0.1
0.01	1	0.15503510100001	1	71	NA	197.486117106	0	0.43	3.52	1	195.00903244	195.164067541	"17"	521.136728637	518.569896863	1.5	0.1
0.01	1	0.21891980099997	1	71	NA	197.486117106	0	0.43	3.52	1	195.393088883	195.612008684	"17"	521.136728637	518.569896863	1.5	0.1
0.01	1	0.616601529000036	1	71	NA	197.486117106	0	0.43	3.52	1	195.84381602	196.460417549	"17"	521.136728637	518.569896863	1.5	0.1
0.01	1	0.244701683000017	1	71	NA	197.486117106	0	0.43	3.52	1	196.695283373	196.939985056	"17"	521.136728637	518.569896863	1.5	0.1
0.01	1	0.321895353999992	2	71	NA	197.486117106	0	0.43	3.52	1	197.16265017	197.484545524	"17"	521.136728637	518.569896863	1.5	0.1
0.01	1	0.303133304000028	1	96	NA	214.886762175	0	0.34	3.86	1	199.533363905	199.836497209	"18"	521.136728637	518.569896863	1.5	0.1
0.01	1	0.00408786700000974	1	96	NA	214.886762175	0	0.34	3.86	1	200.067499308	200.071587175	"18"	521.136728637	518.569896863	1.5	0.1
0.01	1	0.00392339299997957	1	96	NA	214.886762175	0	0.34	3.86	1	200.301277498	200.305200891	"18"	521.136728637	518.569896863	1.5	0.1
0.01	1	0.00370322099996656	1	96	NA	214.886762175	0	0.34	3.86	1	200.53503058	200.538733801	"18"	521.136728637	518.569896863	1.5	0.1
0.01	1	0.00385120800001459	1	96	NA	214.886762175	0	0.34	3.86	1	200.768697595	200.772548803	"18"	521.136728637	518.569896863	1.5	0.1
0.01	1	0.00401483799998914	1	96	NA	214.886762175	0	0.34	3.86	1	201.002433705	201.006448543	"18"	521.136728637	518.569896863	1.5	0.1
0.01	1	0.00394584200000736	1	96	NA	214.886762175	0	0.34	3.86	1	201.236138435	201.240084277	"18"	521.136728637	518.569896863	1.5	0.1
0.01	1	0.00389838099999906	1	96	NA	214.886762175	0	0.34	3.86	1	201.469948828	201.473847209	"18"	521.136728637	518.569896863	1.5	0.1
0.01	1	0.0038800849999916	1	96	NA	214.886762175	0	0.34	3.86	1	201.70368691	201.707566995	"18"	521.136728637	518.569896863	1.5	0.1
0.01	1	0.163027754999973	1	96	NA	214.886762175	0	0.34	3.86	1	201.937370293	202.100398048	"18"	521.136728637	518.569896863	1.5	0.1
0.01	1	0.00381307100002459	1	96	NA	214.886762175	0	0.34	3.86	1	202.33802953	202.341842601	"18"	521.136728637	518.569896863	1.5	0.1
0.01	1	0.00401836300000014	1	96	NA	214.886762175	0	0.34	3.86	1	202.571860698	202.575879061	"18"	521.136728637	518.569896863	1.5	0.1
0.01	1	0.00391561600002888	1	96	NA	214.886762175	0	0.34	3.86	1	202.805554235	202.809469851	"18"	521.136728637	518.569896863	1.5	0.1
0.01	1	0.00365096100000528	1	96	NA	214.886762175	0	0.34	3.86	1	203.039235748	203.042886709	"18"	521.136728637	518.569896863	1.5	0.1
0.01	1	0.00386440299996593	1	96	NA	214.886762175	0	0.34	3.86	1	203.27284169	203.276706093	"18"	521.136728637	518.569896863	1.5	0.1
0.01	1	0.00387363299995513	1	96	NA	214.886762175	0	0.34	3.86	1	203.506775408	203.510649041	"18"	521.136728637	518.569896863	1.5	0.1
0.01	1	0.00384153500004913	1	96	NA	214.886762175	0	0.34	3.86	1	203.740486248	203.744327783	"18"	521.136728637	518.569896863	1.5	0.1
0.01	1	0.00396963499997582	1	96	NA	214.886762175	0	0.34	3.86	1	203.97420179	203.978171425	"18"	521.136728637	518.569896863	1.5	0.1
0.01	1	0.00352618400000893	1	96	NA	214.886762175	0	0.34	3.86	1	204.207857841	204.211384025	"18"	521.136728637	518.569896863	1.5	0.1
0.01	1	0.00335101399997484	1	96	NA	214.886762175	0	0.34	3.86	1	204.441526511	204.444877525	"18"	521.136728637	518.569896863	1.5	0.1
0.01	1	0.304504595999958	1	96	NA	214.886762175	0	0.34	3.86	1	204.675319505	204.979824101	"18"	521.136728637	518.569896863	1.5	0.1
0.01	1	0.0347411380000153	1	96	NA	214.886762175	0	0.34	3.86	1	205.209514438	205.244255576	"18"	521.136728637	518.569896863	1.5	0.1
0.01	1	0.0041423320000149	1	96	NA	214.886762175	0	0.34	3.86	1	205.476594955	205.480737287	"18"	521.136728637	518.569896863	1.5	0.1
0.01	1	0.00669734699999935	1	96	NA	214.886762175	0	0.34	3.86	1	205.71045448	205.717151827	"18"	521.136728637	518.569896863	1.5	0.1
0.01	1	0.100714014999994	1	96	NA	214.886762175	0	0.34	3.86	1	205.94414527	206.044859285	"18"	521.136728637	518.569896863	1.5	0.1
0.01	1	1.69482056600003	1	96	NA	214.886762175	0	0.34	3.86	1	206.277936993	207.972757559	"18"	521.136728637	518.569896863	1.5	0.1
0.01	1	0.525757872999975	1	96	NA	214.886762175	0	0.34	3.86	1	208.197985172	208.723743045	"18"	521.136728637	518.569896863	1.5	0.1
0.01	1	0.878639276999991	1	96	NA	214.886762175	0	0.34	3.86	1	208.949215307	209.827854584	"18"	521.136728637	518.569896863	1.5	0.1
0.01	1	1.20141216800005	1	96	NA	214.886762175	0	0.34	3.86	1	210.067700213	211.269112381	"18"	521.136728637	518.569896863	1.5	0.1
0.01	1	0.469099020000044	1	96	NA	214.886762175	0	0.34	3.86	1	211.503502193	211.972601213	"18"	521.136728637	518.569896863	1.5	0.1
0.01	1	0.423329077000005	1	96	NA	214.886762175	0	0.34	3.86	1	212.204812868	212.628141945	"18"	521.136728637	518.569896863	1.5	0.1
0.01	1	0.467535837000014	1	96	NA	214.886762175	0	0.34	3.86	1	212.855775045	213.323310882	"18"	521.136728637	518.569896863	1.5	0.1
0.01	1	0.310452878000035	1	96	NA	214.886762175	0	0.34	3.86	1	213.556945269	213.867398147	"18"	521.136728637	518.569896863	1.5	0.1
0.01	1	0.249526431000049	1	96	NA	214.886762175	0	0.34	3.86	1	214.091208895	214.340735326	"18"	521.136728637	518.569896863	1.5	0.1
0.01	1	0.309763580000038	2	96	NA	214.886762175	0	0.34	3.86	1	214.575277398	214.885040978	"18"	521.136728637	518.569896863	1.5	0.1
0.01	1	0.004316407000033	1	91	NA	224.574389651	0	0.31	4.17	1	216.92928004	216.933596447	"19"	521.136728637	518.569896863	1.5	0.1
0.01	1	0.00212499100001651	1	91	NA	224.574389651	0	0.31	4.17	1	217.163008829	217.16513382	"19"	521.136728637	518.569896863	1.5	0.1
0.01	1	0.00400310500003798	1	91	NA	224.574389651	0	0.31	4.17	1	217.396637878	217.400640983	"19"	521.136728637	518.569896863	1.5	0.1
0.01	1	0.00344482799999923	1	91	NA	224.574389651	0	0.31	4.17	1	217.630477233	217.633922061	"19"	521.136728637	518.569896863	1.5	0.1
0.01	1	0.00393205500000704	1	91	NA	224.574389651	0	0.31	4.17	1	217.8641522	217.868084255	"19"	521.136728637	518.569896863	1.5	0.1
0.01	1	0.00448508099998435	1	91	NA	224.574389651	0	0.31	4.17	1	218.097895562	218.102380643	"19"	521.136728637	518.569896863	1.5	0.1
0.01	1	0.00378012900000613	1	91	NA	224.574389651	0	0.31	4.17	1	218.331624508	218.335404637	"19"	521.136728637	518.569896863	1.5	0.1
0.01	1	0.00363812299997335	1	91	NA	224.574389651	0	0.31	4.17	1	218.565384208	218.569022331	"19"	521.136728637	518.569896863	1.5	0.1
0.01	1	0.00374338899996474	1	91	NA	224.574389651	0	0.31	4.17	1	218.799049798	218.802793187	"19"	521.136728637	518.569896863	1.5	0.1
0.01	1	0.00359575899994979	1	91	NA	224.574389651	0	0.31	4.17	1	219.032763078	219.036358837	"19"	521.136728637	518.569896863	1.5	0.1
0.01	1	0.00305439599998181	1	91	NA	224.574389651	0	0.31	4.17	1	219.266503469	219.269557865	"19"	521.136728637	518.569896863	1.5	0.1
0.01	1	0.00390479499998264	1	91	NA	224.574389651	0	0.31	4.17	1	219.500250258	219.504155053	"19"	521.136728637	518.569896863	1.5	0.1
0.01	1	0.00465274699996598	1	91	NA	224.574389651	0	0.31	4.17	1	219.733967973	219.73862072	"19"	521.136728637	518.569896863	1.5	0.1
0.01	1	0.00355808099999422	1	91	NA	224.574389651	0	0.31	4.17	1	219.96765288	219.971210961	"19"	521.136728637	518.569896863	1.5	0.1
0.01	1	0.00390690099999347	1	91	NA	224.574389651	0	0.31	4.17	1	220.201490468	220.205397369	"19"	521.136728637	518.569896863	1.5	0.1
0.01	1	0.00389596700000538	1	91	NA	224.574389651	0	0.31	4.17	1	220.43513712	220.439033087	"19"	521.136728637	518.569896863	1.5	0.1
0.01	1	0.00469215200001827	1	91	NA	224.574389651	0	0.31	4.17	1	220.668868348	220.6735605	"19"	521.136728637	518.569896863	1.5	0.1
0.01	1	0.0033985719999805	1	91	NA	224.574389651	0	0.31	4.17	1	220.902558973	220.905957545	"19"	521.136728637	518.569896863	1.5	0.1
0.01	1	0.00393417300000465	1	91	NA	224.574389651	0	0.31	4.17	1	221.136325798	221.140259971	"19"	521.136728637	518.569896863	1.5	0.1
0.01	1	0.00325573200001372	1	91	NA	224.574389651	0	0.31	4.17	1	221.370092647	221.373348379	"19"	521.136728637	518.569896863	1.5	0.1
0.01	1	0.00399117699998897	1	91	NA	224.574389651	0	0.31	4.17	1	221.60377461	221.607765787	"19"	521.136728637	518.569896863	1.5	0.1
0.01	1	0.00400970099997267	1	91	NA	224.574389651	0	0.31	4.17	1	221.83760415	221.841613851	"19"	521.136728637	518.569896863	1.5	0.1
0.01	1	0.0037416249999751	1	91	NA	224.574389651	0	0.31	4.17	1	222.071174988	222.074916613	"19"	521.136728637	518.569896863	1.5	0.1
0.01	1	0.0038860340000042	1	91	NA	224.574389651	0	0.31	4.17	1	222.304900573	222.308786607	"19"	521.136728637	518.569896863	1.5	0.1
0.01	1	0.00389847499997131	1	91	NA	224.574389651	0	0.31	4.17	1	222.53862448	222.542522955	"19"	521.136728637	518.569896863	1.5	0.1
0.01	1	0.00310623799998666	1	91	NA	224.574389651	0	0.31	4.17	1	222.772360611	222.775466849	"19"	521.136728637	518.569896863	1.5	0.1
0.01	1	0.0034390980000012	1	91	NA	224.574389651	0	0.31	4.17	1	223.006167139	223.009606237	"19"	521.136728637	518.569896863	1.5	0.1
0.01	1	0.00352682999999843	1	91	NA	224.574389651	0	0.31	4.17	1	223.239906233	223.243433063	"19"	521.136728637	518.569896863	1.5	0.1
0.01	1	0.00400673100000404	1	91	NA	224.574389651	0	0.31	4.17	1	223.473607038	223.477613769	"19"	521.136728637	518.569896863	1.5	0.1
0.01	1	0.00464636999998902	1	91	NA	224.574389651	0	0.31	4.17	1	223.707337503	223.711983873	"19"	521.136728637	518.569896863	1.5	0.1
0.01	1	0.00382528699998375	1	91	NA	224.574389651	0	0.31	4.17	1	223.94103469	223.944859977	"19"	521.136728637	518.569896863	1.5	0.1
0.01	1	0.398028312999998	2	91	NA	224.574389651	0	0.31	4.17	1	224.174770637	224.57279895	"19"	521.136728637	518.569896863	1.5	0.1
0.01	1	0.152482098000007	1	5	227.834072988	NA	1	0	4.17	1	226.628902033	226.781384131	"20"	521.136728637	518.569896863	1.5	0.1
0.01	1	0.0040522909999936	1	5	227.834072988	NA	1	0	4.17	1	227.012894618	227.016946909	"20"	521.136728637	518.569896863	1.5	0.1
0.01	1	0.00404502099996762	1	5	227.834072988	NA	1	0	4.17	1	227.246592318	227.250637339	"20"	521.136728637	518.569896863	1.5	0.1
0.01	1	0.00383158000005324	1	5	227.834072988	NA	1	0	4.17	1	227.480315833	227.484147413	"20"	521.136728637	518.569896863	1.5	0.1
0.01	1	0.00352328100001387	1	5	227.834072988	NA	1	0	4.17	1	227.71410017	227.717623451	"20"	521.136728637	518.569896863	1.5	0.1
0.01	1	0.00470119700003124	1	123	NA	236.078199945	0	0.26	4.43	1	229.867707163	229.87240836	"21"	521.136728637	518.569896863	1.5	0.1
0.01	1	0.00386896399999159	1	123	NA	236.078199945	0	0.26	4.43	1	230.101435955	230.105304919	"21"	521.136728637	518.569896863	1.5	0.1
0.01	1	0.00464830700002494	1	123	NA	236.078199945	0	0.26	4.43	1	230.335142718	230.339791025	"21"	521.136728637	518.569896863	1.5	0.1
0.01	1	0.00425711599996248	1	123	NA	236.078199945	0	0.26	4.43	1	230.568826332	230.573083448	"21"	521.136728637	518.569896863	1.5	0.1
0.01	1	0.00403262700001505	1	123	NA	236.078199945	0	0.26	4.43	1	230.802637208	230.806669835	"21"	521.136728637	518.569896863	1.5	0.1
0.01	1	0.00385493300001372	1	123	NA	236.078199945	0	0.26	4.43	1	231.03625727	231.040112203	"21"	521.136728637	518.569896863	1.5	0.1
0.01	1	0.00351992999998174	1	123	NA	236.078199945	0	0.26	4.43	1	231.270002959	231.273522889	"21"	521.136728637	518.569896863	1.5	0.1
0.01	1	0.00368619599998965	1	123	NA	236.078199945	0	0.26	4.43	1	231.503802483	231.507488679	"21"	521.136728637	518.569896863	1.5	0.1
0.01	1	0.00397718900001109	1	123	NA	236.078199945	0	0.26	4.43	1	231.737440808	231.741417997	"21"	521.136728637	518.569896863	1.5	0.1
0.01	1	0.00385337599999502	1	123	NA	236.078199945	0	0.26	4.43	1	231.971262325	231.975115701	"21"	521.136728637	518.569896863	1.5	0.1
0.01	1	0.00408383600000661	1	123	NA	236.078199945	0	0.26	4.43	1	232.204967285	232.209051121	"21"	521.136728637	518.569896863	1.5	0.1
0.01	1	0.00337312400000656	1	123	NA	236.078199945	0	0.26	4.43	1	232.438732393	232.442105517	"21"	521.136728637	518.569896863	1.5	0.1
0.01	1	0.00397621299998718	1	123	NA	236.078199945	0	0.26	4.43	1	232.672423808	232.676400021	"21"	521.136728637	518.569896863	1.5	0.1
0.01	1	0.00370056299999533	1	123	NA	236.078199945	0	0.26	4.43	1	232.906137208	232.909837771	"21"	521.136728637	518.569896863	1.5	0.1
0.01	1	0.00368050499997707	1	123	NA	236.078199945	0	0.26	4.43	1	233.13984948	233.143529985	"21"	521.136728637	518.569896863	1.5	0.1
0.01	1	0.00341020799999114	1	123	NA	236.078199945	0	0.26	4.43	1	233.373656119	233.377066327	"21"	521.136728637	518.569896863	1.5	0.1
0.01	1	0.00362963600002786	1	123	NA	236.078199945	0	0.26	4.43	1	233.607282835	233.610912471	"21"	521.136728637	518.569896863	1.5	0.1
0.01	1	0.00355915100004722	1	123	NA	236.078199945	0	0.26	4.43	1	233.841014968	233.844574119	"21"	521.136728637	518.569896863	1.5	0.1
0.01	1	0.00452104000004283	1	123	NA	236.078199945	0	0.26	4.43	1	234.074799948	234.079320988	"21"	521.136728637	518.569896863	1.5	0.1
0.01	1	0.00395859299999302	1	123	NA	236.078199945	0	0.26	4.43	1	234.308426258	234.312384851	"21"	521.136728637	518.569896863	1.5	0.1
0.01	1	0.00329826799998045	1	123	NA	236.078199945	0	0.26	4.43	1	234.542295743	234.545594011	"21"	521.136728637	518.569896863	1.5	0.1
0.01	1	0.0036343780000152	1	123	NA	236.078199945	0	0.26	4.43	1	234.775913973	234.779548351	"21"	521.136728637	518.569896863	1.5	0.1
0.01	1	0.00248173500000348	1	123	NA	236.078199945	0	0.26	4.43	1	235.009573663	235.012055398	"21"	521.136728637	518.569896863	1.5	0.1
0.01	1	0.00465092000001732	1	123	NA	236.078199945	0	0.26	4.43	1	235.243418623	235.248069543	"21"	521.136728637	518.569896863	1.5	0.1
0.01	1	0.00337946199999806	1	123	NA	236.078199945	0	0.26	4.43	1	235.477155565	235.480535027	"21"	521.136728637	518.569896863	1.5	0.1
0.01	1	0.00334534999996094	1	123	NA	236.078199945	0	0.26	4.43	1	235.710846757	235.714192107	"21"	521.136728637	518.569896863	1.5	0.1
0.01	1	0.132187701999953	2	123	NA	236.078199945	0	0.26	4.43	1	235.944491345	236.076679047	"21"	521.136728637	518.569896863	1.5	0.1
0.01	1	0.00211566399997309	1	81	NA	244.421986301	0	0.22	4.65	1	238.13161565	238.133731314	"22"	521.136728637	518.569896863	1.5	0.1
0.01	1	0.00400959799998191	1	81	NA	244.421986301	0	0.22	4.65	1	238.365320903	238.369330501	"22"	521.136728637	518.569896863	1.5	0.1
0.01	1	0.00366241099999343	1	81	NA	244.421986301	0	0.22	4.65	1	238.59904329	238.602705701	"22"	521.136728637	518.569896863	1.5	0.1
0.01	1	0.00410545400001183	1	81	NA	244.421986301	0	0.22	4.65	1	238.832780063	238.836885517	"22"	521.136728637	518.569896863	1.5	0.1
0.01	1	0.00474327000000585	1	81	NA	244.421986301	0	0.22	4.65	1	239.066552088	239.071295358	"22"	521.136728637	518.569896863	1.5	0.1
0.01	1	0.00398044000002074	1	81	NA	244.421986301	0	0.22	4.65	1	239.300184953	239.304165393	"22"	521.136728637	518.569896863	1.5	0.1
0.01	1	0.0036059330000171	1	81	NA	244.421986301	0	0.22	4.65	1	239.53405565	239.537661583	"22"	521.136728637	518.569896863	1.5	0.1
0.01	1	0.00473729999998795	1	81	NA	244.421986301	0	0.22	4.65	1	239.767651948	239.772389248	"22"	521.136728637	518.569896863	1.5	0.1
0.01	1	0.00400237999997444	1	81	NA	244.421986301	0	0.22	4.65	1	240.001416403	240.005418783	"22"	521.136728637	518.569896863	1.5	0.1
0.01	1	0.00393289500004812	1	81	NA	244.421986301	0	0.22	4.65	1	240.235129398	240.239062293	"22"	521.136728637	518.569896863	1.5	0.1
0.01	1	0.0031741799999736	1	81	NA	244.421986301	0	0.22	4.65	1	240.468796817	240.471970997	"22"	521.136728637	518.569896863	1.5	0.1
0.01	1	0.00364315400003079	1	81	NA	244.421986301	0	0.22	4.65	1	240.702631013	240.706274167	"22"	521.136728637	518.569896863	1.5	0.1
0.01	1	0.00343489199997293	1	81	NA	244.421986301	0	0.22	4.65	1	240.936277755	240.939712647	"22"	521.136728637	518.569896863	1.5	0.1
0.01	1	0.0039049730000329	1	81	NA	244.421986301	0	0.22	4.65	1	241.17005893	241.173963903	"22"	521.136728637	518.569896863	1.5	0.1
0.01	1	0.00338161199999831	1	81	NA	244.421986301	0	0.22	4.65	1	241.403776929	241.407158541	"22"	521.136728637	518.569896863	1.5	0.1
0.01	1	0.00347968199997695	1	81	NA	244.421986301	0	0.22	4.65	1	241.637546885	241.641026567	"22"	521.136728637	518.569896863	1.5	0.1
0.01	1	0.0033950339999933	1	81	NA	244.421986301	0	0.22	4.65	1	241.871158197	241.874553231	"22"	521.136728637	518.569896863	1.5	0.1
0.01	1	0.00388481600003843	1	81	NA	244.421986301	0	0.22	4.65	1	242.104873443	242.108758259	"22"	521.136728637	518.569896863	1.5	0.1
0.01	1	0.00400722999995651	1	81	NA	244.421986301	0	0.22	4.65	1	242.338650195	242.342657425	"22"	521.136728637	518.569896863	1.5	0.1
0.01	1	0.550725185000033	1	81	NA	244.421986301	0	0.22	4.65	1	242.572407023	243.123132208	"22"	521.136728637	518.569896863	1.5	0.1
0.01	1	0.0628029339999898	1	81	NA	244.421986301	0	0.22	4.65	1	243.357167286	243.41997022	"22"	521.136728637	518.569896863	1.5	0.1
0.01	1	0.0022425930000054	1	81	NA	244.421986301	0	0.22	4.65	1	243.657477611	243.659720204	"22"	521.136728637	518.569896863	1.5	0.1
0.01	1	0.529215402000034	2	81	NA	244.421986301	0	0.22	4.65	1	243.891237448	244.42045285	"22"	521.136728637	518.569896863	1.5	0.1
0.01	1	0.00402491500000224	1	117	NA	262.89305359	0	0.55	5.2	1	246.47892023	246.482945145	"23"	521.136728637	518.569896863	1.5	0.1
0.01	1	0.00382827699996824	1	117	NA	262.89305359	0	0.55	5.2	1	246.712626838	246.716455115	"23"	521.136728637	518.569896863	1.5	0.1
0.01	1	0.00373437500002183	1	117	NA	262.89305359	0	0.55	5.2	1	246.946405218	246.950139593	"23"	521.136728637	518.569896863	1.5	0.1
0.01	1	0.00338065599999027	1	117	NA	262.89305359	0	0.55	5.2	1	247.180124803	247.183505459	"23"	521.136728637	518.569896863	1.5	0.1
0.01	1	0.00397402900000543	1	117	NA	262.89305359	0	0.55	5.2	1	247.41386634	247.417840369	"23"	521.136728637	518.569896863	1.5	0.1
0.01	1	0.00404450600001383	1	117	NA	262.89305359	0	0.55	5.2	1	247.647633915	247.651678421	"23"	521.136728637	518.569896863	1.5	0.1
0.01	1	0.0033001459999582	1	117	NA	262.89305359	0	0.55	5.2	1	247.881369387	247.884669533	"23"	521.136728637	518.569896863	1.5	0.1
0.01	1	0.00402097799997136	1	117	NA	262.89305359	0	0.55	5.2	1	248.115114343	248.119135321	"23"	521.136728637	518.569896863	1.5	0.1
0.01	1	0.00469916700001249	1	117	NA	262.89305359	0	0.55	5.2	1	248.348787988	248.353487155	"23"	521.136728637	518.569896863	1.5	0.1
0.01	1	0.00385396999996601	1	117	NA	262.89305359	0	0.55	5.2	1	248.582531743	248.586385713	"23"	521.136728637	518.569896863	1.5	0.1
0.01	1	0.00385456800000838	1	117	NA	262.89305359	0	0.55	5.2	1	248.816165113	248.820019681	"23"	521.136728637	518.569896863	1.5	0.1
0.01	1	0.00373987699998679	1	117	NA	262.89305359	0	0.55	5.2	1	249.049970698	249.053710575	"23"	521.136728637	518.569896863	1.5	0.1
0.01	1	0.00420164000001932	1	117	NA	262.89305359	0	0.55	5.2	1	249.283683083	249.287884723	"23"	521.136728637	518.569896863	1.5	0.1
0.01	1	0.00383317200004285	1	117	NA	262.89305359	0	0.55	5.2	1	249.517369113	249.521202285	"23"	521.136728637	518.569896863	1.5	0.1
0.01	1	0.00366250100000798	1	117	NA	262.89305359	0	0.55	5.2	1	249.75108078	249.754743281	"23"	521.136728637	518.569896863	1.5	0.1
0.01	1	0.00473576000001685	1	117	NA	262.89305359	0	0.55	5.2	1	249.984911523	249.989647283	"23"	521.136728637	518.569896863	1.5	0.1
0.01	1	0.00356843499997694	1	117	NA	262.89305359	0	0.55	5.2	1	250.218578058	250.222146493	"23"	521.136728637	518.569896863	1.5	0.1
0.01	1	0.00444116399995664	1	117	NA	262.89305359	0	0.55	5.2	1	250.452314596	250.45675576	"23"	521.136728637	518.569896863	1.5	0.1
0.01	1	0.00381174599999667	1	117	NA	262.89305359	0	0.55	5.2	1	250.685987115	250.689798861	"23"	521.136728637	518.569896863	1.5	0.1
0.01	1	0.00382331800000202	1	117	NA	262.89305359	0	0.55	5.2	1	250.919742915	250.923566233	"23"	521.136728637	518.569896863	1.5	0.1
0.01	1	0.00392518500001415	1	117	NA	262.89305359	0	0.55	5.2	1	251.153481428	251.157406613	"23"	521.136728637	518.569896863	1.5	0.1
0.01	1	0.00339231999998901	1	117	NA	262.89305359	0	0.55	5.2	1	251.387177217	251.390569537	"23"	521.136728637	518.569896863	1.5	0.1
0.01	1	0.00463251699994771	1	117	NA	262.89305359	0	0.55	5.2	1	251.620953153	251.62558567	"23"	521.136728637	518.569896863	1.5	0.1
0.01	1	0.00403295199998865	1	117	NA	262.89305359	0	0.55	5.2	1	251.854664723	251.858697675	"23"	521.136728637	518.569896863	1.5	0.1
0.01	1	0.00392399700001533	1	117	NA	262.89305359	0	0.55	5.2	1	252.088342528	252.092266525	"23"	521.136728637	518.569896863	1.5	0.1
0.01	1	0.00459668500002408	1	117	NA	262.89305359	0	0.55	5.2	1	252.322116518	252.326713203	"23"	521.136728637	518.569896863	1.5	0.1
0.01	1	0.0039952600000106	1	117	NA	262.89305359	0	0.55	5.2	1	252.555860495	252.559855755	"23"	521.136728637	518.569896863	1.5	0.1
0.01	1	0.00351871399999482	1	117	NA	262.89305359	0	0.55	5.2	1	252.789517073	252.793035787	"23"	521.136728637	518.569896863	1.5	0.1
0.01	1	0.00396186799997622	1	117	NA	262.89305359	0	0.55	5.2	1	253.023232935	253.027194803	"23"	521.136728637	518.569896863	1.5	0.1
0.01	1	0.00406169100000398	1	117	NA	262.89305359	0	0.55	5.2	1	253.25695887	253.261020561	"23"	521.136728637	518.569896863	1.5	0.1
0.01	1	0.00381038299997272	1	117	NA	262.89305359	0	0.55	5.2	1	253.490751288	253.494561671	"23"	521.136728637	518.569896863	1.5	0.1
0.01	1	0.00338857200000575	1	117	NA	262.89305359	0	0.55	5.2	1	253.724508081	253.727896653	"23"	521.136728637	518.569896863	1.5	0.1
0.01	1	0.00357482800001208	1	117	NA	262.89305359	0	0.55	5.2	1	253.958195355	253.961770183	"23"	521.136728637	518.569896863	1.5	0.1
0.01	1	0.356917248000002	1	117	NA	262.89305359	0	0.55	5.2	1	254.191941058	254.548858306	"23"	521.136728637	518.569896863	1.5	0.1
0.01	1	0.00412967599999092	1	117	NA	262.89305359	0	0.55	5.2	1	254.776183403	254.780313079	"23"	521.136728637	518.569896863	1.5	0.1
0.01	1	0.00409295299999712	1	117	NA	262.89305359	0	0.55	5.2	1	255.01002644	255.014119393	"23"	521.136728637	518.569896863	1.5	0.1
0.01	1	0.00366118499999857	1	117	NA	262.89305359	0	0.55	5.2	1	255.243711198	255.247372383	"23"	521.136728637	518.569896863	1.5	0.1
0.01	1	0.00375460100002556	1	117	NA	262.89305359	0	0.55	5.2	1	255.477496758	255.481251359	"23"	521.136728637	518.569896863	1.5	0.1
0.01	1	0.421583005000002	1	117	NA	262.89305359	0	0.55	5.2	1	255.711194015	256.13277702	"23"	521.136728637	518.569896863	1.5	0.1
0.01	1	0.00394376500003091	1	117	NA	262.89305359	0	0.55	5.2	1	256.362221968	256.366165733	"23"	521.136728637	518.569896863	1.5	0.1
0.01	1	0.0038546389999965	1	117	NA	262.89305359	0	0.55	5.2	1	256.59597055	256.599825189	"23"	521.136728637	518.569896863	1.5	0.1
0.01	1	0.543163732999972	1	117	NA	262.89305359	0	0.55	5.2	1	256.829795365	257.372959098	"23"	521.136728637	518.569896863	1.5	0.1
0.01	1	0.00369092799996906	1	117	NA	262.89305359	0	0.55	5.2	1	257.614356083	257.618047011	"23"	521.136728637	518.569896863	1.5	0.1
0.01	1	0.00371687499995232	1	117	NA	262.89305359	0	0.55	5.2	1	257.848122008	257.851838883	"23"	521.136728637	518.569896863	1.5	0.1
0.01	1	0.481318405999957	1	117	NA	262.89305359	0	0.55	5.2	1	258.081860333	258.563178739	"23"	521.136728637	518.569896863	1.5	0.1
0.01	1	0.00472135700005083	1	117	NA	262.89305359	0	0.55	5.2	1	258.799719593	258.80444095	"23"	521.136728637	518.569896863	1.5	0.1
0.01	1	0.00435333100000435	1	117	NA	262.89305359	0	0.55	5.2	1	259.033379849	259.03773318	"23"	521.136728637	518.569896863	1.5	0.1
0.01	1	0.00403127000004133	1	117	NA	262.89305359	0	0.55	5.2	1	259.267233613	259.271264883	"23"	521.136728637	518.569896863	1.5	0.1
0.01	1	0.214337803999967	1	117	NA	262.89305359	0	0.55	5.2	1	259.500874381	259.715212185	"23"	521.136728637	518.569896863	1.5	0.1
0.01	1	0.0040473239999983	1	117	NA	262.89305359	0	0.55	5.2	1	259.951663045	259.955710369	"23"	521.136728637	518.569896863	1.5	0.1
0.01	1	0.0039770910000243	1	117	NA	262.89305359	0	0.55	5.2	1	260.1854069	260.189383991	"23"	521.136728637	518.569896863	1.5	0.1
0.01	1	0.464332571	1	117	NA	262.89305359	0	0.55	5.2	1	260.418998528	260.883331099	"23"	521.136728637	518.569896863	1.5	0.1
0.01	1	0.00337206199998263	1	117	NA	262.89305359	0	0.55	5.2	1	261.120214999	261.123587061	"23"	521.136728637	518.569896863	1.5	0.1
0.01	1	0.625867353000046	1	117	NA	262.89305359	0	0.55	5.2	1	261.354008118	261.979875471	"23"	521.136728637	518.569896863	1.5	0.1
0.01	1	0.0552012869999885	1	117	NA	262.89305359	0	0.55	5.2	1	262.20542979	262.260631077	"23"	521.136728637	518.569896863	1.5	0.1
0.01	1	0.402349752000021	2	117	NA	262.89305359	0	0.55	5.2	1	262.489168373	262.891518125	"23"	521.136728637	518.569896863	1.5	0.1
0.01	1	0.501355338999986	1	84	NA	268.782479672	0	0.14	5.34	1	264.943334576	265.444689915	"24"	521.136728637	518.569896863	1.5	0.1
0.01	1	0.0045370979999575	1	84	NA	268.782479672	0	0.14	5.34	1	265.677853345	265.682390443	"24"	521.136728637	518.569896863	1.5	0.1
0.01	1	0.00472509999997328	1	84	NA	268.782479672	0	0.14	5.34	1	265.911836353	265.916561453	"24"	521.136728637	518.569896863	1.5	0.1
0.01	1	0.00344232599996985	1	84	NA	268.782479672	0	0.14	5.34	1	266.145401573	266.148843899	"24"	521.136728637	518.569896863	1.5	0.1
0.01	1	0.00478929500002323	1	84	NA	268.782479672	0	0.14	5.34	1	266.379143608	266.383932903	"24"	521.136728637	518.569896863	1.5	0.1
0.01	1	0.00390750399998296	1	84	NA	268.782479672	0	0.14	5.34	1	266.612860163	266.616767667	"24"	521.136728637	518.569896863	1.5	0.1
0.01	1	0.00435167400002001	1	84	NA	268.782479672	0	0.14	5.34	1	266.846525881	266.850877555	"24"	521.136728637	518.569896863	1.5	0.1
0.01	1	0.00379992500000981	1	84	NA	268.782479672	0	0.14	5.34	1	267.08032754	267.084127465	"24"	521.136728637	518.569896863	1.5	0.1
0.01	1	0.00339631399998552	1	84	NA	268.782479672	0	0.14	5.34	1	267.314029069	267.317425383	"24"	521.136728637	518.569896863	1.5	0.1
0.01	1	0.00378593300001739	1	84	NA	268.782479672	0	0.14	5.34	1	267.547653718	267.551439651	"24"	521.136728637	518.569896863	1.5	0.1
0.01	1	0.00388597500000287	1	84	NA	268.782479672	0	0.14	5.34	1	267.781452098	267.785338073	"24"	521.136728637	518.569896863	1.5	0.1
0.01	1	0.00237467800002378	1	84	NA	268.782479672	0	0.14	5.34	1	268.015203533	268.017578211	"24"	521.136728637	518.569896863	1.5	0.1
0.01	1	0.00398546299999225	1	84	NA	268.782479672	0	0.14	5.34	1	268.248976258	268.252961721	"24"	521.136728637	518.569896863	1.5	0.1
0.01	1	0.00371089600002961	1	84	NA	268.782479672	0	0.14	5.34	1	268.482629763	268.486340659	"24"	521.136728637	518.569896863	1.5	0.1
0.01	1	0.0644091679999974	2	84	NA	268.782479672	0	0.14	5.34	1	268.716465985	268.780875153	"24"	521.136728637	518.569896863	1.5	0.1
0.01	1	0.00355926399998907	1	22	275.848647528	NA	1	0	5.34	1	270.819902555	270.823461819	"25"	521.136728637	518.569896863	1.5	0.1
0.01	1	0.00349551899995504	1	22	275.848647528	NA	1	0	5.34	1	271.05365803	271.057153549	"25"	521.136728637	518.569896863	1.5	0.1
0.01	1	0.00388812399995686	1	22	275.848647528	NA	1	0	5.34	1	271.287295663	271.291183787	"25"	521.136728637	518.569896863	1.5	0.1
0.01	1	0.00398198599998523	1	22	275.848647528	NA	1	0	5.34	1	271.521047333	271.525029319	"25"	521.136728637	518.569896863	1.5	0.1
0.01	1	0.00354297699999506	1	22	275.848647528	NA	1	0	5.34	1	271.754799858	271.758342835	"25"	521.136728637	518.569896863	1.5	0.1
0.01	1	0.00349255099996526	1	22	275.848647528	NA	1	0	5.34	1	271.988482288	271.991974839	"25"	521.136728637	518.569896863	1.5	0.1
0.01	1	0.00392553400001816	1	22	275.848647528	NA	1	0	5.34	1	272.222198463	272.226123997	"25"	521.136728637	518.569896863	1.5	0.1
0.01	1	0.00459054000003789	1	22	275.848647528	NA	1	0	5.34	1	272.455920738	272.460511278	"25"	521.136728637	518.569896863	1.5	0.1
0.01	1	0.00497995500001025	1	22	275.848647528	NA	1	0	5.34	1	272.689754678	272.694734633	"25"	521.136728637	518.569896863	1.5	0.1
0.01	1	0.00311637200002224	1	22	275.848647528	NA	1	0	5.34	1	272.923457585	272.926573957	"25"	521.136728637	518.569896863	1.5	0.1
0.01	1	0.00353023799999619	1	22	275.848647528	NA	1	0	5.34	1	273.157141915	273.160672153	"25"	521.136728637	518.569896863	1.5	0.1
0.01	1	0.00382443699999158	1	22	275.848647528	NA	1	0	5.34	1	273.390802038	273.394626475	"25"	521.136728637	518.569896863	1.5	0.1
0.01	1	0.00394982099999197	1	22	275.848647528	NA	1	0	5.34	1	273.62452383	273.628473651	"25"	521.136728637	518.569896863	1.5	0.1
0.01	1	0.00393117700002676	1	22	275.848647528	NA	1	0	5.34	1	273.858387328	273.862318505	"25"	521.136728637	518.569896863	1.5	0.1
0.01	1	0.00463077000000567	1	22	275.848647528	NA	1	0	5.34	1	274.092166048	274.096796818	"25"	521.136728637	518.569896863	1.5	0.1
0.01	1	0.00374568300003375	1	22	275.848647528	NA	1	0	5.34	1	274.32572766	274.329473343	"25"	521.136728637	518.569896863	1.5	0.1
0.01	1	0.00383561099999952	1	22	275.848647528	NA	1	0	5.34	1	274.55951891	274.563354521	"25"	521.136728637	518.569896863	1.5	0.1
0.01	1	0.00399793200000431	1	22	275.848647528	NA	1	0	5.34	1	274.793222295	274.797220227	"25"	521.136728637	518.569896863	1.5	0.1
0.01	1	0.00458125700004075	1	22	275.848647528	NA	1	0	5.34	1	275.027061423	275.03164268	"25"	521.136728637	518.569896863	1.5	0.1
0.01	1	0.00472605199996678	1	22	275.848647528	NA	1	0	5.34	1	275.260754168	275.26548022	"25"	521.136728637	518.569896863	1.5	0.1
0.01	1	0.00332912200002511	1	22	275.848647528	NA	1	0	5.34	1	275.494348077	275.497677199	"25"	521.136728637	518.569896863	1.5	0.1
0.01	1	0.00399346500000775	1	22	275.848647528	NA	1	0	5.34	1	275.72821011	275.732203575	"25"	521.136728637	518.569896863	1.5	0.1
0.01	1	0.00401109800003496	1	36	NA	283.189255031	0	0.22	5.56	1	277.881755953	277.885767051	"26"	521.136728637	518.569896863	1.5	0.1
0.01	1	0.00473949500002391	1	36	NA	283.189255031	0	0.22	5.56	1	278.115454303	278.120193798	"26"	521.136728637	518.569896863	1.5	0.1
0.01	1	0.00417913500001532	1	36	NA	283.189255031	0	0.22	5.56	1	278.349244158	278.353423293	"26"	521.136728637	518.569896863	1.5	0.1
0.01	1	0.00375874399998111	1	36	NA	283.189255031	0	0.22	5.56	1	278.582946735	278.586705479	"26"	521.136728637	518.569896863	1.5	0.1
0.01	1	0.00240254600004164	1	36	NA	283.189255031	0	0.22	5.56	1	278.81660793	278.819010476	"26"	521.136728637	518.569896863	1.5	0.1
0.01	1	0.00221202099999118	1	36	NA	283.189255031	0	0.22	5.56	1	279.050359071	279.052571092	"26"	521.136728637	518.569896863	1.5	0.1
0.01	1	0.00225944499999287	1	36	NA	283.189255031	0	0.22	5.56	1	279.284054578	279.286314023	"26"	521.136728637	518.569896863	1.5	0.1
0.01	1	0.00434601199998497	1	36	NA	283.189255031	0	0.22	5.56	1	279.517918738	279.52226475	"26"	521.136728637	518.569896863	1.5	0.1
0.01	1	0.00408854400001246	1	36	NA	283.189255031	0	0.22	5.56	1	279.751634935	279.755723479	"26"	521.136728637	518.569896863	1.5	0.1
0.01	1	0.00218570999999201	1	36	NA	283.189255031	0	0.22	5.56	1	279.985255202	279.987440912	"26"	521.136728637	518.569896863	1.5	0.1
0.01	1	0.00213793000000351	1	36	NA	283.189255031	0	0.22	5.56	1	280.218917489	280.221055419	"26"	521.136728637	518.569896863	1.5	0.1
0.01	1	0.00230846900001325	1	36	NA	283.189255031	0	0.22	5.56	1	280.452801392	280.455109861	"26"	521.136728637	518.569896863	1.5	0.1
0.01	1	0.00226126100000101	1	36	NA	283.189255031	0	0.22	5.56	1	280.686357407	280.688618668	"26"	521.136728637	518.569896863	1.5	0.1
0.01	1	0.00388265399999455	1	36	NA	283.189255031	0	0.22	5.56	1	280.920244131	280.924126785	"26"	521.136728637	518.569896863	1.5	0.1
0.01	1	0.00340080399996623	1	36	NA	283.189255031	0	0.22	5.56	1	281.153902689	281.157303493	"26"	521.136728637	518.569896863	1.5	0.1
0.01	1	0.00333939400002237	1	36	NA	283.189255031	0	0.22	5.56	1	281.387678535	281.391017929	"26"	521.136728637	518.569896863	1.5	0.1
0.01	1	0.0032267359999878	1	36	NA	283.189255031	0	0.22	5.56	1	281.621400151	281.624626887	"26"	521.136728637	518.569896863	1.5	0.1
0.01	1	0.00290434099997583	1	36	NA	283.189255031	0	0.22	5.56	1	281.855194279	281.85809862	"26"	521.136728637	518.569896863	1.5	0.1
0.01	1	0.0039073089999988	1	36	NA	283.189255031	0	0.22	5.56	1	282.08884926	282.092756569	"26"	521.136728637	518.569896863	1.5	0.1
0.01	1	0.00345836500002861	1	36	NA	283.189255031	0	0.22	5.56	1	282.32267259	282.326130955	"26"	521.136728637	518.569896863	1.5	0.1
0.01	1	0.00378435999999738	1	36	NA	283.189255031	0	0.22	5.56	1	282.556289435	282.560073795	"26"	521.136728637	518.569896863	1.5	0.1
0.01	1	0.00392064699997263	1	36	NA	283.189255031	0	0.22	5.56	1	282.7900053	282.793925947	"26"	521.136728637	518.569896863	1.5	0.1
0.01	1	0.164003287000014	2	36	NA	283.189255031	0	0.22	5.56	1	283.023708368	283.187711655	"26"	521.136728637	518.569896863	1.5	0.1
0.01	1	0.0403572249999797	1	124	NA	295.734037908	0	0.43	5.99	1	285.24418419	285.284541415	"27"	521.136728637	518.569896863	1.5	0.1
0.01	1	0.00432836299995643	1	124	NA	295.734037908	0	0.43	5.99	1	285.511263325	285.515591688	"27"	521.136728637	518.569896863	1.5	0.1
0.01	1	0.00416237400003183	1	124	NA	295.734037908	0	0.43	5.99	1	285.745089283	285.749251657	"27"	521.136728637	518.569896863	1.5	0.1
0.01	1	0.00410682599999745	1	124	NA	295.734037908	0	0.43	5.99	1	285.978686993	285.982793819	"27"	521.136728637	518.569896863	1.5	0.1
0.01	1	0.00362856500004227	1	124	NA	295.734037908	0	0.43	5.99	1	286.21245728	286.216085845	"27"	521.136728637	518.569896863	1.5	0.1
0.01	1	0.00385500200002298	1	124	NA	295.734037908	0	0.43	5.99	1	286.446160895	286.450015897	"27"	521.136728637	518.569896863	1.5	0.1
0.01	1	0.00400752100000545	1	124	NA	295.734037908	0	0.43	5.99	1	286.67981898	286.683826501	"27"	521.136728637	518.569896863	1.5	0.1
0.01	1	0.00370045099998606	1	124	NA	295.734037908	0	0.43	5.99	1	286.91366597	286.917366421	"27"	521.136728637	518.569896863	1.5	0.1
0.01	1	0.00349087900002587	1	124	NA	295.734037908	0	0.43	5.99	1	287.147461868	287.150952747	"27"	521.136728637	518.569896863	1.5	0.1
0.01	1	0.00404940999999326	1	124	NA	295.734037908	0	0.43	5.99	1	287.381102773	287.385152183	"27"	521.136728637	518.569896863	1.5	0.1
0.01	1	0.00393004899996185	1	124	NA	295.734037908	0	0.43	5.99	1	287.61485017	287.618780219	"27"	521.136728637	518.569896863	1.5	0.1
0.01	1	0.00390913699999373	1	124	NA	295.734037908	0	0.43	5.99	1	287.84858571	287.852494847	"27"	521.136728637	518.569896863	1.5	0.1
0.01	1	0.00341886600000407	1	124	NA	295.734037908	0	0.43	5.99	1	288.082347423	288.085766289	"27"	521.136728637	518.569896863	1.5	0.1
0.01	1	0.00390245800002731	1	124	NA	295.734037908	0	0.43	5.99	1	288.315955215	288.319857673	"27"	521.136728637	518.569896863	1.5	0.1
0.01	1	0.00405371499999774	1	124	NA	295.734037908	0	0.43	5.99	1	288.549647038	288.553700753	"27"	521.136728637	518.569896863	1.5	0.1
0.01	1	0.00475383999997803	1	124	NA	295.734037908	0	0.43	5.99	1	288.783403858	288.788157698	"27"	521.136728637	518.569896863	1.5	0.1
0.01	1	0.00463279000001648	1	124	NA	295.734037908	0	0.43	5.99	1	289.017178443	289.021811233	"27"	521.136728637	518.569896863	1.5	0.1
0.01	1	0.0032599940000182	1	124	NA	295.734037908	0	0.43	5.99	1	289.250850741	289.254110735	"27"	521.136728637	518.569896863	1.5	0.1
0.01	1	0.00403150500000038	1	124	NA	295.734037908	0	0.43	5.99	1	289.48458328	289.488614785	"27"	521.136728637	518.569896863	1.5	0.1
0.01	1	0.00385280500000817	1	124	NA	295.734037908	0	0.43	5.99	1	289.718482688	289.722335493	"27"	521.136728637	518.569896863	1.5	0.1
0.01	1	0.00398154900000236	1	124	NA	295.734037908	0	0.43	5.99	1	289.95210257	289.956084119	"27"	521.136728637	518.569896863	1.5	0.1
0.01	1	0.00382273200000327	1	124	NA	295.734037908	0	0.43	5.99	1	290.185798513	290.189621245	"27"	521.136728637	518.569896863	1.5	0.1
0.01	1	0.004267915000014	1	124	NA	295.734037908	0	0.43	5.99	1	290.419604408	290.423872323	"27"	521.136728637	518.569896863	1.5	0.1
0.01	1	0.00360424799998782	1	124	NA	295.734037908	0	0.43	5.99	1	290.653268363	290.656872611	"27"	521.136728637	518.569896863	1.5	0.1
0.01	1	0.00408705199998849	1	124	NA	295.734037908	0	0.43	5.99	1	290.886984645	290.891071697	"27"	521.136728637	518.569896863	1.5	0.1
0.01	1	0.00385501300002034	1	124	NA	295.734037908	0	0.43	5.99	1	291.120688928	291.124543941	"27"	521.136728637	518.569896863	1.5	0.1
0.01	1	0.00387916400001131	1	124	NA	295.734037908	0	0.43	5.99	1	291.354382243	291.358261407	"27"	521.136728637	518.569896863	1.5	0.1
0.01	1	0.00341142799999261	1	124	NA	295.734037908	0	0.43	5.99	1	291.588229787	291.591641215	"27"	521.136728637	518.569896863	1.5	0.1
0.01	1	0.0036458729999822	1	124	NA	295.734037908	0	0.43	5.99	1	291.82188032	291.825526193	"27"	521.136728637	518.569896863	1.5	0.1
0.01	1	0.00407186000001047	1	124	NA	295.734037908	0	0.43	5.99	1	292.055633083	292.059704943	"27"	521.136728637	518.569896863	1.5	0.1
0.01	1	0.00401046700000052	1	124	NA	295.734037908	0	0.43	5.99	1	292.289301048	292.293311515	"27"	521.136728637	518.569896863	1.5	0.1
0.01	1	0.00465767999997979	1	124	NA	295.734037908	0	0.43	5.99	1	292.522998078	292.527655758	"27"	521.136728637	518.569896863	1.5	0.1
0.01	1	0.00399737300000425	1	124	NA	295.734037908	0	0.43	5.99	1	292.7567588	292.760756173	"27"	521.136728637	518.569896863	1.5	0.1
0.01	1	0.0036439969999833	1	124	NA	295.734037908	0	0.43	5.99	1	292.990522778	292.994166775	"27"	521.136728637	518.569896863	1.5	0.1
0.01	1	0.00385471700002427	1	124	NA	295.734037908	0	0.43	5.99	1	293.224374848	293.228229565	"27"	521.136728637	518.569896863	1.5	0.1
0.01	1	0.0038452809999967	1	124	NA	295.734037908	0	0.43	5.99	1	293.45795443	293.461799711	"27"	521.136728637	518.569896863	1.5	0.1
0.01	1	0.00360764300000938	1	124	NA	295.734037908	0	0.43	5.99	1	293.6917354	293.695343043	"27"	521.136728637	518.569896863	1.5	0.1
0.01	1	0.00396583499997405	1	124	NA	295.734037908	0	0.43	5.99	1	293.925402378	293.929368213	"27"	521.136728637	518.569896863	1.5	0.1
0.01	1	0.00421583799999325	1	124	NA	295.734037908	0	0.43	5.99	1	294.159167885	294.163383723	"27"	521.136728637	518.569896863	1.5	0.1
0.01	1	0.00409713400000555	1	124	NA	295.734037908	0	0.43	5.99	1	294.392916793	294.397013927	"27"	521.136728637	518.569896863	1.5	0.1
0.01	1	0.00463677499999449	1	124	NA	295.734037908	0	0.43	5.99	1	294.626615713	294.631252488	"27"	521.136728637	518.569896863	1.5	0.1
0.01	1	0.00333668199999693	1	124	NA	295.734037908	0	0.43	5.99	1	294.860387797	294.863724479	"27"	521.136728637	518.569896863	1.5	0.1
0.01	1	0.00344541300000856	1	124	NA	295.734037908	0	0.43	5.99	1	295.094081948	295.097527361	"27"	521.136728637	518.569896863	1.5	0.1
0.01	1	0.404576701999986	2	124	NA	295.734037908	0	0.43	5.99	1	295.327871059	295.732447761	"27"	521.136728637	518.569896863	1.5	0.1
0.01	1	0.558833198000002	1	13	NA	299.398543248	0	0.02	6.01	1	297.781856709	298.340689907	"28"	521.136728637	518.569896863	1.5	0.1
0.01	1	0.124527769999986	1	13	NA	299.398543248	0	0.02	6.01	1	298.566611218	298.691138988	"28"	521.136728637	518.569896863	1.5	0.1
0.01	1	0.479771404000019	2	13	NA	299.398543248	0	0.02	6.01	1	298.917176063	299.396947467	"28"	521.136728637	518.569896863	1.5	0.1
0.01	1	0.188864421999995	1	125	NA	307.276986615	0	0.23	6.24	1	301.454932773	301.643797195	"29"	521.136728637	518.569896863	1.5	0.1
0.01	1	0.00457724199998211	1	125	NA	307.276986615	0	0.23	6.24	1	301.872112018	301.87668926	"29"	521.136728637	518.569896863	1.5	0.1
0.01	1	0.00401319400003786	1	125	NA	307.276986615	0	0.23	6.24	1	302.105838283	302.109851477	"29"	521.136728637	518.569896863	1.5	0.1
0.01	1	0.0044675839999968	1	125	NA	307.276986615	0	0.23	6.24	1	302.339525249	302.343992833	"29"	521.136728637	518.569896863	1.5	0.1
0.01	1	0.00378854199999523	1	125	NA	307.276986615	0	0.23	6.24	1	302.573389445	302.577177987	"29"	521.136728637	518.569896863	1.5	0.1
0.01	1	0.00395123800001329	1	125	NA	307.276986615	0	0.23	6.24	1	302.807040393	302.810991631	"29"	521.136728637	518.569896863	1.5	0.1
0.01	1	0.00372732499999984	1	125	NA	307.276986615	0	0.23	6.24	1	303.04067986	303.044407185	"29"	521.136728637	518.569896863	1.5	0.1
0.01	1	0.00439841100001104	1	125	NA	307.276986615	0	0.23	6.24	1	303.274553849	303.27895226	"29"	521.136728637	518.569896863	1.5	0.1
0.01	1	0.00366979300002868	1	125	NA	307.276986615	0	0.23	6.24	1	303.50817762	303.511847413	"29"	521.136728637	518.569896863	1.5	0.1
