"payoff.level"	"balloon"	"rt"	"resp"	"explode.trial"	"explode.time"	"finish.time"	"exploded"	"trial.total"	"cumulative.total"	"finished"	"trial.start"	"trial.end"	"trial.num"	"secs"	"start.time"	"iti"	"isi"
0.01	1	0.823957394997706	1	64	17.1576803850039	NA	1	0	0	1	0.0241456000003382	0.848102994998044	"1"	56107.298107398	56104.826900487	1.5	0.1
0.01	1	0.311968068002898	1	64	17.1576803850039	NA	1	0	0	1	1.14262939499895	1.45459746300185	"1"	56107.298107398	56104.826900487	1.5	0.1
0.01	1	0.0743501339966315	1	64	17.1576803850039	NA	1	0	0	1	1.67682005000097	1.7511701839976	"1"	56107.298107398	56104.826900487	1.5	0.1
0.01	1	0.245781052995881	1	64	17.1576803850039	NA	1	0	0	1	1.97734240400314	2.22312345699902	"1"	56107.298107398	56104.826900487	1.5	0.1
0.01	1	0.0574131599933025	1	64	17.1576803850039	NA	1	0	0	1	2.46157476000371	2.51898791999702	"1"	56107.298107398	56104.826900487	1.5	0.1
0.01	1	0.0228308970035869	1	64	17.1576803850039	NA	1	0	0	1	2.7452880819983	2.76811897900188	"1"	56107.298107398	56104.826900487	1.5	0.1
0.01	1	0.00461146699672099	1	64	17.1576803850039	NA	1	0	0	1	2.99571429500065	3.00032576199737	"1"	56107.298107398	56104.826900487	1.5	0.1
0.01	1	0.00327804599510273	1	64	17.1576803850039	NA	1	0	0	1	3.2294459850018	3.23272403099691	"1"	56107.298107398	56104.826900487	1.5	0.1
0.01	1	0.0038529999947059	1	64	17.1576803850039	NA	1	0	0	1	3.46319854500325	3.46705154499796	"1"	56107.298107398	56104.826900487	1.5	0.1
0.01	1	0.0044457850017352	1	64	17.1576803850039	NA	1	0	0	1	3.69702477000101	3.70147055500274	"1"	56107.298107398	56104.826900487	1.5	0.1
0.01	1	0.0936221969968756	1	64	17.1576803850039	NA	1	0	0	1	3.93055465000361	4.02417684700049	"1"	56107.298107398	56104.826900487	1.5	0.1
0.01	1	0.00929016200097976	1	64	17.1576803850039	NA	1	0	0	1	4.26450092199957	4.27379108400055	"1"	56107.298107398	56104.826900487	1.5	0.1
0.01	1	0.0449650299997302	1	64	17.1576803850039	NA	1	0	0	1	4.49836021700321	4.54332524700294	"1"	56107.298107398	56104.826900487	1.5	0.1
0.01	1	0.00391409200528869	1	64	17.1576803850039	NA	1	0	0	1	4.78213722699729	4.78605131900258	"1"	56107.298107398	56104.826900487	1.5	0.1
0.01	1	0.00386325100407703	1	64	17.1576803850039	NA	1	0	0	1	5.01577767999697	5.01964093100105	"1"	56107.298107398	56104.826900487	1.5	0.1
0.01	1	0.101128911002888	1	64	17.1576803850039	NA	1	0	0	1	5.24960045499756	5.35072936600045	"1"	56107.298107398	56104.826900487	1.5	0.1
0.01	1	0.00333434200001648	1	64	17.1576803850039	NA	1	0	0	1	5.58340675300133	5.58674109500134	"1"	56107.298107398	56104.826900487	1.5	0.1
0.01	1	0.00388240400206996	1	64	17.1576803850039	NA	1	0	0	1	5.81718610700045	5.82106851100252	"1"	56107.298107398	56104.826900487	1.5	0.1
0.01	1	0.107822617996135	1	64	17.1576803850039	NA	1	0	0	1	6.05098746200383	6.15881007999997	"1"	56107.298107398	56104.826900487	1.5	0.1
0.01	1	0.00362302199937403	1	64	17.1576803850039	NA	1	0	0	1	6.38474322500406	6.38836624700343	"1"	56107.298107398	56104.826900487	1.5	0.1
0.01	1	0.00401303300168365	1	64	17.1576803850039	NA	1	0	0	1	6.61853179000173	6.62254482300341	"1"	56107.298107398	56104.826900487	1.5	0.1
0.01	1	0.122913332997996	1	64	17.1576803850039	NA	1	0	0	1	6.85227254000347	6.97518587300146	"1"	56107.298107398	56104.826900487	1.5	0.1
0.01	1	0.00390106499980902	1	64	17.1576803850039	NA	1	0	0	1	7.20293063000281	7.20683169500262	"1"	56107.298107398	56104.826900487	1.5	0.1
0.01	1	0.00388087500323309	1	64	17.1576803850039	NA	1	0	0	1	7.43667651199939	7.44055738700263	"1"	56107.298107398	56104.826900487	1.5	0.1
0.01	1	0.00391776600008598	1	64	17.1576803850039	NA	1	0	0	1	7.6702734749997	7.67419124099979	"1"	56107.298107398	56104.826900487	1.5	0.1
0.01	1	0.134736829997564	1	64	17.1576803850039	NA	1	0	0	1	7.9040670500035	8.03880388000107	"1"	56107.298107398	56104.826900487	1.5	0.1
0.01	1	0.00461091499892063	1	64	17.1576803850039	NA	1	0	0	1	8.27133242999844	8.27594334499736	"1"	56107.298107398	56104.826900487	1.5	0.1
0.01	1	0.00376780200167559	1	64	17.1576803850039	NA	1	0	0	1	8.50497457700112	8.5087423790028	"1"	56107.298107398	56104.826900487	1.5	0.1
0.01	1	0.00393521999649238	1	64	17.1576803850039	NA	1	0	0	1	8.73881788500148	8.74275310499797	"1"	56107.298107398	56104.826900487	1.5	0.1
0.01	1	0.00372828800027492	1	64	17.1576803850039	NA	1	0	0	1	8.97252578500047	8.97625407300075	"1"	56107.298107398	56104.826900487	1.5	0.1
0.01	1	0.0038552769983653	1	64	17.1576803850039	NA	1	0	0	1	9.20619789200282	9.21005316900118	"1"	56107.298107398	56104.826900487	1.5	0.1
0.01	1	0.00377703900448978	1	64	17.1576803850039	NA	1	0	0	1	9.4399418719986	9.44371891100309	"1"	56107.298107398	56104.826900487	1.5	0.1
0.01	1	0.116967163994559	1	64	17.1576803850039	NA	1	0	0	1	9.67369596200297	9.79066312599753	"1"	56107.298107398	56104.826900487	1.5	0.1
0.01	1	0.0036438859970076	1	64	17.1576803850039	NA	1	0	0	1	10.0242280050006	10.0278718909976	"1"	56107.298107398	56104.826900487	1.5	0.1
0.01	1	0.00394633300311398	1	64	17.1576803850039	NA	1	0	0	1	10.2579753600003	10.2619216930034	"1"	56107.298107398	56104.826900487	1.5	0.1
0.01	1	0.00389148700196529	1	64	17.1576803850039	NA	1	0	0	1	10.4916983599978	10.4955898469998	"1"	56107.298107398	56104.826900487	1.5	0.1
0.01	1	0.00385378200007835	1	64	17.1576803850039	NA	1	0	0	1	10.7254206170037	10.7292743990038	"1"	56107.298107398	56104.826900487	1.5	0.1
0.01	1	0.00392336799995974	1	64	17.1576803850039	NA	1	0	0	1	10.959242484998	10.9631658529979	"1"	56107.298107398	56104.826900487	1.5	0.1
0.01	1	0.00380248900182778	1	64	17.1576803850039	NA	1	0	0	1	11.192768932	11.1965714210019	"1"	56107.298107398	56104.826900487	1.5	0.1
0.01	1	0.00399607200233731	1	64	17.1576803850039	NA	1	0	0	1	11.4265930749971	11.4305891469994	"1"	56107.298107398	56104.826900487	1.5	0.1
0.01	1	0.00453580499743111	1	64	17.1576803850039	NA	1	0	0	1	11.660441	11.6649768049974	"1"	56107.298107398	56104.826900487	1.5	0.1
0.01	1	0.00451525999960722	1	64	17.1576803850039	NA	1	0	0	1	11.8940342299975	11.8985494899971	"1"	56107.298107398	56104.826900487	1.5	0.1
0.01	1	0.00395921299787005	1	64	17.1576803850039	NA	1	0	0	1	12.1276957520022	12.1316549650001	"1"	56107.298107398	56104.826900487	1.5	0.1
0.01	1	0.00386554199940292	1	64	17.1576803850039	NA	1	0	0	1	12.3614400349979	12.3653055769973	"1"	56107.298107398	56104.826900487	1.5	0.1
0.01	1	0.00386675899790134	1	64	17.1576803850039	NA	1	0	0	1	12.5952929100022	12.5991596690001	"1"	56107.298107398	56104.826900487	1.5	0.1
0.01	1	0.00387535100162495	1	64	17.1576803850039	NA	1	0	0	1	12.828887732001	12.8327630830026	"1"	56107.298107398	56104.826900487	1.5	0.1
0.01	1	0.00461484499828657	1	64	17.1576803850039	NA	1	0	0	1	13.0628587500032	13.0674735950015	"1"	56107.298107398	56104.826900487	1.5	0.1
0.01	1	0.00395465100154979	1	64	17.1576803850039	NA	1	0	0	1	13.2964571019984	13.3004117529999	"1"	56107.298107398	56104.826900487	1.5	0.1
0.01	1	0.00389068199729081	1	64	17.1576803850039	NA	1	0	0	1	13.5301120750009	13.5340027569982	"1"	56107.298107398	56104.826900487	1.5	0.1
0.01	1	0.0045475910010282	1	64	17.1576803850039	NA	1	0	0	1	13.7638480210007	13.7683956120018	"1"	56107.298107398	56104.826900487	1.5	0.1
0.01	1	0.00336885500291828	1	64	17.1576803850039	NA	1	0	0	1	13.9974950199976	14.0008638750005	"1"	56107.298107398	56104.826900487	1.5	0.1
0.01	1	0.00379903300199658	1	64	17.1576803850039	NA	1	0	0	1	14.2312828319991	14.2350818650011	"1"	56107.298107398	56104.826900487	1.5	0.1
0.01	1	0.00368073999561602	1	64	17.1576803850039	NA	1	0	0	1	14.465107105003	14.4687878449986	"1"	56107.298107398	56104.826900487	1.5	0.1
0.01	1	0.00389343900314998	1	64	17.1576803850039	NA	1	0	0	1	14.698846731997	14.7027401710002	"1"	56107.298107398	56104.826900487	1.5	0.1
0.01	1	0.00377726999431616	1	64	17.1576803850039	NA	1	0	0	1	14.9325608170038	14.9363380869981	"1"	56107.298107398	56104.826900487	1.5	0.1
0.01	1	0.00459246699756477	1	64	17.1576803850039	NA	1	0	0	1	15.1663200149997	15.1709124819972	"1"	56107.298107398	56104.826900487	1.5	0.1
0.01	1	0.00407253600133117	1	64	17.1576803850039	NA	1	0	0	1	15.4000236450011	15.4040961810024	"1"	56107.298107398	56104.826900487	1.5	0.1
0.01	1	0.00407134099805262	1	64	17.1576803850039	NA	1	0	0	1	15.6336835000038	15.6377548410019	"1"	56107.298107398	56104.826900487	1.5	0.1
0.01	1	0.00382245999935549	1	64	17.1576803850039	NA	1	0	0	1	15.8673525970007	15.8711750570001	"1"	56107.298107398	56104.826900487	1.5	0.1
0.01	1	0.00398514800326666	1	64	17.1576803850039	NA	1	0	0	1	16.1011750769976	16.1051602250009	"1"	56107.298107398	56104.826900487	1.5	0.1
0.01	1	0.00386184699891601	1	64	17.1576803850039	NA	1	0	0	1	16.3349505520018	16.3388123990007	"1"	56107.298107398	56104.826900487	1.5	0.1
0.01	1	0.00460099200427067	1	64	17.1576803850039	NA	1	0	0	1	16.568547609997	16.5731486020013	"1"	56107.298107398	56104.826900487	1.5	0.1
0.01	1	0.00387563499680255	1	64	17.1576803850039	NA	1	0	0	1	16.8023103320011	16.8061859669979	"1"	56107.298107398	56104.826900487	1.5	0.1
0.01	1	0.00208385799487587	1	64	17.1576803850039	NA	1	0	0	1	17.0359183730034	17.0380022309982	"1"	56107.298107398	56104.826900487	1.5	0.1
0.01	1	0.522161375003634	1	15	23.5342280320037	NA	1	0	0	1	19.189594165	19.7117555400037	"2"	56107.298107398	56104.826900487	1.5	0.1
0.01	1	0.00458524499845225	1	15	23.5342280320037	NA	1	0	0	1	19.9409403500031	19.9455255950015	"2"	56107.298107398	56104.826900487	1.5	0.1
0.01	1	0.00405251799384132	1	15	23.5342280320037	NA	1	0	0	1	20.1747021870033	20.1787547049971	"2"	56107.298107398	56104.826900487	1.5	0.1
0.01	1	0.110818236003979	1	15	23.5342280320037	NA	1	0	0	1	20.408389917	20.519208153004	"2"	56107.298107398	56104.826900487	1.5	0.1
0.01	1	0.00400759700278286	1	15	23.5342280320037	NA	1	0	0	1	20.758837112	20.7628447090028	"2"	56107.298107398	56104.826900487	1.5	0.1
0.01	1	0.00452882000536192	1	15	23.5342280320037	NA	1	0	0	1	20.9928460349984	20.9973748550037	"2"	56107.298107398	56104.826900487	1.5	0.1
0.01	1	0.109889280000061	1	15	23.5342280320037	NA	1	0	0	1	21.2263905349973	21.3362798149974	"2"	56107.298107398	56104.826900487	1.5	0.1
0.01	1	0.0881650909941527	1	15	23.5342280320037	NA	1	0	0	1	21.5602661700032	21.6484312609973	"2"	56107.298107398	56104.826900487	1.5	0.1
0.01	1	0.00987072099815123	1	15	23.5342280320037	NA	1	0	0	1	21.8775563800009	21.887427100999	"2"	56107.298107398	56104.826900487	1.5	0.1
0.01	1	0.00445088600099552	1	15	23.5342280320037	NA	1	0	0	1	22.1113248010006	22.1157756870016	"2"	56107.298107398	56104.826900487	1.5	0.1
0.01	1	0.00350002499908442	1	15	23.5342280320037	NA	1	0	0	1	22.3448851499998	22.3483851749988	"2"	56107.298107398	56104.826900487	1.5	0.1
0.01	1	0.0518828089989256	1	15	23.5342280320037	NA	1	0	0	1	22.5787460600041	22.630628869003	"2"	56107.298107398	56104.826900487	1.5	0.1
0.01	1	0.0808022740020533	1	15	23.5342280320037	NA	1	0	0	1	22.8624909450009	22.943293219003	"2"	56107.298107398	56104.826900487	1.5	0.1
0.01	1	0.00426509400131181	1	15	23.5342280320037	NA	1	0	0	1	23.1797149409977	23.183980034999	"2"	56107.298107398	56104.826900487	1.5	0.1
0.01	1	0.00462103199970443	1	15	23.5342280320037	NA	1	0	0	1	23.4134205849987	23.4180416169984	"2"	56107.298107398	56104.826900487	1.5	0.1
0.01	1	0.00254373699863208	1	66	NA	41.7128292289999	0	0.59	0.59	1	25.5838158469996	25.5863595839983	"3"	56107.298107398	56104.826900487	1.5	0.1
0.01	1	0.00401167800009716	1	66	NA	41.7128292289999	0	0.59	0.59	1	25.8174567949973	25.8214684729974	"3"	56107.298107398	56104.826900487	1.5	0.1
0.01	1	0.0601893910061335	1	66	NA	41.7128292289999	0	0.59	0.59	1	26.0512437849975	26.1114331760036	"3"	56107.298107398	56104.826900487	1.5	0.1
0.01	1	0.0560593929985771	1	66	NA	41.7128292289999	0	0.59	0.59	1	26.3349787449988	26.3910381379974	"3"	56107.298107398	56104.826900487	1.5	0.1
0.01	1	0.00227059399912832	1	66	NA	41.7128292289999	0	0.59	0.59	1	26.6187911759989	26.6210617699981	"3"	56107.298107398	56104.826900487	1.5	0.1
0.01	1	0.0100209250012995	1	66	NA	41.7128292289999	0	0.59	0.59	1	26.852541344997	26.8625622699983	"3"	56107.298107398	56104.826900487	1.5	0.1
0.01	1	0.00391744200169342	1	66	NA	41.7128292289999	0	0.59	0.59	1	27.086301244999	27.0902186870007	"3"	56107.298107398	56104.826900487	1.5	0.1
0.01	1	0.0232494970041444	1	66	NA	41.7128292289999	0	0.59	0.59	1	27.3200601749995	27.3433096720037	"3"	56107.298107398	56104.826900487	1.5	0.1
0.01	1	0.0842406779993325	1	66	NA	41.7128292289999	0	0.59	0.59	1	27.5704286550026	27.6546693330019	"3"	56107.298107398	56104.826900487	1.5	0.1
0.01	1	0.072711947002972	1	66	NA	41.7128292289999	0	0.59	0.59	1	27.8876386769989	27.9603506240019	"3"	56107.298107398	56104.826900487	1.5	0.1
0.01	1	0.123909216999891	1	66	NA	41.7128292289999	0	0.59	0.59	1	28.188082376997	28.3119915939969	"3"	56107.298107398	56104.826900487	1.5	0.1
0.01	1	0.0694392580044223	1	66	NA	41.7128292289999	0	0.59	0.59	1	28.5387486629988	28.6081879210033	"3"	56107.298107398	56104.826900487	1.5	0.1
0.01	1	0.0810518470025272	1	66	NA	41.7128292289999	0	0.59	0.59	1	28.8392250199977	28.9202768670002	"3"	56107.298107398	56104.826900487	1.5	0.1
0.01	1	0.0824317779988633	1	66	NA	41.7128292289999	0	0.59	0.59	1	29.1564838749982	29.2389156529971	"3"	56107.298107398	56104.826900487	1.5	0.1
0.01	1	0.0860668700042879	1	66	NA	41.7128292289999	0	0.59	0.59	1	29.4736277699994	29.5596946400037	"3"	56107.298107398	56104.826900487	1.5	0.1
0.01	1	0.0881817900008173	1	66	NA	41.7128292289999	0	0.59	0.59	1	29.7907210600024	29.8789028500032	"3"	56107.298107398	56104.826900487	1.5	0.1
0.01	1	0.00382806200650521	1	66	NA	41.7128292289999	0	0.59	0.59	1	30.1079941049975	30.111822167004	"3"	56107.298107398	56104.826900487	1.5	0.1
0.01	1	0.0656375480029965	1	66	NA	41.7128292289999	0	0.59	0.59	1	30.3417992899995	30.4074368380025	"3"	56107.298107398	56104.826900487	1.5	0.1
0.01	1	0.00374958100292133	1	66	NA	41.7128292289999	0	0.59	0.59	1	30.6422285419976	30.6459781230005	"3"	56107.298107398	56104.826900487	1.5	0.1
0.01	1	0.090625534998253	1	66	NA	41.7128292289999	0	0.59	0.59	1	30.8759757250009	30.9666012599992	"3"	56107.298107398	56104.826900487	1.5	0.1
0.01	1	0.00463885500357719	1	66	NA	41.7128292289999	0	0.59	0.59	1	31.1933075199995	31.1979463750031	"3"	56107.298107398	56104.826900487	1.5	0.1
0.01	1	0.0604216080027982	1	66	NA	41.7128292289999	0	0.59	0.59	1	31.4268548699984	31.4872764780011	"3"	56107.298107398	56104.826900487	1.5	0.1
0.01	1	0.079831438997644	1	66	NA	41.7128292289999	0	0.59	0.59	1	31.727419832001	31.8072512709987	"3"	56107.298107398	56104.826900487	1.5	0.1
0.01	1	0.00462024700391339	1	66	NA	41.7128292289999	0	0.59	0.59	1	32.04469961	32.0493198570039	"3"	56107.298107398	56104.826900487	1.5	0.1
0.01	1	0.0256258500012336	1	66	NA	41.7128292289999	0	0.59	0.59	1	32.2784399820011	32.3040658320024	"3"	56107.298107398	56104.826900487	1.5	0.1
0.01	1	0.00387940999644343	1	66	NA	41.7128292289999	0	0.59	0.59	1	32.5287485570007	32.5326279669971	"3"	56107.298107398	56104.826900487	1.5	0.1
0.01	1	0.0613225900015095	1	66	NA	41.7128292289999	0	0.59	0.59	1	32.7626996699983	32.8240222599998	"3"	56107.298107398	56104.826900487	1.5	0.1
0.01	1	0.00206315200193785	1	66	NA	41.7128292289999	0	0.59	0.59	1	33.0462225500014	33.0482857020033	"3"	56107.298107398	56104.826900487	1.5	0.1
0.01	1	0.00399899300100515	1	66	NA	41.7128292289999	0	0.59	0.59	1	33.2800461299994	33.2840451230004	"3"	56107.298107398	56104.826900487	1.5	0.1
0.01	1	0.0623793619961361	1	66	NA	41.7128292289999	0	0.59	0.59	1	33.5137948620031	33.5761742239993	"3"	56107.298107398	56104.826900487	1.5	0.1
0.01	1	0.00461760199686978	1	66	NA	41.7128292289999	0	0.59	0.59	1	33.7976626000018	33.8022802019987	"3"	56107.298107398	56104.826900487	1.5	0.1
0.01	1	0.00436212399654323	1	66	NA	41.7128292289999	0	0.59	0.59	1	34.0313424210035	34.035704545	"3"	56107.298107398	56104.826900487	1.5	0.1
0.01	1	0.0548970210002153	1	66	NA	41.7128292289999	0	0.59	0.59	1	34.2650470770022	34.3199440980025	"3"	56107.298107398	56104.826900487	1.5	0.1
0.01	1	0.00434285899973474	1	66	NA	41.7128292289999	0	0.59	0.59	1	34.5488880230041	34.5532308820038	"3"	56107.298107398	56104.826900487	1.5	0.1
0.01	1	0.0809841199952643	1	66	NA	41.7128292289999	0	0.59	0.59	1	34.7826050220028	34.8635891419981	"3"	56107.298107398	56104.826900487	1.5	0.1
0.01	1	0.00382602799800225	1	66	NA	41.7128292289999	0	0.59	0.59	1	35.0996181750015	35.1034442029995	"3"	56107.298107398	56104.826900487	1.5	0.1
0.01	1	0.0895367609991808	1	66	NA	41.7128292289999	0	0.59	0.59	1	35.3334958300038	35.423032591003	"3"	56107.298107398	56104.826900487	1.5	0.1
0.01	1	0.00446968699543504	1	66	NA	41.7128292289999	0	0.59	0.59	1	35.650748070002	35.6552177569974	"3"	56107.298107398	56104.826900487	1.5	0.1
0.01	1	0.0831876180018298	1	66	NA	41.7128292289999	0	0.59	0.59	1	35.8844531799987	35.9676407980005	"3"	56107.298107398	56104.826900487	1.5	0.1
0.01	1	0.00473770499957027	1	66	NA	41.7128292289999	0	0.59	0.59	1	36.2015746769976	36.2063123819971	"3"	56107.298107398	56104.826900487	1.5	0.1
0.01	1	0.061244535005244	1	66	NA	41.7128292289999	0	0.59	0.59	1	36.435291859998	36.4965363950032	"3"	56107.298107398	56104.826900487	1.5	0.1
0.01	1	0.00495028000295861	1	66	NA	41.7128292289999	0	0.59	0.59	1	36.7191083799989	36.7240586600019	"3"	56107.298107398	56104.826900487	1.5	0.1
0.01	1	0.0701817930021207	1	66	NA	41.7128292289999	0	0.59	0.59	1	36.9527849599981	37.0229667530002	"3"	56107.298107398	56104.826900487	1.5	0.1
0.01	1	0.00464651999936905	1	66	NA	41.7128292289999	0	0.59	0.59	1	37.2533596150024	37.2580061350018	"3"	56107.298107398	56104.826900487	1.5	0.1
0.01	1	0.0252265119997901	1	66	NA	41.7128292289999	0	0.59	0.59	1	37.4871663049998	37.5123928169996	"3"	56107.298107398	56104.826900487	1.5	0.1
0.01	1	0.00465889200131642	1	66	NA	41.7128292289999	0	0.59	0.59	1	37.7375734300003	37.7422323220017	"3"	56107.298107398	56104.826900487	1.5	0.1
0.01	1	0.0763031410024269	1	66	NA	41.7128292289999	0	0.59	0.59	1	37.9712322569976	38.047535398	"3"	56107.298107398	56104.826900487	1.5	0.1
0.01	1	0.00202903500030516	1	66	NA	41.7128292289999	0	0.59	0.59	1	38.2884211319979	38.2904501669982	"3"	56107.298107398	56104.826900487	1.5	0.1
0.01	1	0.0781358930034912	1	66	NA	41.7128292289999	0	0.59	0.59	1	38.5222025679977	38.6003384610012	"3"	56107.298107398	56104.826900487	1.5	0.1
0.01	1	0.00482039999769768	1	66	NA	41.7128292289999	0	0.59	0.59	1	38.8226527000006	38.8274730999983	"3"	56107.298107398	56104.826900487	1.5	0.1
0.01	1	0.0543082340009278	1	66	NA	41.7128292289999	0	0.59	0.59	1	39.0564927349988	39.1108009689997	"3"	56107.298107398	56104.826900487	1.5	0.1
0.01	1	0.0020909489976475	1	66	NA	41.7128292289999	0	0.59	0.59	1	39.3401809990028	39.3422719480004	"3"	56107.298107398	56104.826900487	1.5	0.1
0.01	1	0.0972213459972409	1	66	NA	41.7128292289999	0	0.59	0.59	1	39.5739490850028	39.6711704310001	"3"	56107.298107398	56104.826900487	1.5	0.1
0.01	1	0.116741377001745	1	66	NA	41.7128292289999	0	0.59	0.59	1	39.9077859800018	40.0245273570035	"3"	56107.298107398	56104.826900487	1.5	0.1
0.01	1	0.00392936400021426	1	66	NA	41.7128292289999	0	0.59	0.59	1	40.2584897249981	40.2624190889983	"3"	56107.298107398	56104.826900487	1.5	0.1
0.01	1	0.0834145819972036	1	66	NA	41.7128292289999	0	0.59	0.59	1	40.4921894700019	40.5756040519991	"3"	56107.298107398	56104.826900487	1.5	0.1
0.01	1	0.00209653400088428	1	66	NA	41.7128292289999	0	0.59	0.59	1	40.8093980729973	40.8114946069982	"3"	56107.298107398	56104.826900487	1.5	0.1
0.01	1	0.107635000997107	1	66	NA	41.7128292289999	0	0.59	0.59	1	41.0430303600006	41.1506653609977	"3"	56107.298107398	56104.826900487	1.5	0.1
0.01	1	0.00212013300188119	1	66	NA	41.7128292289999	0	0.59	0.59	1	41.3770128050019	41.3791329380037	"3"	56107.298107398	56104.826900487	1.5	0.1
0.01	1	0.100471165998897	2	66	NA	41.7128292289999	0	0.59	0.59	1	41.6107045020035	41.7111756680024	"3"	56107.298107398	56104.826900487	1.5	0.1
0.01	1	0.422145484000794	1	16	48.239988991998	NA	1	0	0.59	1	43.7475080369986	44.1696535209994	"4"	56107.298107398	56104.826900487	1.5	0.1
0.01	1	0.0818942190016969	1	16	48.239988991998	NA	1	0	0.59	1	44.3987603049973	44.480654523999	"4"	56107.298107398	56104.826900487	1.5	0.1
0.01	1	0.00402134099567775	1	16	48.239988991998	NA	1	0	0.59	1	44.7158882020012	44.7199095429969	"4"	56107.298107398	56104.826900487	1.5	0.1
0.01	1	0.0100898780001444	1	16	48.239988991998	NA	1	0	0.59	1	44.9496498770022	44.9597397550024	"4"	56107.298107398	56104.826900487	1.5	0.1
0.01	1	0.00457640000240644	1	16	48.239988991998	NA	1	0	0.59	1	45.1833621350015	45.1879385350039	"4"	56107.298107398	56104.826900487	1.5	0.1
0.01	1	0.17380423600116	1	16	48.239988991998	NA	1	0	0.59	1	45.417096156998	45.5909003929992	"4"	56107.298107398	56104.826900487	1.5	0.1
0.01	1	0.0371609750000061	1	16	48.239988991998	NA	1	0	0.59	1	45.817788221997	45.854949196997	"4"	56107.298107398	56104.826900487	1.5	0.1
0.01	1	0.0347130019945325	1	16	48.239988991998	NA	1	0	0.59	1	46.0848044790037	46.1195174809982	"4"	56107.298107398	56104.826900487	1.5	0.1
0.01	1	0.00206611400062684	1	16	48.239988991998	NA	1	0	0.59	1	46.3519186150006	46.3539847290012	"4"	56107.298107398	56104.826900487	1.5	0.1
0.01	1	0.0025091909992625	1	16	48.239988991998	NA	1	0	0.59	1	46.5856348410016	46.5881440320009	"4"	56107.298107398	56104.826900487	1.5	0.1
0.01	1	0.0529026799995336	1	16	48.239988991998	NA	1	0	0.59	1	46.8194792049981	46.8723818849976	"4"	56107.298107398	56104.826900487	1.5	0.1
0.01	1	0.00225590700574685	1	16	48.239988991998	NA	1	0	0.59	1	47.1031909169978	47.1054468240036	"4"	56107.298107398	56104.826900487	1.5	0.1
0.01	1	0.00241356399783399	1	16	48.239988991998	NA	1	0	0.59	1	47.3370140800034	47.3394276440013	"4"	56107.298107398	56104.826900487	1.5	0.1
0.01	1	0.00408397700084606	1	16	48.239988991998	NA	1	0	0.59	1	47.5707758499993	47.5748598270002	"4"	56107.298107398	56104.826900487	1.5	0.1
0.01	1	0.0110895100006019	1	16	48.239988991998	NA	1	0	0.59	1	47.8044449649969	47.8155344749975	"4"	56107.298107398	56104.826900487	1.5	0.1
0.01	1	0.0718964919942664	1	16	48.239988991998	NA	1	0	0.59	1	48.0549367850035	48.1268332769978	"4"	56107.298107398	56104.826900487	1.5	0.1
0.01	1	0.0039574209949933	1	50	62.8337376120035	NA	1	0	0.59	1	50.2753004120023	50.2792578329972	"5"	56107.298107398	56104.826900487	1.5	0.1
0.01	1	0.00455720700119855	1	50	62.8337376120035	NA	1	0	0.59	1	50.5090206530003	50.5135778600015	"5"	56107.298107398	56104.826900487	1.5	0.1
0.01	1	0.0655371969987755	1	50	62.8337376120035	NA	1	0	0.59	1	50.7426896600009	50.8082268569997	"5"	56107.298107398	56104.826900487	1.5	0.1
0.01	1	0.0594503729953431	1	50	62.8337376120035	NA	1	0	0.59	1	51.0432412540031	51.1026916269984	"5"	56107.298107398	56104.826900487	1.5	0.1
0.01	1	0.00456400999973994	1	50	62.8337376120035	NA	1	0	0.59	1	51.327071810003	51.3316358200027	"5"	56107.298107398	56104.826900487	1.5	0.1
0.01	1	0.0312146080032107	1	50	62.8337376120035	NA	1	0	0.59	1	51.5607961269998	51.592010735003	"5"	56107.298107398	56104.826900487	1.5	0.1
0.01	1	0.0839449810009683	1	50	62.8337376120035	NA	1	0	0.59	1	51.8279428829992	51.9118878640002	"5"	56107.298107398	56104.826900487	1.5	0.1
0.01	1	0.0873979629977839	1	50	62.8337376120035	NA	1	0	0.59	1	52.1450494119999	52.2324473749977	"5"	56107.298107398	56104.826900487	1.5	0.1
0.01	1	0.105689322001126	1	50	62.8337376120035	NA	1	0	0.59	1	52.4623240220026	52.5680133440037	"5"	56107.298107398	56104.826900487	1.5	0.1
0.01	1	0.115700829999696	1	50	62.8337376120035	NA	1	0	0.59	1	52.7961458950012	52.9118467250009	"5"	56107.298107398	56104.826900487	1.5	0.1
0.01	1	0.00222923800174613	1	50	62.8337376120035	NA	1	0	0.59	1	53.1467896699978	53.1490189079996	"5"	56107.298107398	56104.826900487	1.5	0.1
0.01	1	0.0361568289954448	1	50	62.8337376120035	NA	1	0	0.59	1	53.3805079020021	53.4166647309976	"5"	56107.298107398	56104.826900487	1.5	0.1
0.01	1	0.0875698900053976	1	50	62.8337376120035	NA	1	0	0.59	1	53.6476914099985	53.7352613000039	"5"	56107.298107398	56104.826900487	1.5	0.1
0.01	1	0.00376187000074424	1	50	62.8337376120035	NA	1	0	0.59	1	53.9647915050009	53.9685533750016	"5"	56107.298107398	56104.826900487	1.5	0.1
0.01	1	0.0572043060019496	1	50	62.8337376120035	NA	1	0	0.59	1	54.1984972869977	54.2557015929997	"5"	56107.298107398	56104.826900487	1.5	0.1
0.01	1	0.00377393799863057	1	50	62.8337376120035	NA	1	0	0.59	1	54.4823575949995	54.4861315329981	"5"	56107.298107398	56104.826900487	1.5	0.1
0.01	1	0.0507930569947348	1	50	62.8337376120035	NA	1	0	0.59	1	54.7159780170041	54.7667710739988	"5"	56107.298107398	56104.826900487	1.5	0.1
0.01	1	0.00201558399567148	1	50	62.8337376120035	NA	1	0	0.59	1	54.9999270030021	55.0019425869978	"5"	56107.298107398	56104.826900487	1.5	0.1
0.01	1	0.0696192510004039	1	50	62.8337376120035	NA	1	0	0.59	1	55.2336074220002	55.3032266730006	"5"	56107.298107398	56104.826900487	1.5	0.1
0.01	1	0.00375178000103915	1	50	62.8337376120035	NA	1	0	0.59	1	55.5342054650027	55.5379572450038	"5"	56107.298107398	56104.826900487	1.5	0.1
0.01	1	0.0467531670001335	1	50	62.8337376120035	NA	1	0	0.59	1	55.7677983340036	55.8145515010037	"5"	56107.298107398	56104.826900487	1.5	0.1
0.01	1	0.00467012399894884	1	50	62.8337376120035	NA	1	0	0.59	1	56.0517735910034	56.0564437150024	"5"	56107.298107398	56104.826900487	1.5	0.1
0.01	1	0.0177854139983538	1	50	62.8337376120035	NA	1	0	0.59	1	56.285398895001	56.3031843089993	"5"	56107.298107398	56104.826900487	1.5	0.1
0.01	1	0.00205566099612042	1	50	62.8337376120035	NA	1	0	0.59	1	56.5358902790031	56.5379459399992	"5"	56107.298107398	56104.826900487	1.5	0.1
0.01	1	0.0542967639994458	1	50	62.8337376120035	NA	1	0	0.59	1	56.7694849800027	56.8237817440022	"5"	56107.298107398	56104.826900487	1.5	0.1
0.01	1	0.00219292999827303	1	50	62.8337376120035	NA	1	0	0.59	1	57.053286413	57.0554793429983	"5"	56107.298107398	56104.826900487	1.5	0.1
0.01	1	0.0563511439977447	1	50	62.8337376120035	NA	1	0	0.59	1	57.287042887001	57.3433940309988	"5"	56107.298107398	56104.826900487	1.5	0.1
0.01	1	0.00405246500304202	1	50	62.8337376120035	NA	1	0	0.59	1	57.5709005419994	57.5749530070025	"5"	56107.298107398	56104.826900487	1.5	0.1
0.01	1	0.00462607199733611	1	50	62.8337376120035	NA	1	0	0.59	1	57.8046152300012	57.8092413019986	"5"	56107.298107398	56104.826900487	1.5	0.1
0.01	1	0.00215846600622172	1	50	62.8337376120035	NA	1	0	0.59	1	58.0383012719976	58.0404597380038	"5"	56107.298107398	56104.826900487	1.5	0.1
0.01	1	0.00382851500035031	1	50	62.8337376120035	NA	1	0	0.59	1	58.2719906100028	58.2758191250032	"5"	56107.298107398	56104.826900487	1.5	0.1
0.01	1	0.00437129199417541	1	50	62.8337376120035	NA	1	0	0.59	1	58.5058131800033	58.5101844719975	"5"	56107.298107398	56104.826900487	1.5	0.1
0.01	1	0.00386853700183565	1	50	62.8337376120035	NA	1	0	0.59	1	58.7394652500006	58.7433337870025	"5"	56107.298107398	56104.826900487	1.5	0.1
0.01	1	0.00390675899689086	1	50	62.8337376120035	NA	1	0	0.59	1	58.9731893100034	58.9770960690003	"5"	56107.298107398	56104.826900487	1.5	0.1
0.01	1	0.00202578400057973	1	50	62.8337376120035	NA	1	0	0.59	1	59.2069114580008	59.2089372420014	"5"	56107.298107398	56104.826900487	1.5	0.1
0.01	1	0.003276219998952	1	50	62.8337376120035	NA	1	0	0.59	1	59.4407269270014	59.4440031470003	"5"	56107.298107398	56104.826900487	1.5	0.1
0.01	1	0.00380901400058065	1	50	62.8337376120035	NA	1	0	0.59	1	59.6744169950034	59.678226009004	"5"	56107.298107398	56104.826900487	1.5	0.1
0.01	1	0.00394734099972993	1	50	62.8337376120035	NA	1	0	0.59	1	59.9081067020015	59.9120540430013	"5"	56107.298107398	56104.826900487	1.5	0.1
0.01	1	0.00382050299958792	1	50	62.8337376120035	NA	1	0	0.59	1	60.1418945800033	60.1457150830029	"5"	56107.298107398	56104.826900487	1.5	0.1
0.01	1	0.00350037500174949	1	50	62.8337376120035	NA	1	0	0.59	1	60.3755124320014	60.3790128070032	"5"	56107.298107398	56104.826900487	1.5	0.1
0.01	1	0.00376015600340907	1	50	62.8337376120035	NA	1	0	0.59	1	60.6093654549986	60.613125611002	"5"	56107.298107398	56104.826900487	1.5	0.1
0.01	1	0.00390039999911096	1	50	62.8337376120035	NA	1	0	0.59	1	60.843070914998	60.8469713149971	"5"	56107.298107398	56104.826900487	1.5	0.1
0.01	1	0.00388963800651254	1	50	62.8337376120035	NA	1	0	0.59	1	61.0767262169975	61.080615855004	"5"	56107.298107398	56104.826900487	1.5	0.1
0.01	1	0.00389501199970255	1	50	62.8337376120035	NA	1	0	0.59	1	61.3105300969983	61.314425108998	"5"	56107.298107398	56104.826900487	1.5	0.1
0.01	1	0.003101066002273	1	50	62.8337376120035	NA	1	0	0.59	1	61.5441665929975	61.5472676589998	"5"	56107.298107398	56104.826900487	1.5	0.1
0.01	1	0.00463134199526394	1	50	62.8337376120035	NA	1	0	0.59	1	61.7779585500029	61.7825898919982	"5"	56107.298107398	56104.826900487	1.5	0.1
0.01	1	0.00468151699897135	1	50	62.8337376120035	NA	1	0	0.59	1	62.0116382150009	62.0163197319998	"5"	56107.298107398	56104.826900487	1.5	0.1
0.01	1	0.0040550150006311	1	50	62.8337376120035	NA	1	0	0.59	1	62.2453623800029	62.2494173950035	"5"	56107.298107398	56104.826900487	1.5	0.1
0.01	1	0.00468585199996596	1	50	62.8337376120035	NA	1	0	0.59	1	62.4791400899994	62.4838259419994	"5"	56107.298107398	56104.826900487	1.5	0.1
0.01	1	0.00353156399796717	1	50	62.8337376120035	NA	1	0	0.59	1	62.712868335002	62.716399899	"5"	56107.298107398	56104.826900487	1.5	0.1
0.01	1	0.428416422997543	1	45	NA	73.5615727730037	0	0.35	0.94	1	64.883186967003	65.3116033900005	"6"	56107.298107398	56104.826900487	1.5	0.1
0.01	1	0.00458271999377757	1	45	NA	73.5615727730037	0	0.35	0.94	1	65.5509354450041	65.5555181649979	"6"	56107.298107398	56104.826900487	1.5	0.1
0.01	1	0.00381200600531884	1	45	NA	73.5615727730037	0	0.35	0.94	1	65.7846888869972	65.7885008930025	"6"	56107.298107398	56104.826900487	1.5	0.1
0.01	1	0.0038849830016261	1	45	NA	73.5615727730037	0	0.35	0.94	1	66.0184525000004	66.022337483002	"6"	56107.298107398	56104.826900487	1.5	0.1
0.01	1	0.00389002999872901	1	45	NA	73.5615727730037	0	0.35	0.94	1	66.2521615970036	66.2560516270023	"6"	56107.298107398	56104.826900487	1.5	0.1
0.01	1	0.00363630900392309	1	45	NA	73.5615727730037	0	0.35	0.94	1	66.4858764899982	66.4895127990021	"6"	56107.298107398	56104.826900487	1.5	0.1
0.01	1	0.00426480700116372	1	45	NA	73.5615727730037	0	0.35	0.94	1	66.7196280299977	66.7238928369989	"6"	56107.298107398	56104.826900487	1.5	0.1
0.01	1	0.00399857699812856	1	45	NA	73.5615727730037	0	0.35	0.94	1	66.9533277200026	66.9573262970007	"6"	56107.298107398	56104.826900487	1.5	0.1
0.01	1	0.00387408999813488	1	45	NA	73.5615727730037	0	0.35	0.94	1	67.187117417001	67.1909915069991	"6"	56107.298107398	56104.826900487	1.5	0.1
0.01	1	0.00457127200206742	1	45	NA	73.5615727730037	0	0.35	0.94	1	67.4208000250001	67.4253712970021	"6"	56107.298107398	56104.826900487	1.5	0.1
0.01	1	0.00405975999456132	1	45	NA	73.5615727730037	0	0.35	0.94	1	67.654518125004	67.6585778849985	"6"	56107.298107398	56104.826900487	1.5	0.1
0.01	1	0.00380910099920584	1	45	NA	73.5615727730037	0	0.35	0.94	1	67.8882783820009	67.8920874830001	"6"	56107.298107398	56104.826900487	1.5	0.1
0.01	1	0.0038512230021297	1	45	NA	73.5615727730037	0	0.35	0.94	1	68.1219291419984	68.1257803650005	"6"	56107.298107398	56104.826900487	1.5	0.1
0.01	1	0.00325857400457608	1	45	NA	73.5615727730037	0	0.35	0.94	1	68.3556870649991	68.3589456390037	"6"	56107.298107398	56104.826900487	1.5	0.1
0.01	1	0.00357381800131407	1	45	NA	73.5615727730037	0	0.35	0.94	1	68.5894074969983	68.5929813149996	"6"	56107.298107398	56104.826900487	1.5	0.1
0.01	1	0.00388472600025125	1	45	NA	73.5615727730037	0	0.35	0.94	1	68.8231786050019	68.8270633310021	"6"	56107.298107398	56104.826900487	1.5	0.1
0.01	1	0.00395588600076735	1	45	NA	73.5615727730037	0	0.35	0.94	1	69.056930216997	69.0608861029978	"6"	56107.298107398	56104.826900487	1.5	0.1
0.01	1	0.00359993799793301	1	45	NA	73.5615727730037	0	0.35	0.94	1	69.2905393469991	69.2941392849971	"6"	56107.298107398	56104.826900487	1.5	0.1
0.01	1	0.00380499499442521	1	45	NA	73.5615727730037	0	0.35	0.94	1	69.5242658100033	69.5280708049977	"6"	56107.298107398	56104.826900487	1.5	0.1
0.01	1	0.00367622200428741	1	45	NA	73.5615727730037	0	0.35	0.94	1	69.7579595549978	69.7616357770021	"6"	56107.298107398	56104.826900487	1.5	0.1
0.01	1	0.00376826100546168	1	45	NA	73.5615727730037	0	0.35	0.94	1	69.9917726319982	69.9955408930036	"6"	56107.298107398	56104.826900487	1.5	0.1
0.01	1	0.00387112300086301	1	45	NA	73.5615727730037	0	0.35	0.94	1	70.2255648520004	70.2294359750013	"6"	56107.298107398	56104.826900487	1.5	0.1
0.01	1	0.00458242699824041	1	45	NA	73.5615727730037	0	0.35	0.94	1	70.4593319100022	70.4639143370005	"6"	56107.298107398	56104.826900487	1.5	0.1
0.01	1	0.00328736600204138	1	45	NA	73.5615727730037	0	0.35	0.94	1	70.6930033289973	70.6962906949993	"6"	56107.298107398	56104.826900487	1.5	0.1
0.01	1	0.00394258399319369	1	45	NA	73.5615727730037	0	0.35	0.94	1	70.9266870350039	70.930629618997	"6"	56107.298107398	56104.826900487	1.5	0.1
0.01	1	0.00376462100393837	1	45	NA	73.5615727730037	0	0.35	0.94	1	71.160345712	71.1641103330039	"6"	56107.298107398	56104.826900487	1.5	0.1
0.01	1	0.00461214000097243	1	45	NA	73.5615727730037	0	0.35	0.94	1	71.3942273849971	71.398839524998	"6"	56107.298107398	56104.826900487	1.5	0.1
0.01	1	0.00405898199824151	1	45	NA	73.5615727730037	0	0.35	0.94	1	71.6278888250017	71.631947807	"6"	56107.298107398	56104.826900487	1.5	0.1
0.01	1	0.0036422089979169	1	45	NA	73.5615727730037	0	0.35	0.94	1	71.8615868400011	71.865229048999	"6"	56107.298107398	56104.826900487	1.5	0.1
0.01	1	0.00427335000131279	1	45	NA	73.5615727730037	0	0.35	0.94	1	72.0953586899996	72.0996320400009	"6"	56107.298107398	56104.826900487	1.5	0.1
0.01	1	0.00362613500328735	1	45	NA	73.5615727730037	0	0.35	0.94	1	72.3289905700003	72.3326167050036	"6"	56107.298107398	56104.826900487	1.5	0.1
0.01	1	0.00383100500039291	1	45	NA	73.5615727730037	0	0.35	0.94	1	72.5627693999995	72.5666004049999	"6"	56107.298107398	56104.826900487	1.5	0.1
0.01	1	0.00380504599888809	1	45	NA	73.5615727730037	0	0.35	0.94	1	72.7964613650038	72.8002664110027	"6"	56107.298107398	56104.826900487	1.5	0.1
0.01	1	0.00466275000508176	1	45	NA	73.5615727730037	0	0.35	0.94	1	73.030172904997	73.0348356550021	"6"	56107.298107398	56104.826900487	1.5	0.1
0.01	1	0.00460992499574786	1	45	NA	73.5615727730037	0	0.35	0.94	1	73.2640032350027	73.2686131599985	"6"	56107.298107398	56104.826900487	1.5	0.1
0.01	1	0.0623246019968065	2	45	NA	73.5615727730037	0	0.35	0.94	1	73.497693850004	73.5600184520008	"6"	56107.298107398	56104.826900487	1.5	0.1
0.01	1	0.293919338000705	1	7	77.4248254920021	NA	1	0	0.94	1	75.6012139570012	75.8951332950019	"7"	56107.298107398	56104.826900487	1.5	0.1
0.01	1	0.00433272900409065	1	7	77.4248254920021	NA	1	0	0.94	1	76.1354169629994	76.1397496920035	"7"	56107.298107398	56104.826900487	1.5	0.1
0.01	1	0.00460530500276946	1	7	77.4248254920021	NA	1	0	0.94	1	76.3692615999971	76.3738669049999	"7"	56107.298107398	56104.826900487	1.5	0.1
0.01	1	0.00399221199768363	1	7	77.4248254920021	NA	1	0	0.94	1	76.6029156549994	76.6069078669971	"7"	56107.298107398	56104.826900487	1.5	0.1
0.01	1	0.00344500600476749	1	7	77.4248254920021	NA	1	0	0.94	1	76.8366440769969	76.8400890830017	"7"	56107.298107398	56104.826900487	1.5	0.1
0.01	1	0.00387442899955204	1	7	77.4248254920021	NA	1	0	0.94	1	77.0703138099998	77.0741882389993	"7"	56107.298107398	56104.826900487	1.5	0.1
0.01	1	0.00453038699924946	1	7	77.4248254920021	NA	1	0	0.94	1	77.3040141450037	77.308544532003	"7"	56107.298107398	56104.826900487	1.5	0.1
0.01	1	0.00376082100410713	1	34	87.3068430569983	NA	1	0	0.94	1	79.474339139997	79.4780999610011	"8"	56107.298107398	56104.826900487	1.5	0.1
0.01	1	0.00464155700319679	1	34	87.3068430569983	NA	1	0	0.94	1	79.7082928050004	79.7129343620036	"8"	56107.298107398	56104.826900487	1.5	0.1
0.01	1	0.00369077299546916	1	34	87.3068430569983	NA	1	0	0.94	1	79.9417818700022	79.9454726429976	"8"	56107.298107398	56104.826900487	1.5	0.1
0.01	1	0.00437643499753904	1	34	87.3068430569983	NA	1	0	0.94	1	80.175561160002	80.1799375949995	"8"	56107.298107398	56104.826900487	1.5	0.1
0.01	1	0.0038485059994855	1	34	87.3068430569983	NA	1	0	0.94	1	80.4093701570018	80.4132186630013	"8"	56107.298107398	56104.826900487	1.5	0.1
0.01	1	0.00399213600030635	1	34	87.3068430569983	NA	1	0	0.94	1	80.6430345550034	80.6470266910037	"8"	56107.298107398	56104.826900487	1.5	0.1
0.01	1	0.0036546420014929	1	34	87.3068430569983	NA	1	0	0.94	1	80.8767730769978	80.8804277189993	"8"	56107.298107398	56104.826900487	1.5	0.1
0.01	1	0.00454729999910342	1	34	87.3068430569983	NA	1	0	0.94	1	81.1104078100034	81.1149551100025	"8"	56107.298107398	56104.826900487	1.5	0.1
0.01	1	0.00389312400511699	1	34	87.3068430569983	NA	1	0	0.94	1	81.3441526969982	81.3480458210033	"8"	56107.298107398	56104.826900487	1.5	0.1
0.01	1	0.00398537000000942	1	34	87.3068430569983	NA	1	0	0.94	1	81.5779723149972	81.5819576849972	"8"	56107.298107398	56104.826900487	1.5	0.1
0.01	1	0.00332402400090359	1	34	87.3068430569983	NA	1	0	0.94	1	81.8115824190027	81.8149064430036	"8"	56107.298107398	56104.826900487	1.5	0.1
0.01	1	0.00385190999804763	1	34	87.3068430569983	NA	1	0	0.94	1	82.0453755050039	82.049227415002	"8"	56107.298107398	56104.826900487	1.5	0.1
0.01	1	0.00399755900434684	1	34	87.3068430569983	NA	1	0	0.94	1	82.2790669219976	82.2830644810019	"8"	56107.298107398	56104.826900487	1.5	0.1
0.01	1	0.00388481900154147	1	34	87.3068430569983	NA	1	0	0.94	1	82.5129413800023	82.5168261990038	"8"	56107.298107398	56104.826900487	1.5	0.1
0.01	1	0.00371272100164788	1	34	87.3068430569983	NA	1	0	0.94	1	82.7465011719978	82.7502138929995	"8"	56107.298107398	56104.826900487	1.5	0.1
0.01	1	0.00393550699664047	1	34	87.3068430569983	NA	1	0	0.94	1	82.9803057000026	82.9842412069993	"8"	56107.298107398	56104.826900487	1.5	0.1
0.01	1	0.00381880100030685	1	34	87.3068430569983	NA	1	0	0.94	1	83.2139560400028	83.2177748410031	"8"	56107.298107398	56104.826900487	1.5	0.1
0.01	1	0.00383717100339709	1	34	87.3068430569983	NA	1	0	0.94	1	83.4476471300004	83.4514843010038	"8"	56107.298107398	56104.826900487	1.5	0.1
0.01	1	0.00399738200212596	1	34	87.3068430569983	NA	1	0	0.94	1	83.6814686849975	83.6854660669997	"8"	56107.298107398	56104.826900487	1.5	0.1
0.01	1	0.00461172699579038	1	34	87.3068430569983	NA	1	0	0.94	1	83.9151477300038	83.9197594569996	"8"	56107.298107398	56104.826900487	1.5	0.1
0.01	1	0.00401321500248741	1	34	87.3068430569983	NA	1	0	0.94	1	84.1488609299995	84.152874145002	"8"	56107.298107398	56104.826900487	1.5	0.1
0.01	1	0.00205097900470719	1	34	87.3068430569983	NA	1	0	0.94	1	84.3826321509987	84.3846831300034	"8"	56107.298107398	56104.826900487	1.5	0.1
0.01	1	0.004589260002831	1	34	87.3068430569983	NA	1	0	0.94	1	84.61635045	84.6209397100029	"8"	56107.298107398	56104.826900487	1.5	0.1
0.01	1	0.00383111599512631	1	34	87.3068430569983	NA	1	0	0.94	1	84.8500581070039	84.853889222999	"8"	56107.298107398	56104.826900487	1.5	0.1
0.01	1	0.00392628600093303	1	34	87.3068430569983	NA	1	0	0.94	1	85.0837910050031	85.0877172910041	"8"	56107.298107398	56104.826900487	1.5	0.1
0.01	1	0.00386624900420429	1	34	87.3068430569983	NA	1	0	0.94	1	85.3175055419997	85.3213717910039	"8"	56107.298107398	56104.826900487	1.5	0.1
0.01	1	0.00335162999544991	1	34	87.3068430569983	NA	1	0	0.94	1	85.5512298570029	85.5545814869984	"8"	56107.298107398	56104.826900487	1.5	0.1
0.01	1	0.00356162199750543	1	34	87.3068430569983	NA	1	0	0.94	1	85.7849928249998	85.7885544469973	"8"	56107.298107398	56104.826900487	1.5	0.1
0.01	1	0.00389130099938484	1	34	87.3068430569983	NA	1	0	0.94	1	86.0186586700001	86.0225499709995	"8"	56107.298107398	56104.826900487	1.5	0.1
0.01	1	0.00404119800077751	1	34	87.3068430569983	NA	1	0	0.94	1	86.2523895970007	86.2564307950015	"8"	56107.298107398	56104.826900487	1.5	0.1
0.01	1	0.00398162500641774	1	34	87.3068430569983	NA	1	0	0.94	1	86.4862648799972	86.4902465050036	"8"	56107.298107398	56104.826900487	1.5	0.1
0.01	1	0.00336756300384877	1	34	87.3068430569983	NA	1	0	0.94	1	86.7198547419976	86.7232223050014	"8"	56107.298107398	56104.826900487	1.5	0.1
0.01	1	0.003667803001008	1	34	87.3068430569983	NA	1	0	0.94	1	86.953645982001	86.957313785002	"8"	56107.298107398	56104.826900487	1.5	0.1
0.01	1	0.00403529299364891	1	34	87.3068430569983	NA	1	0	0.94	1	87.1874052120038	87.1914405049974	"8"	56107.298107398	56104.826900487	1.5	0.1
0.01	1	0.00256380900100339	1	110	NA	99.2738888410022	0	0.42	1.36	1	89.3577023870021	89.3602661960031	"9"	56107.298107398	56104.826900487	1.5	0.1
0.01	1	0.00419494300149381	1	110	NA	99.2738888410022	0	0.42	1.36	1	89.5914242819999	89.5956192250014	"9"	56107.298107398	56104.826900487	1.5	0.1
0.01	1	0.0043744120048359	1	110	NA	99.2738888410022	0	0.42	1.36	1	89.8250962099992	89.829470622004	"9"	56107.298107398	56104.826900487	1.5	0.1
0.01	1	0.00408104400412412	1	110	NA	99.2738888410022	0	0.42	1.36	1	90.0588858949995	90.0629669390037	"9"	56107.298107398	56104.826900487	1.5	0.1
0.01	1	0.00463354000385152	1	110	NA	99.2738888410022	0	0.42	1.36	1	90.2926479899979	90.2972815300018	"9"	56107.298107398	56104.826900487	1.5	0.1
0.01	1	0.00373684999794932	1	110	NA	99.2738888410022	0	0.42	1.36	1	90.5262845969992	90.5300214469971	"9"	56107.298107398	56104.826900487	1.5	0.1
0.01	1	0.00438332199701108	1	110	NA	99.2738888410022	0	0.42	1.36	1	90.7600342730002	90.7644175949972	"9"	56107.298107398	56104.826900487	1.5	0.1
0.01	1	0.00465132700628601	1	110	NA	99.2738888410022	0	0.42	1.36	1	90.9937184649971	90.9983697920034	"9"	56107.298107398	56104.826900487	1.5	0.1
0.01	1	0.00458295999851543	1	110	NA	99.2738888410022	0	0.42	1.36	1	91.2274991950035	91.232082155002	"9"	56107.298107398	56104.826900487	1.5	0.1
0.01	1	0.0033174370037159	1	110	NA	99.2738888410022	0	0.42	1.36	1	91.4612787099977	91.4645961470014	"9"	56107.298107398	56104.826900487	1.5	0.1
0.01	1	0.0036106400002609	1	110	NA	99.2738888410022	0	0.42	1.36	1	91.6949975750031	91.6986082150033	"9"	56107.298107398	56104.826900487	1.5	0.1
0.01	1	0.00459514000249328	1	110	NA	99.2738888410022	0	0.42	1.36	1	91.9287711349971	91.9333662749996	"9"	56107.298107398	56104.826900487	1.5	0.1
0.01	1	0.00382059199910145	1	110	NA	99.2738888410022	0	0.42	1.36	1	92.1623675849987	92.1661881769978	"9"	56107.298107398	56104.826900487	1.5	0.1
0.01	1	0.00396693700167816	1	110	NA	99.2738888410022	0	0.42	1.36	1	92.3960911899994	92.4000581270011	"9"	56107.298107398	56104.826900487	1.5	0.1
0.01	1	0.00403947299491847	1	110	NA	99.2738888410022	0	0.42	1.36	1	92.629899450003	92.6339389229979	"9"	56107.298107398	56104.826900487	1.5	0.1
0.01	1	0.00378180299594533	1	110	NA	99.2738888410022	0	0.42	1.36	1	92.8635408600021	92.867322662998	"9"	56107.298107398	56104.826900487	1.5	0.1
0.01	1	0.00388466399454046	1	110	NA	99.2738888410022	0	0.42	1.36	1	93.0972208450039	93.1011055089984	"9"	56107.298107398	56104.826900487	1.5	0.1
0.01	1	0.00423551499989117	1	110	NA	99.2738888410022	0	0.42	1.36	1	93.3310064649995	93.3352419799994	"9"	56107.298107398	56104.826900487	1.5	0.1
0.01	1	0.00387808099912945	1	110	NA	99.2738888410022	0	0.42	1.36	1	93.5648366200039	93.568714701003	"9"	56107.298107398	56104.826900487	1.5	0.1
0.01	1	0.00456619500619126	1	110	NA	99.2738888410022	0	0.42	1.36	1	93.7984228799978	93.802989075004	"9"	56107.298107398	56104.826900487	1.5	0.1
0.01	1	0.00400914499914506	1	110	NA	99.2738888410022	0	0.42	1.36	1	94.0321315800029	94.036140725002	"9"	56107.298107398	56104.826900487	1.5	0.1
0.01	1	0.00399245500011602	1	110	NA	99.2738888410022	0	0.42	1.36	1	94.2658899919988	94.269882446999	"9"	56107.298107398	56104.826900487	1.5	0.1
0.01	1	0.003810006994172	1	110	NA	99.2738888410022	0	0.42	1.36	1	94.4996472920029	94.5034572989971	"9"	56107.298107398	56104.826900487	1.5	0.1
0.01	1	0.00456594499701168	1	110	NA	99.2738888410022	0	0.42	1.36	1	94.7333881300001	94.7379540749971	"9"	56107.298107398	56104.826900487	1.5	0.1
0.01	1	0.00396406099753221	1	110	NA	99.2738888410022	0	0.42	1.36	1	94.9670500520006	94.9710141129981	"9"	56107.298107398	56104.826900487	1.5	0.1
0.01	1	0.00385900199762546	1	110	NA	99.2738888410022	0	0.42	1.36	1	95.2007947270031	95.2046537290007	"9"	56107.298107398	56104.826900487	1.5	0.1
0.01	1	0.0045736100000795	1	110	NA	99.2738888410022	0	0.42	1.36	1	95.4345762750017	95.4391498850018	"9"	56107.298107398	56104.826900487	1.5	0.1
0.01	1	0.00405093599692918	1	110	NA	99.2738888410022	0	0.42	1.36	1	95.6682591670033	95.6723101030002	"9"	56107.298107398	56104.826900487	1.5	0.1
0.01	1	0.00334453800314805	1	110	NA	99.2738888410022	0	0.42	1.36	1	95.9020551389985	95.9053996770017	"9"	56107.298107398	56104.826900487	1.5	0.1
0.01	1	0.00392404000012903	1	110	NA	99.2738888410022	0	0.42	1.36	1	96.1356849849981	96.1396090249982	"9"	56107.298107398	56104.826900487	1.5	0.1
0.01	1	0.00382815199554898	1	110	NA	99.2738888410022	0	0.42	1.36	1	96.3693868550035	96.3732150069991	"9"	56107.298107398	56104.826900487	1.5	0.1
0.01	1	0.0039513630035799	1	110	NA	99.2738888410022	0	0.42	1.36	1	96.6032287799972	96.6071801430007	"9"	56107.298107398	56104.826900487	1.5	0.1
0.01	1	0.00455634500394808	1	110	NA	99.2738888410022	0	0.42	1.36	1	96.8369777999978	96.8415341450018	"9"	56107.298107398	56104.826900487	1.5	0.1
0.01	1	0.00462921700091101	1	110	NA	99.2738888410022	0	0.42	1.36	1	97.0707587150027	97.0753879320037	"9"	56107.298107398	56104.826900487	1.5	0.1
0.01	1	0.00390385100035928	1	110	NA	99.2738888410022	0	0.42	1.36	1	97.3043298199991	97.3082336709995	"9"	56107.298107398	56104.826900487	1.5	0.1
0.01	1	0.0039149849981186	1	110	NA	99.2738888410022	0	0.42	1.36	1	97.5381355499994	97.5420505349975	"9"	56107.298107398	56104.826900487	1.5	0.1
0.01	1	0.00401800699910382	1	110	NA	99.2738888410022	0	0.42	1.36	1	97.7718920219995	97.7759100289986	"9"	56107.298107398	56104.826900487	1.5	0.1
0.01	1	0.00455471500026761	1	110	NA	99.2738888410022	0	0.42	1.36	1	98.0055710899978	98.0101258049981	"9"	56107.298107398	56104.826900487	1.5	0.1
0.01	1	0.00459019200206967	1	110	NA	99.2738888410022	0	0.42	1.36	1	98.2393400299989	98.2439302220009	"9"	56107.298107398	56104.826900487	1.5	0.1
0.01	1	0.0046038420041441	1	110	NA	99.2738888410022	0	0.42	1.36	1	98.4730561329998	98.4776599750039	"9"	56107.298107398	56104.826900487	1.5	0.1
0.01	1	0.00387320799927693	1	110	NA	99.2738888410022	0	0.42	1.36	1	98.7066960169977	98.710569224997	"9"	56107.298107398	56104.826900487	1.5	0.1
0.01	1	0.00398486800258979	1	110	NA	99.2738888410022	0	0.42	1.36	1	98.940505544997	98.9444904129996	"9"	56107.298107398	56104.826900487	1.5	0.1
0.01	1	0.0981512900034431	2	110	NA	99.2738888410022	0	0.42	1.36	1	99.1742192509992	99.2723705410026	"9"	56107.298107398	56104.826900487	1.5	0.1
0.01	1	0.209402888001932	1	8	103.267502322	NA	1	0	1.36	1	101.311165284998	101.520568173	"10"	56107.298107398	56104.826900487	1.5	0.1
0.01	1	0.0037895080022281	1	8	103.267502322	NA	1	0	1.36	1	101.745170317001	101.748959825003	"10"	56107.298107398	56104.826900487	1.5	0.1
0.01	1	0.00388767000549706	1	8	103.267502322	NA	1	0	1.36	1	101.978928204997	101.982815875002	"10"	56107.298107398	56104.826900487	1.5	0.1
0.01	1	0.00457517999893753	1	8	103.267502322	NA	1	0	1.36	1	102.212837535	102.217412714999	"10"	56107.298107398	56104.826900487	1.5	0.1
0.01	1	0.00457835000270279	1	8	103.267502322	NA	1	0	1.36	1	102.446505200001	102.451083550004	"10"	56107.298107398	56104.826900487	1.5	0.1
0.01	1	0.00412561900157016	1	8	103.267502322	NA	1	0	1.36	1	102.680115310002	102.684240929004	"10"	56107.298107398	56104.826900487	1.5	0.1
0.01	1	0.00396932700095931	1	8	103.267502322	NA	1	0	1.36	1	102.913829630001	102.917798957002	"10"	56107.298107398	56104.826900487	1.5	0.1
0.01	1	0.00386557299498236	1	8	103.267502322	NA	1	0	1.36	1	103.147523990003	103.151389562998	"10"	56107.298107398	56104.826900487	1.5	0.1
0.01	1	0.00407177700253669	1	52	NA	114.185117113004	0	0.36	1.72	1	105.317831328	105.321903105003	"11"	56107.298107398	56104.826900487	1.5	0.1
0.01	1	0.00391569999919739	1	52	NA	114.185117113004	0	0.36	1.72	1	105.551584485002	105.555500185001	"11"	56107.298107398	56104.826900487	1.5	0.1
0.01	1	0.00372095299826469	1	52	NA	114.185117113004	0	0.36	1.72	1	105.785271601999	105.788992554997	"11"	56107.298107398	56104.826900487	1.5	0.1
0.01	1	0.00397293100104434	1	52	NA	114.185117113004	0	0.36	1.72	1	106.019082580002	106.023055511003	"11"	56107.298107398	56104.826900487	1.5	0.1
0.01	1	0.00394904600398149	1	52	NA	114.185117113004	0	0.36	1.72	1	106.252792856998	106.256741903002	"11"	56107.298107398	56104.826900487	1.5	0.1
0.01	1	0.00471970999933546	1	52	NA	114.185117113004	0	0.36	1.72	1	106.486601495002	106.491321205001	"11"	56107.298107398	56104.826900487	1.5	0.1
0.01	1	0.0046091449985397	1	52	NA	114.185117113004	0	0.36	1.72	1	106.720242100004	106.724851245002	"11"	56107.298107398	56104.826900487	1.5	0.1
0.01	1	0.00370027300232323	1	52	NA	114.185117113004	0	0.36	1.72	1	106.953890049997	106.957590323	"11"	56107.298107398	56104.826900487	1.5	0.1
0.01	1	0.003938375004509	1	52	NA	114.185117113004	0	0.36	1.72	1	107.187635381997	107.191573757002	"11"	56107.298107398	56104.826900487	1.5	0.1
0.01	1	0.00420037800358841	1	52	NA	114.185117113004	0	0.36	1.72	1	107.421505045	107.425705423004	"11"	56107.298107398	56104.826900487	1.5	0.1
0.01	1	0.00464410700078588	1	52	NA	114.185117113004	0	0.36	1.72	1	107.655246784998	107.659890891999	"11"	56107.298107398	56104.826900487	1.5	0.1
0.01	1	0.00382245500077261	1	52	NA	114.185117113004	0	0.36	1.72	1	107.888825631999	107.892648087	"11"	56107.298107398	56104.826900487	1.5	0.1
0.01	1	0.0046185350001906	1	52	NA	114.185117113004	0	0.36	1.72	1	108.122656264997	108.127274799997	"11"	56107.298107398	56104.826900487	1.5	0.1
0.01	1	0.0037567030012724	1	52	NA	114.185117113004	0	0.36	1.72	1	108.356298002	108.360054705001	"11"	56107.298107398	56104.826900487	1.5	0.1
0.01	1	0.00327262000064366	1	52	NA	114.185117113004	0	0.36	1.72	1	108.589984477003	108.593257097004	"11"	56107.298107398	56104.826900487	1.5	0.1
0.01	1	0.00333221400069306	1	52	NA	114.185117113004	0	0.36	1.72	1	108.823824885003	108.827157099004	"11"	56107.298107398	56104.826900487	1.5	0.1
0.01	1	0.0045572919989354	1	52	NA	114.185117113004	0	0.36	1.72	1	109.05756157	109.062118861999	"11"	56107.298107398	56104.826900487	1.5	0.1
0.01	1	0.00401132000115467	1	52	NA	114.185117113004	0	0.36	1.72	1	109.291288715001	109.295300035003	"11"	56107.298107398	56104.826900487	1.5	0.1
0.01	1	0.00454357499984326	1	52	NA	114.185117113004	0	0.36	1.72	1	109.525002210001	109.529545785001	"11"	56107.298107398	56104.826900487	1.5	0.1
0.01	1	0.00461491999885766	1	52	NA	114.185117113004	0	0.36	1.72	1	109.758643724999	109.763258644998	"11"	56107.298107398	56104.826900487	1.5	0.1
0.01	1	0.00335649399494287	1	52	NA	114.185117113004	0	0.36	1.72	1	109.992394617002	109.995751110997	"11"	56107.298107398	56104.826900487	1.5	0.1
0.01	1	0.00388758799817879	1	52	NA	114.185117113004	0	0.36	1.72	1	110.226164705004	110.230052293002	"11"	56107.298107398	56104.826900487	1.5	0.1
0.01	1	0.00461463700048625	1	52	NA	114.185117113004	0	0.36	1.72	1	110.459920995003	110.464535632003	"11"	56107.298107398	56104.826900487	1.5	0.1
0.01	1	0.0045146249976824	1	52	NA	114.185117113004	0	0.36	1.72	1	110.693657247	110.698171871998	"11"	56107.298107398	56104.826900487	1.5	0.1
0.01	1	0.00441428000340238	1	52	NA	114.185117113004	0	0.36	1.72	1	110.927330949999	110.931745230002	"11"	56107.298107398	56104.826900487	1.5	0.1
0.01	1	0.00338870300038252	1	52	NA	114.185117113004	0	0.36	1.72	1	111.160946561999	111.164335264999	"11"	56107.298107398	56104.826900487	1.5	0.1
0.01	1	0.00402481799392262	1	52	NA	114.185117113004	0	0.36	1.72	1	111.394771985004	111.398796802998	"11"	56107.298107398	56104.826900487	1.5	0.1
0.01	1	0.00400919799722033	1	52	NA	114.185117113004	0	0.36	1.72	1	111.628408155004	111.632417353001	"11"	56107.298107398	56104.826900487	1.5	0.1
0.01	1	0.00392915100383107	1	52	NA	114.185117113004	0	0.36	1.72	1	111.862149979999	111.866079131003	"11"	56107.298107398	56104.826900487	1.5	0.1
0.01	1	0.00334306200238643	1	52	NA	114.185117113004	0	0.36	1.72	1	112.095984038999	112.099327101001	"11"	56107.298107398	56104.826900487	1.5	0.1
0.01	1	0.00390126300044358	1	52	NA	114.185117113004	0	0.36	1.72	1	112.329672571999	112.333573835	"11"	56107.298107398	56104.826900487	1.5	0.1
0.01	1	0.00343263499962632	1	52	NA	114.185117113004	0	0.36	1.72	1	112.563439721998	112.566872356998	"11"	56107.298107398	56104.826900487	1.5	0.1
0.01	1	0.0039466820016969	1	52	NA	114.185117113004	0	0.36	1.72	1	112.797119636998	112.801066319	"11"	56107.298107398	56104.826900487	1.5	0.1
0.01	1	0.00461107699811691	1	52	NA	114.185117113004	0	0.36	1.72	1	113.030874240001	113.035485316999	"11"	56107.298107398	56104.826900487	1.5	0.1
0.01	1	0.00330419599777088	1	52	NA	114.185117113004	0	0.36	1.72	1	113.264449887	113.267754082997	"11"	56107.298107398	56104.826900487	1.5	0.1
0.01	1	0.00380211399897235	1	52	NA	114.185117113004	0	0.36	1.72	1	113.498333504998	113.502135618997	"11"	56107.298107398	56104.826900487	1.5	0.1
0.01	1	0.451397377000831	2	52	NA	114.185117113004	0	0.36	1.72	1	113.732096214997	114.183493591998	"11"	56107.298107398	56104.826900487	1.5	0.1
0.01	1	0.00362030399992364	1	80	NA	126.553065250999	0	0.42	2.14	1	116.236171397002	116.239791701002	"12"	56107.298107398	56104.826900487	1.5	0.1
0.01	1	0.00444825000158744	1	80	NA	126.553065250999	0	0.42	2.14	1	116.469981164999	116.474429415	"12"	56107.298107398	56104.826900487	1.5	0.1
0.01	1	0.00390654399961932	1	80	NA	126.553065250999	0	0.42	2.14	1	116.703601075002	116.707507619001	"12"	56107.298107398	56104.826900487	1.5	0.1
0.01	1	0.0037894229972153	1	80	NA	126.553065250999	0	0.42	2.14	1	116.937325710001	116.941115132999	"12"	56107.298107398	56104.826900487	1.5	0.1
0.01	1	0.00346657300542574	1	80	NA	126.553065250999	0	0.42	2.14	1	117.171212369998	117.174678943004	"12"	56107.298107398	56104.826900487	1.5	0.1
0.01	1	0.00351158699777443	1	80	NA	126.553065250999	0	0.42	2.14	1	117.404859422	117.408371008998	"12"	56107.298107398	56104.826900487	1.5	0.1
0.01	1	0.00389207300031558	1	80	NA	126.553065250999	0	0.42	2.14	1	117.638609032001	117.642501105001	"12"	56107.298107398	56104.826900487	1.5	0.1
0.01	1	0.00462626499938779	1	80	NA	126.553065250999	0	0.42	2.14	1	117.872379375003	117.877005640003	"12"	56107.298107398	56104.826900487	1.5	0.1
0.01	1	0.00221138899360085	1	80	NA	126.553065250999	0	0.42	2.14	1	118.106133824003	118.108345212997	"12"	56107.298107398	56104.826900487	1.5	0.1
0.01	1	0.00328032600373263	1	80	NA	126.553065250999	0	0.42	2.14	1	118.339722899	118.343003225003	"12"	56107.298107398	56104.826900487	1.5	0.1
0.01	1	0.00346966800134396	1	80	NA	126.553065250999	0	0.42	2.14	1	118.573454495003	118.576924163004	"12"	56107.298107398	56104.826900487	1.5	0.1
0.01	1	0.00464162500429666	1	80	NA	126.553065250999	0	0.42	2.14	1	118.80725803	118.811899655004	"12"	56107.298107398	56104.826900487	1.5	0.1
0.01	1	0.00373626899818191	1	80	NA	126.553065250999	0	0.42	2.14	1	119.040990342	119.044726610999	"12"	56107.298107398	56104.826900487	1.5	0.1
0.01	1	0.00466815999971004	1	80	NA	126.553065250999	0	0.42	2.14	1	119.274713799998	119.279381959997	"12"	56107.298107398	56104.826900487	1.5	0.1
0.01	1	0.00305148599727545	1	80	NA	126.553065250999	0	0.42	2.14	1	119.508422347004	119.511473833001	"12"	56107.298107398	56104.826900487	1.5	0.1
0.01	1	0.00371389200154226	1	80	NA	126.553065250999	0	0.42	2.14	1	119.742015616997	119.745729508999	"12"	56107.298107398	56104.826900487	1.5	0.1
0.01	1	0.00460201499663526	1	80	NA	126.553065250999	0	0.42	2.14	1	119.975803460002	119.980405474998	"12"	56107.298107398	56104.826900487	1.5	0.1
0.01	1	0.00386983699718257	1	80	NA	126.553065250999	0	0.42	2.14	1	120.20960206	120.213471896997	"12"	56107.298107398	56104.826900487	1.5	0.1
0.01	1	0.00345410500449361	1	80	NA	126.553065250999	0	0.42	2.14	1	120.443331119997	120.446785225002	"12"	56107.298107398	56104.826900487	1.5	0.1
0.01	1	0.00456565000058617	1	80	NA	126.553065250999	0	0.42	2.14	1	120.676973064998	120.681538714998	"12"	56107.298107398	56104.826900487	1.5	0.1
0.01	1	0.0046976049998193	1	80	NA	126.553065250999	0	0.42	2.14	1	120.910768670001	120.915466275001	"12"	56107.298107398	56104.826900487	1.5	0.1
0.01	1	0.00460487499367446	1	80	NA	126.553065250999	0	0.42	2.14	1	121.144471140004	121.149076014997	"12"	56107.298107398	56104.826900487	1.5	0.1
0.01	1	0.00464274700061651	1	80	NA	126.553065250999	0	0.42	2.14	1	121.378134924998	121.382777671999	"12"	56107.298107398	56104.826900487	1.5	0.1
0.01	1	0.00385019499663031	1	80	NA	126.553065250999	0	0.42	2.14	1	121.611947712001	121.615797906998	"12"	56107.298107398	56104.826900487	1.5	0.1
0.01	1	0.00372812199930195	1	80	NA	126.553065250999	0	0.42	2.14	1	121.845694545002	121.849422667001	"12"	56107.298107398	56104.826900487	1.5	0.1
0.01	1	0.00383506900107022	1	80	NA	126.553065250999	0	0.42	2.14	1	122.079435940002	122.083271009004	"12"	56107.298107398	56104.826900487	1.5	0.1
0.01	1	0.00390012800198747	1	80	NA	126.553065250999	0	0.42	2.14	1	122.313134684999	122.317034813001	"12"	56107.298107398	56104.826900487	1.5	0.1
0.01	1	0.00399761599692283	1	80	NA	126.553065250999	0	0.42	2.14	1	122.546867817	122.550865432997	"12"	56107.298107398	56104.826900487	1.5	0.1
0.01	1	0.00336862399853999	1	80	NA	126.553065250999	0	0.42	2.14	1	122.780491445003	122.783860069001	"12"	56107.298107398	56104.826900487	1.5	0.1
0.01	1	0.0033376919964212	1	80	NA	126.553065250999	0	0.42	2.14	1	123.014324435004	123.017662127	"12"	56107.298107398	56104.826900487	1.5	0.1
0.01	1	0.00457679700048175	1	80	NA	126.553065250999	0	0.42	2.14	1	123.248077425	123.252654222	"12"	56107.298107398	56104.826900487	1.5	0.1
0.01	1	0.00377439600561047	1	80	NA	126.553065250999	0	0.42	2.14	1	123.481741044998	123.485515441003	"12"	56107.298107398	56104.826900487	1.5	0.1
0.01	1	0.00401485600013984	1	80	NA	126.553065250999	0	0.42	2.14	1	123.715399606997	123.719414462998	"12"	56107.298107398	56104.826900487	1.5	0.1
0.01	1	0.00371353700029431	1	80	NA	126.553065250999	0	0.42	2.14	1	123.949122872	123.952836409	"12"	56107.298107398	56104.826900487	1.5	0.1
0.01	1	0.00394308599788928	1	80	NA	126.553065250999	0	0.42	2.14	1	124.182876355	124.186819440998	"12"	56107.298107398	56104.826900487	1.5	0.1
0.01	1	0.00388778599881334	1	80	NA	126.553065250999	0	0.42	2.14	1	124.416618527001	124.420506312999	"12"	56107.298107398	56104.826900487	1.5	0.1
0.01	1	0.00370086999464547	1	80	NA	126.553065250999	0	0.42	2.14	1	124.650317295003	124.654018164998	"12"	56107.298107398	56104.826900487	1.5	0.1
0.01	1	0.00389006199839059	1	80	NA	126.553065250999	0	0.42	2.14	1	124.884039425	124.887929486998	"12"	56107.298107398	56104.826900487	1.5	0.1
0.01	1	0.00380693699844414	1	80	NA	126.553065250999	0	0.42	2.14	1	125.117855839999	125.121662776997	"12"	56107.298107398	56104.826900487	1.5	0.1
0.01	1	0.00399089899292449	1	80	NA	126.553065250999	0	0.42	2.14	1	125.351550502004	125.355541400997	"12"	56107.298107398	56104.826900487	1.5	0.1
0.01	1	0.00422736499604071	1	80	NA	126.553065250999	0	0.42	2.14	1	125.585257705003	125.589485069999	"12"	56107.298107398	56104.826900487	1.5	0.1
0.01	1	0.0039333929962595	1	80	NA	126.553065250999	0	0.42	2.14	1	125.819028600003	125.822961992999	"12"	56107.298107398	56104.826900487	1.5	0.1
0.01	1	0.498732358995767	2	80	NA	126.553065250999	0	0.42	2.14	1	126.052732290002	126.551464648997	"12"	56107.298107398	56104.826900487	1.5	0.1
0.01	1	0.128768481998122	1	100	NA	141.002008850002	0	0.5	2.64	1	128.590307035003	128.719075517001	"13"	56107.298107398	56104.826900487	1.5	0.1
0.01	1	0.00440574799722526	1	100	NA	141.002008850002	0	0.5	2.64	1	128.957633044003	128.962038792	"13"	56107.298107398	56104.826900487	1.5	0.1
0.01	1	0.00403806699614506	1	100	NA	141.002008850002	0	0.5	2.64	1	129.191359142002	129.195397208998	"13"	56107.298107398	56104.826900487	1.5	0.1
0.01	1	0.00434365800174419	1	100	NA	141.002008850002	0	0.5	2.64	1	129.425063246999	129.429406905001	"13"	56107.298107398	56104.826900487	1.5	0.1
0.01	1	0.00348940600088099	1	100	NA	141.002008850002	0	0.5	2.64	1	129.658743134998	129.662232540999	"13"	56107.298107398	56104.826900487	1.5	0.1
0.01	1	0.00392987800296396	1	100	NA	141.002008850002	0	0.5	2.64	1	129.892438397001	129.896368275004	"13"	56107.298107398	56104.826900487	1.5	0.1
0.01	1	0.00459511200460838	1	100	NA	141.002008850002	0	0.5	2.64	1	130.126340224997	130.130935337002	"13"	56107.298107398	56104.826900487	1.5	0.1
0.01	1	0.00440742099453928	1	100	NA	141.002008850002	0	0.5	2.64	1	130.359964114003	130.364371534997	"13"	56107.298107398	56104.826900487	1.5	0.1
0.01	1	0.00332305600022664	1	100	NA	141.002008850002	0	0.5	2.64	1	130.593677965	130.597001021	"13"	56107.298107398	56104.826900487	1.5	0.1
0.01	1	0.00338352499966277	1	100	NA	141.002008850002	0	0.5	2.64	1	130.82733788	130.830721405	"13"	56107.298107398	56104.826900487	1.5	0.1
0.01	1	0.00394405599945458	1	100	NA	141.002008850002	0	0.5	2.64	1	131.061139024998	131.065083080997	"13"	56107.298107398	56104.826900487	1.5	0.1
0.01	1	0.00455389699345687	1	100	NA	141.002008850002	0	0.5	2.64	1	131.294917960004	131.299471856997	"13"	56107.298107398	56104.826900487	1.5	0.1
0.01	1	0.00395478100108448	1	100	NA	141.002008850002	0	0.5	2.64	1	131.528630902001	131.532585683002	"13"	56107.298107398	56104.826900487	1.5	0.1
0.01	1	0.00442881499475334	1	100	NA	141.002008850002	0	0.5	2.64	1	131.762390087002	131.766818901997	"13"	56107.298107398	56104.826900487	1.5	0.1
0.01	1	0.00348004700208548	1	100	NA	141.002008850002	0	0.5	2.64	1	131.996033372001	131.999513419003	"13"	56107.298107398	56104.826900487	1.5	0.1
0.01	1	0.00394624999898952	1	100	NA	141.002008850002	0	0.5	2.64	1	132.229785914999	132.233732164997	"13"	56107.298107398	56104.826900487	1.5	0.1
0.01	1	0.00390759799483931	1	100	NA	141.002008850002	0	0.5	2.64	1	132.463543905003	132.467451502998	"13"	56107.298107398	56104.826900487	1.5	0.1
0.01	1	0.00396951499715215	1	100	NA	141.002008850002	0	0.5	2.64	1	132.697261282003	132.701230797	"13"	56107.298107398	56104.826900487	1.5	0.1
0.01	1	0.00342495099903317	1	100	NA	141.002008850002	0	0.5	2.64	1	132.931143542002	132.934568493001	"13"	56107.298107398	56104.826900487	1.5	0.1
0.01	1	0.00361939499998698	1	100	NA	141.002008850002	0	0.5	2.64	1	133.164749492003	133.168368887003	"13"	56107.298107398	56104.826900487	1.5	0.1
0.01	1	0.00403667600039626	1	100	NA	141.002008850002	0	0.5	2.64	1	133.398392957002	133.402429633003	"13"	56107.298107398	56104.826900487	1.5	0.1
0.01	1	0.00388418000511592	1	100	NA	141.002008850002	0	0.5	2.64	1	133.632146994998	133.636031175003	"13"	56107.298107398	56104.826900487	1.5	0.1
0.01	1	0.00393322400486795	1	100	NA	141.002008850002	0	0.5	2.64	1	133.865845216998	133.869778441003	"13"	56107.298107398	56104.826900487	1.5	0.1
0.01	1	0.00362001900066389	1	100	NA	141.002008850002	0	0.5	2.64	1	134.099639562002	134.103259581003	"13"	56107.298107398	56104.826900487	1.5	0.1
0.01	1	0.00402300499990815	1	100	NA	141.002008850002	0	0.5	2.64	1	134.333258391998	134.337281396998	"13"	56107.298107398	56104.826900487	1.5	0.1
0.01	1	0.004652821997297	1	100	NA	141.002008850002	0	0.5	2.64	1	134.56713548	134.571788301997	"13"	56107.298107398	56104.826900487	1.5	0.1
0.01	1	0.00388070799817797	1	100	NA	141.002008850002	0	0.5	2.64	1	134.800802917001	134.804683625	"13"	56107.298107398	56104.826900487	1.5	0.1
0.01	1	0.00451256200176431	1	100	NA	141.002008850002	0	0.5	2.64	1	135.034537428	135.039049990002	"13"	56107.298107398	56104.826900487	1.5	0.1
0.01	1	0.00355798700184096	1	100	NA	141.002008850002	0	0.5	2.64	1	135.268209829999	135.271767817001	"13"	56107.298107398	56104.826900487	1.5	0.1
0.01	1	0.00394157499977155	1	100	NA	141.002008850002	0	0.5	2.64	1	135.502000410001	135.505941985	"13"	56107.298107398	56104.826900487	1.5	0.1
0.01	1	0.00383869100187439	1	100	NA	141.002008850002	0	0.5	2.64	1	135.735658671998	135.739497363	"13"	56107.298107398	56104.826900487	1.5	0.1
0.01	1	0.0045698700050707	1	100	NA	141.002008850002	0	0.5	2.64	1	135.969383684998	135.973953555003	"13"	56107.298107398	56104.826900487	1.5	0.1
0.01	1	0.00332771400280762	1	100	NA	141.002008850002	0	0.5	2.64	1	136.203165662999	136.206493377002	"13"	56107.298107398	56104.826900487	1.5	0.1
0.01	1	0.00385963900043862	1	100	NA	141.002008850002	0	0.5	2.64	1	136.436944692003	136.440804331003	"13"	56107.298107398	56104.826900487	1.5	0.1
0.01	1	0.00398364900320303	1	100	NA	141.002008850002	0	0.5	2.64	1	136.670567180001	136.674550829004	"13"	56107.298107398	56104.826900487	1.5	0.1
0.01	1	0.00463251600012882	1	100	NA	141.002008850002	0	0.5	2.64	1	136.904349654003	136.908982170004	"13"	56107.298107398	56104.826900487	1.5	0.1
0.01	1	0.00376313999731792	1	100	NA	141.002008850002	0	0.5	2.64	1	137.138072435002	137.141835574999	"13"	56107.298107398	56104.826900487	1.5	0.1
0.01	1	0.00358127900108229	1	100	NA	141.002008850002	0	0.5	2.64	1	137.371787650001	137.375368929002	"13"	56107.298107398	56104.826900487	1.5	0.1
0.01	1	0.00401643800432794	1	100	NA	141.002008850002	0	0.5	2.64	1	137.605465825	137.609482263004	"13"	56107.298107398	56104.826900487	1.5	0.1
0.01	1	0.00390763599716593	1	100	NA	141.002008850002	0	0.5	2.64	1	137.839228657002	137.843136292999	"13"	56107.298107398	56104.826900487	1.5	0.1
0.01	1	0.00363142499554669	1	100	NA	141.002008850002	0	0.5	2.64	1	138.072904122004	138.076535546999	"13"	56107.298107398	56104.826900487	1.5	0.1
0.01	1	0.00456611999834422	1	100	NA	141.002008850002	0	0.5	2.64	1	138.306873480004	138.311439600002	"13"	56107.298107398	56104.826900487	1.5	0.1
0.01	1	0.0031842179960222	1	100	NA	141.002008850002	0	0.5	2.64	1	138.540368683003	138.543552900999	"13"	56107.298107398	56104.826900487	1.5	0.1
0.01	1	0.0037047480000183	1	100	NA	141.002008850002	0	0.5	2.64	1	138.774139415	138.777844163	"13"	56107.298107398	56104.826900487	1.5	0.1
0.01	1	0.00392568000097526	1	100	NA	141.002008850002	0	0.5	2.64	1	139.007833217001	139.011758897002	"13"	56107.298107398	56104.826900487	1.5	0.1
0.01	1	0.00388438899972243	1	100	NA	141.002008850002	0	0.5	2.64	1	139.241615002	139.245499391	"13"	56107.298107398	56104.826900487	1.5	0.1
0.01	1	0.00385970000206726	1	100	NA	141.002008850002	0	0.5	2.64	1	139.475310795002	139.479170495004	"13"	56107.298107398	56104.826900487	1.5	0.1
0.01	1	0.00389954300044337	1	100	NA	141.002008850002	0	0.5	2.64	1	139.708986160003	139.712885703004	"13"	56107.298107398	56104.826900487	1.5	0.1
0.01	1	0.00407573999837041	1	100	NA	141.002008850002	0	0.5	2.64	1	139.942936082	139.947011821998	"13"	56107.298107398	56104.826900487	1.5	0.1
0.01	1	0.00379871599579928	1	100	NA	141.002008850002	0	0.5	2.64	1	140.176459075003	140.180257790998	"13"	56107.298107398	56104.826900487	1.5	0.1
0.01	1	0.590276930000982	2	100	NA	141.002008850002	0	0.5	2.64	1	140.410209841997	141.000486771998	"13"	56107.298107398	56104.826900487	1.5	0.1
0.01	1	0.00393103100213921	1	24	148.542142714999	NA	1	0	2.64	1	143.047945940001	143.051876971003	"14"	56107.298107398	56104.826900487	1.5	0.1
0.01	1	0.00387212399800774	1	24	148.542142714999	NA	1	0	2.64	1	143.281646305004	143.285518429002	"14"	56107.298107398	56104.826900487	1.5	0.1
0.01	1	0.00435889700020198	1	24	148.542142714999	NA	1	0	2.64	1	143.515487122997	143.519846019997	"14"	56107.298107398	56104.826900487	1.5	0.1
0.01	1	0.00398821900307667	1	24	148.542142714999	NA	1	0	2.64	1	143.749205599997	143.753193819	"14"	56107.298107398	56104.826900487	1.5	0.1
0.01	1	0.00329774000420002	1	24	148.542142714999	NA	1	0	2.64	1	143.982920980998	143.986218721002	"14"	56107.298107398	56104.826900487	1.5	0.1
0.01	1	0.00383244199474575	1	24	148.542142714999	NA	1	0	2.64	1	144.216592645003	144.220425086998	"14"	56107.298107398	56104.826900487	1.5	0.1
0.01	1	0.00387069399585016	1	24	148.542142714999	NA	1	0	2.64	1	144.450349297003	144.454219990999	"14"	56107.298107398	56104.826900487	1.5	0.1
0.01	1	0.00391428000148153	1	24	148.542142714999	NA	1	0	2.64	1	144.684130235	144.688044515002	"14"	56107.298107398	56104.826900487	1.5	0.1
0.01	1	0.00363928700244287	1	24	148.542142714999	NA	1	0	2.64	1	144.917795961999	144.921435249002	"14"	56107.298107398	56104.826900487	1.5	0.1
0.01	1	0.00393430300027831	1	24	148.542142714999	NA	1	0	2.64	1	145.15157545	145.155509753	"14"	56107.298107398	56104.826900487	1.5	0.1
0.01	1	0.00384039399796166	1	24	148.542142714999	NA	1	0	2.64	1	145.385187345004	145.389027739002	"14"	56107.298107398	56104.826900487	1.5	0.1
0.01	1	0.00300895400141599	1	24	148.542142714999	NA	1	0	2.64	1	145.618917234999	145.621926189	"14"	56107.298107398	56104.826900487	1.5	0.1
0.01	1	0.0046768920001341	1	24	148.542142714999	NA	1	0	2.64	1	145.852667339997	145.857344231998	"14"	56107.298107398	56104.826900487	1.5	0.1
0.01	1	0.00359921299968846	1	24	148.542142714999	NA	1	0	2.64	1	146.086429902003	146.090029115003	"14"	56107.298107398	56104.826900487	1.5	0.1
0.01	1	0.00371072100097081	1	24	148.542142714999	NA	1	0	2.64	1	146.32020224	146.323912961001	"14"	56107.298107398	56104.826900487	1.5	0.1
0.01	1	0.0038819949986646	1	24	148.542142714999	NA	1	0	2.64	1	146.553845690003	146.557727685002	"14"	56107.298107398	56104.826900487	1.5	0.1
0.01	1	0.00465284200618044	1	24	148.542142714999	NA	1	0	2.64	1	146.787693694998	146.792346537004	"14"	56107.298107398	56104.826900487	1.5	0.1
0.01	1	0.00333043599675875	1	24	148.542142714999	NA	1	0	2.64	1	147.021276847001	147.024607282998	"14"	56107.298107398	56104.826900487	1.5	0.1
0.01	1	0.00353693700162694	1	24	148.542142714999	NA	1	0	2.64	1	147.255055592002	147.258592529004	"14"	56107.298107398	56104.826900487	1.5	0.1
0.01	1	0.00458696500572842	1	24	148.542142714999	NA	1	0	2.64	1	147.488779494997	147.493366460003	"14"	56107.298107398	56104.826900487	1.5	0.1
0.01	1	0.00420258099620696	1	24	148.542142714999	NA	1	0	2.64	1	147.722560114002	147.726762694998	"14"	56107.298107398	56104.826900487	1.5	0.1
0.01	1	0.00367544200707925	1	24	148.542142714999	NA	1	0	2.64	1	147.956286114997	147.959961557004	"14"	56107.298107398	56104.826900487	1.5	0.1
0.01	1	0.00462484700256027	1	24	148.542142714999	NA	1	0	2.64	1	148.189996055	148.194620902002	"14"	56107.298107398	56104.826900487	1.5	0.1
0.01	1	0.00266382699919632	1	24	148.542142714999	NA	1	0	2.64	1	148.423602057002	148.426265884002	"14"	56107.298107398	56104.826900487	1.5	0.1
0.01	1	0.00368460699974094	1	75	NA	161.864701364	0	0.47	3.11	1	150.594010932	150.597695539	"15"	56107.298107398	56104.826900487	1.5	0.1
0.01	1	0.00385577700217254	1	75	NA	161.864701364	0	0.47	3.11	1	150.827815042001	150.831670819003	"15"	56107.298107398	56104.826900487	1.5	0.1
0.01	1	0.00331025800551288	1	75	NA	161.864701364	0	0.47	3.11	1	151.061402348998	151.064712607003	"15"	56107.298107398	56104.826900487	1.5	0.1
0.01	1	0.00378638900292572	1	75	NA	161.864701364	0	0.47	3.11	1	151.295134259999	151.298920649002	"15"	56107.298107398	56104.826900487	1.5	0.1
0.01	1	0.00459651499841129	1	75	NA	161.864701364	0	0.47	3.11	1	151.529025385003	151.533621900002	"15"	56107.298107398	56104.826900487	1.5	0.1
0.01	1	0.00387019600020722	1	75	NA	161.864701364	0	0.47	3.11	1	151.762661075001	151.766531271001	"15"	56107.298107398	56104.826900487	1.5	0.1
0.01	1	0.00372553399938624	1	75	NA	161.864701364	0	0.47	3.11	1	151.996369225002	152.000094759002	"15"	56107.298107398	56104.826900487	1.5	0.1
0.01	1	0.00394472300104098	1	75	NA	161.864701364	0	0.47	3.11	1	152.230143950001	152.234088673002	"15"	56107.298107398	56104.826900487	1.5	0.1
0.01	1	0.00405744299496291	1	75	NA	161.864701364	0	0.47	3.11	1	152.463738450002	152.467795892997	"15"	56107.298107398	56104.826900487	1.5	0.1
0.01	1	0.00449178100097924	1	75	NA	161.864701364	0	0.47	3.11	1	152.697528003999	152.702019785	"15"	56107.298107398	56104.826900487	1.5	0.1
0.01	1	0.00380785299785202	1	75	NA	161.864701364	0	0.47	3.11	1	152.931211720002	152.935019573	"15"	56107.298107398	56104.826900487	1.5	0.1
0.01	1	0.00332587400043849	1	75	NA	161.864701364	0	0.47	3.11	1	153.164948256999	153.168274131	"15"	56107.298107398	56104.826900487	1.5	0.1
0.01	1	0.00356717300019227	1	75	NA	161.864701364	0	0.47	3.11	1	153.398735740004	153.402302913004	"15"	56107.298107398	56104.826900487	1.5	0.1
0.01	1	0.00394757500180276	1	75	NA	161.864701364	0	0.47	3.11	1	153.632350519998	153.636298095	"15"	56107.298107398	56104.826900487	1.5	0.1
0.01	1	0.00390967499697581	1	75	NA	161.864701364	0	0.47	3.11	1	153.866077120001	153.869986794998	"15"	56107.298107398	56104.826900487	1.5	0.1
0.01	1	0.00366381500498392	1	75	NA	161.864701364	0	0.47	3.11	1	154.099831831998	154.103495647003	"15"	56107.298107398	56104.826900487	1.5	0.1
0.01	1	0.00388287600071635	1	75	NA	161.864701364	0	0.47	3.11	1	154.333612615002	154.337495491003	"15"	56107.298107398	56104.826900487	1.5	0.1
0.01	1	0.00396322299638996	1	75	NA	161.864701364	0	0.47	3.11	1	154.567324652002	154.571287874998	"15"	56107.298107398	56104.826900487	1.5	0.1
0.01	1	0.00400421200174605	1	75	NA	161.864701364	0	0.47	3.11	1	154.801024305001	154.805028517003	"15"	56107.298107398	56104.826900487	1.5	0.1
0.01	1	0.00458530700416304	1	75	NA	161.864701364	0	0.47	3.11	1	155.034796109998	155.039381417002	"15"	56107.298107398	56104.826900487	1.5	0.1
0.01	1	0.00453071499941871	1	75	NA	161.864701364	0	0.47	3.11	1	155.268549444998	155.273080159997	"15"	56107.298107398	56104.826900487	1.5	0.1
0.01	1	0.00463814199611079	1	75	NA	161.864701364	0	0.47	3.11	1	155.502258070002	155.506896211999	"15"	56107.298107398	56104.826900487	1.5	0.1
0.01	1	0.00389245800033677	1	75	NA	161.864701364	0	0.47	3.11	1	155.736027377003	155.739919835003	"15"	56107.298107398	56104.826900487	1.5	0.1
0.01	1	0.00400298499880591	1	75	NA	161.864701364	0	0.47	3.11	1	155.969750791999	155.973753776998	"15"	56107.298107398	56104.826900487	1.5	0.1
0.01	1	0.00392281600215938	1	75	NA	161.864701364	0	0.47	3.11	1	156.203462195001	156.207385011003	"15"	56107.298107398	56104.826900487	1.5	0.1
0.01	1	0.00398490500083426	1	75	NA	161.864701364	0	0.47	3.11	1	156.437092861997	156.441077766998	"15"	56107.298107398	56104.826900487	1.5	0.1
0.01	1	0.00455443499959074	1	75	NA	161.864701364	0	0.47	3.11	1	156.670966035002	156.675520470002	"15"	56107.298107398	56104.826900487	1.5	0.1
0.01	1	0.0035698819992831	1	75	NA	161.864701364	0	0.47	3.11	1	156.904690525	156.908260406999	"15"	56107.298107398	56104.826900487	1.5	0.1
0.01	1	0.00457211699540494	1	75	NA	161.864701364	0	0.47	3.11	1	157.138322625004	157.142894741999	"15"	56107.298107398	56104.826900487	1.5	0.1
0.01	1	0.00467738699808251	1	75	NA	161.864701364	0	0.47	3.11	1	157.372143929999	157.376821316997	"15"	56107.298107398	56104.826900487	1.5	0.1
0.01	1	0.00372820700431475	1	75	NA	161.864701364	0	0.47	3.11	1	157.605892321997	157.609620529001	"15"	56107.298107398	56104.826900487	1.5	0.1
0.01	1	0.00334727999870665	1	75	NA	161.864701364	0	0.47	3.11	1	157.839462914999	157.842810194998	"15"	56107.298107398	56104.826900487	1.5	0.1
0.01	1	0.0035033879976254	1	75	NA	161.864701364	0	0.47	3.11	1	158.073233445	158.076736832998	"15"	56107.298107398	56104.826900487	1.5	0.1
0.01	1	0.00459877200046321	1	75	NA	161.864701364	0	0.47	3.11	1	158.306933090003	158.311531862004	"15"	56107.298107398	56104.826900487	1.5	0.1
0.01	1	0.00393679200351471	1	75	NA	161.864701364	0	0.47	3.11	1	158.540660954997	158.544597747001	"15"	56107.298107398	56104.826900487	1.5	0.1
0.01	1	0.00342921200353885	1	75	NA	161.864701364	0	0.47	3.11	1	158.774418004999	158.777847217003	"15"	56107.298107398	56104.826900487	1.5	0.1
0.01	1	0.0033151440002257	1	75	NA	161.864701364	0	0.47	3.11	1	159.008096862999	159.011412006999	"15"	56107.298107398	56104.826900487	1.5	0.1
0.01	1	0.00405113999295281	1	75	NA	161.864701364	0	0.47	3.11	1	159.241847465004	159.245898604997	"15"	56107.298107398	56104.826900487	1.5	0.1
0.01	1	0.00389723200351	1	75	NA	161.864701364	0	0.47	3.11	1	159.475599664998	159.479496897002	"15"	56107.298107398	56104.826900487	1.5	0.1
0.01	1	0.003709684999194	1	75	NA	161.864701364	0	0.47	3.11	1	159.709340000001	159.713049685	"15"	56107.298107398	56104.826900487	1.5	0.1
0.01	1	0.00381392300187144	1	75	NA	161.864701364	0	0.47	3.11	1	159.943098732001	159.946912655003	"15"	56107.298107398	56104.826900487	1.5	0.1
0.01	1	0.00378749699302716	1	75	NA	161.864701364	0	0.47	3.11	1	160.176847872004	160.180635368997	"15"	56107.298107398	56104.826900487	1.5	0.1
0.01	1	0.00381267200282309	1	75	NA	161.864701364	0	0.47	3.11	1	160.410486875	160.414299547003	"15"	56107.298107398	56104.826900487	1.5	0.1
0.01	1	0.00394239699380705	1	75	NA	161.864701364	0	0.47	3.11	1	160.644273110003	160.648215506997	"15"	56107.298107398	56104.826900487	1.5	0.1
0.01	1	0.0039950799982762	1	75	NA	161.864701364	0	0.47	3.11	1	160.877941175	160.881936254998	"15"	56107.298107398	56104.826900487	1.5	0.1
0.01	1	0.00331159799679881	1	75	NA	161.864701364	0	0.47	3.11	1	161.111708941004	161.115020539	"15"	56107.298107398	56104.826900487	1.5	0.1
0.01	1	0.00451384500047425	1	75	NA	161.864701364	0	0.47	3.11	1	161.34547647	161.349990315	"15"	56107.298107398	56104.826900487	1.5	0.1
0.01	1	0.283990053001617	2	75	NA	161.864701364	0	0.47	3.11	1	161.579139961999	161.863130015001	"15"	56107.298107398	56104.826900487	1.5	0.1
0.01	1	0.00402689899783581	1	112	NA	174.113052139001	0	0.43	3.54	1	163.916381679999	163.920408578997	"16"	56107.298107398	56104.826900487	1.5	0.1
0.01	1	0.00383773299836321	1	112	NA	174.113052139001	0	0.43	3.54	1	164.150156982003	164.153994715001	"16"	56107.298107398	56104.826900487	1.5	0.1
0.01	1	0.00382266700034961	1	112	NA	174.113052139001	0	0.43	3.54	1	164.383918182	164.387740849001	"16"	56107.298107398	56104.826900487	1.5	0.1
0.01	1	0.00225585200678324	1	112	NA	174.113052139001	0	0.43	3.54	1	164.617446140997	164.619701993004	"16"	56107.298107398	56104.826900487	1.5	0.1
0.01	1	0.00429374200029997	1	112	NA	174.113052139001	0	0.43	3.54	1	164.851317613	164.855611355	"16"	56107.298107398	56104.826900487	1.5	0.1
0.01	1	0.00456388499878813	1	112	NA	174.113052139001	0	0.43	3.54	1	165.084977129998	165.089541014997	"16"	56107.298107398	56104.826900487	1.5	0.1
0.01	1	0.00401055499969516	1	112	NA	174.113052139001	0	0.43	3.54	1	165.318639552002	165.322650107002	"16"	56107.298107398	56104.826900487	1.5	0.1
0.01	1	0.00387114899785956	1	112	NA	174.113052139001	0	0.43	3.54	1	165.552518700002	165.556389849	"16"	56107.298107398	56104.826900487	1.5	0.1
0.01	1	0.00393744800385321	1	112	NA	174.113052139001	0	0.43	3.54	1	165.786173804998	165.790111253002	"16"	56107.298107398	56104.826900487	1.5	0.1
0.01	1	0.00378243700106395	1	112	NA	174.113052139001	0	0.43	3.54	1	166.019977850003	166.023760287004	"16"	56107.298107398	56104.826900487	1.5	0.1
0.01	1	0.00461614000232657	1	112	NA	174.113052139001	0	0.43	3.54	1	166.253671555001	166.258287695004	"16"	56107.298107398	56104.826900487	1.5	0.1
0.01	1	0.00433153199992375	1	112	NA	174.113052139001	0	0.43	3.54	1	166.487316257997	166.491647789997	"16"	56107.298107398	56104.826900487	1.5	0.1
0.01	1	0.00398825400043279	1	112	NA	174.113052139001	0	0.43	3.54	1	166.721110915001	166.725099169002	"16"	56107.298107398	56104.826900487	1.5	0.1
0.01	1	0.00382419599918649	1	112	NA	174.113052139001	0	0.43	3.54	1	166.954932827	166.958757023	"16"	56107.298107398	56104.826900487	1.5	0.1
0.01	1	0.00462889000482392	1	112	NA	174.113052139001	0	0.43	3.54	1	167.188652279998	167.193281170003	"16"	56107.298107398	56104.826900487	1.5	0.1
0.01	1	0.00373752699670149	1	112	NA	174.113052139001	0	0.43	3.54	1	167.422286200002	167.426023726999	"16"	56107.298107398	56104.826900487	1.5	0.1
0.01	1	0.0039383590046782	1	112	NA	174.113052139001	0	0.43	3.54	1	167.655976171998	167.659914531003	"16"	56107.298107398	56104.826900487	1.5	0.1
0.01	1	0.00370858499809401	1	112	NA	174.113052139001	0	0.43	3.54	1	167.889745102002	167.893453687	"16"	56107.298107398	56104.826900487	1.5	0.1
0.01	1	0.00380738399690017	1	112	NA	174.113052139001	0	0.43	3.54	1	168.123516717002	168.127324100999	"16"	56107.298107398	56104.826900487	1.5	0.1
0.01	1	0.00396025300142355	1	112	NA	174.113052139001	0	0.43	3.54	1	168.357197500001	168.361157753003	"16"	56107.298107398	56104.826900487	1.5	0.1
0.01	1	0.00326355199649697	1	112	NA	174.113052139001	0	0.43	3.54	1	168.590987495001	168.594251046998	"16"	56107.298107398	56104.826900487	1.5	0.1
0.01	1	0.00384492400189629	1	112	NA	174.113052139001	0	0.43	3.54	1	168.824696406999	168.828541331	"16"	56107.298107398	56104.826900487	1.5	0.1
0.01	1	0.00217657499888446	1	112	NA	174.113052139001	0	0.43	3.54	1	169.058294283001	169.060470857999	"16"	56107.298107398	56104.826900487	1.5	0.1
0.01	1	0.00409661699814023	1	112	NA	174.113052139001	0	0.43	3.54	1	169.292105990004	169.296202607002	"16"	56107.298107398	56104.826900487	1.5	0.1
0.01	1	0.00334010799997486	1	112	NA	174.113052139001	0	0.43	3.54	1	169.525906925002	169.529247033002	"16"	56107.298107398	56104.826900487	1.5	0.1
0.01	1	0.00209344700124348	1	112	NA	174.113052139001	0	0.43	3.54	1	169.759507595001	169.761601042002	"16"	56107.298107398	56104.826900487	1.5	0.1
0.01	1	0.00436355399870081	1	112	NA	174.113052139001	0	0.43	3.54	1	169.993303691001	169.997667244999	"16"	56107.298107398	56104.826900487	1.5	0.1
0.01	1	0.0038946130007389	1	112	NA	174.113052139001	0	0.43	3.54	1	170.22696059	170.230855203001	"16"	56107.298107398	56104.826900487	1.5	0.1
0.01	1	0.0038838590044179	1	112	NA	174.113052139001	0	0.43	3.54	1	170.460656889998	170.464540749002	"16"	56107.298107398	56104.826900487	1.5	0.1
0.01	1	0.00345839399960823	1	112	NA	174.113052139001	0	0.43	3.54	1	170.694490932998	170.697949326997	"16"	56107.298107398	56104.826900487	1.5	0.1
0.01	1	0.00299256799917202	1	112	NA	174.113052139001	0	0.43	3.54	1	170.928141889002	170.931134457001	"16"	56107.298107398	56104.826900487	1.5	0.1
0.01	1	0.00375831700512208	1	112	NA	174.113052139001	0	0.43	3.54	1	171.161889989999	171.165648307004	"16"	56107.298107398	56104.826900487	1.5	0.1
0.01	1	0.00377443799516186	1	112	NA	174.113052139001	0	0.43	3.54	1	171.395694477003	171.399468914999	"16"	56107.298107398	56104.826900487	1.5	0.1
0.01	1	0.00331589599954896	1	112	NA	174.113052139001	0	0.43	3.54	1	171.629340899002	171.632656795002	"16"	56107.298107398	56104.826900487	1.5	0.1
0.01	1	0.00468723000085447	1	112	NA	174.113052139001	0	0.43	3.54	1	171.863070059997	171.867757289998	"16"	56107.298107398	56104.826900487	1.5	0.1
0.01	1	0.00396607400034554	1	112	NA	174.113052139001	0	0.43	3.54	1	172.096855634998	172.100821708998	"16"	56107.298107398	56104.826900487	1.5	0.1
0.01	1	0.00398398299876135	1	112	NA	174.113052139001	0	0.43	3.54	1	172.330574842003	172.334558825001	"16"	56107.298107398	56104.826900487	1.5	0.1
0.01	1	0.00427264100289904	1	112	NA	174.113052139001	0	0.43	3.54	1	172.564365494	172.568638135002	"16"	56107.298107398	56104.826900487	1.5	0.1
0.01	1	0.00328792000073008	1	112	NA	174.113052139001	0	0.43	3.54	1	172.797944038997	172.801231958998	"16"	56107.298107398	56104.826900487	1.5	0.1
0.01	1	0.00357832499867072	1	112	NA	174.113052139001	0	0.43	3.54	1	173.03176844	173.035346764998	"16"	56107.298107398	56104.826900487	1.5	0.1
0.01	1	0.00376384899573168	1	112	NA	174.113052139001	0	0.43	3.54	1	173.265563970002	173.269327818998	"16"	56107.298107398	56104.826900487	1.5	0.1
0.01	1	0.00384812800621148	1	112	NA	174.113052139001	0	0.43	3.54	1	173.499214126998	173.503062255004	"16"	56107.298107398	56104.826900487	1.5	0.1
0.01	1	0.00389585700031603	1	112	NA	174.113052139001	0	0.43	3.54	1	173.732805359999	173.736701217	"16"	56107.298107398	56104.826900487	1.5	0.1
0.01	1	0.144887772999937	2	112	NA	174.113052139001	0	0.43	3.54	1	173.966587540002	174.111475313002	"16"	56107.298107398	56104.826900487	1.5	0.1
0.01	1	0.00376629800302908	1	116	NA	188.344934573004	0	0.5	4.04	1	176.153676315	176.157442613003	"17"	56107.298107398	56104.826900487	1.5	0.1
0.01	1	0.0032953539994196	1	116	NA	188.344934573004	0	0.5	4.04	1	176.387389059004	176.390684413003	"17"	56107.298107398	56104.826900487	1.5	0.1
0.01	1	0.00378005200036569	1	116	NA	188.344934573004	0	0.5	4.04	1	176.621089594999	176.624869646999	"17"	56107.298107398	56104.826900487	1.5	0.1
0.01	1	0.00430392200360075	1	116	NA	188.344934573004	0	0.5	4.04	1	176.854805832998	176.859109755002	"17"	56107.298107398	56104.826900487	1.5	0.1
0.01	1	0.00467038500210037	1	116	NA	188.344934573004	0	0.5	4.04	1	177.088602484997	177.093272869999	"17"	56107.298107398	56104.826900487	1.5	0.1
0.01	1	0.0038350899994839	1	116	NA	188.344934573004	0	0.5	4.04	1	177.322308654999	177.326143744998	"17"	56107.298107398	56104.826900487	1.5	0.1
0.01	1	0.00467602699791314	1	116	NA	188.344934573004	0	0.5	4.04	1	177.556133890001	177.560809916999	"17"	56107.298107398	56104.826900487	1.5	0.1
0.01	1	0.00396633199852658	1	116	NA	188.344934573004	0	0.5	4.04	1	177.789708857003	177.793675189001	"17"	56107.298107398	56104.826900487	1.5	0.1
0.01	1	0.00386512799741467	1	116	NA	188.344934573004	0	0.5	4.04	1	178.023378775004	178.027243903001	"17"	56107.298107398	56104.826900487	1.5	0.1
0.01	1	0.00398727099673124	1	116	NA	188.344934573004	0	0.5	4.04	1	178.257214012003	178.261201283	"17"	56107.298107398	56104.826900487	1.5	0.1
0.01	1	0.00377636600023834	1	116	NA	188.344934573004	0	0.5	4.04	1	178.490966614998	178.494742980998	"17"	56107.298107398	56104.826900487	1.5	0.1
0.01	1	0.00379921199782984	1	116	NA	188.344934573004	0	0.5	4.04	1	178.724581437004	178.728380649001	"17"	56107.298107398	56104.826900487	1.5	0.1
0.01	1	0.00225276399578433	1	116	NA	188.344934573004	0	0.5	4.04	1	178.958320060003	178.960572823999	"17"	56107.298107398	56104.826900487	1.5	0.1
0.01	1	0.00454160699882777	1	116	NA	188.344934573004	0	0.5	4.04	1	179.192027750003	179.196569357002	"17"	56107.298107398	56104.826900487	1.5	0.1
0.01	1	0.00397883100231411	1	116	NA	188.344934573004	0	0.5	4.04	1	179.425847512	179.429826343003	"17"	56107.298107398	56104.826900487	1.5	0.1
0.01	1	0.0021235419990262	1	116	NA	188.344934573004	0	0.5	4.04	1	179.659535833001	179.661659375	"17"	56107.298107398	56104.826900487	1.5	0.1
0.01	1	0.00368281400005799	1	116	NA	188.344934573004	0	0.5	4.04	1	179.893289047002	179.896971861002	"17"	56107.298107398	56104.826900487	1.5	0.1
0.01	1	0.00391307700192556	1	116	NA	188.344934573004	0	0.5	4.04	1	180.127087191999	180.131000269001	"17"	56107.298107398	56104.826900487	1.5	0.1
0.01	1	0.00460336999822175	1	116	NA	188.344934573004	0	0.5	4.04	1	180.360691715003	180.365295085001	"17"	56107.298107398	56104.826900487	1.5	0.1
0.01	1	0.004549240002234	1	116	NA	188.344934573004	0	0.5	4.04	1	180.594440419998	180.59898966	"17"	56107.298107398	56104.826900487	1.5	0.1
0.01	1	0.00395245000254363	1	116	NA	188.344934573004	0	0.5	4.04	1	180.828232255	180.832184705003	"17"	56107.298107398	56104.826900487	1.5	0.1
0.01	1	0.00382004100538325	1	116	NA	188.344934573004	0	0.5	4.04	1	181.061922779998	181.065742821003	"17"	56107.298107398	56104.826900487	1.5	0.1
0.01	1	0.00391208600194659	1	116	NA	188.344934573004	0	0.5	4.04	1	181.295610016998	181.299522103	"17"	56107.298107398	56104.826900487	1.5	0.1
0.01	1	0.00388139200367732	1	116	NA	188.344934573004	0	0.5	4.04	1	181.529480256999	181.533361649002	"17"	56107.298107398	56104.826900487	1.5	0.1
0.01	1	0.00398638200567802	1	116	NA	188.344934573004	0	0.5	4.04	1	181.763084564998	181.767070947004	"17"	56107.298107398	56104.826900487	1.5	0.1
0.01	1	0.00332647500181338	1	116	NA	188.344934573004	0	0.5	4.04	1	181.996728662001	182.000055137003	"17"	56107.298107398	56104.826900487	1.5	0.1
0.01	1	0.00366501499956939	1	116	NA	188.344934573004	0	0.5	4.04	1	182.230539709999	182.234204724999	"17"	56107.298107398	56104.826900487	1.5	0.1
0.01	1	0.00382692099810811	1	116	NA	188.344934573004	0	0.5	4.04	1	182.464384350002	182.468211271	"17"	56107.298107398	56104.826900487	1.5	0.1
0.01	1	0.00466465000499738	1	116	NA	188.344934573004	0	0.5	4.04	1	182.697950809998	182.702615460003	"17"	56107.298107398	56104.826900487	1.5	0.1
0.01	1	0.00463397199928295	1	116	NA	188.344934573004	0	0.5	4.04	1	182.931725959999	182.936359931999	"17"	56107.298107398	56104.826900487	1.5	0.1
0.01	1	0.00360355900193099	1	116	NA	188.344934573004	0	0.5	4.04	1	183.165477212002	183.169080771004	"17"	56107.298107398	56104.826900487	1.5	0.1
0.01	1	0.00416891199711245	1	116	NA	188.344934573004	0	0.5	4.04	1	183.39910024	183.403269151997	"17"	56107.298107398	56104.826900487	1.5	0.1
0.01	1	0.00390166099532507	1	116	NA	188.344934573004	0	0.5	4.04	1	183.632937622002	183.636839282997	"17"	56107.298107398	56104.826900487	1.5	0.1
0.01	1	0.00378701900626766	1	116	NA	188.344934573004	0	0.5	4.04	1	183.866650231997	183.870437251004	"17"	56107.298107398	56104.826900487	1.5	0.1
0.01	1	0.00406322199705755	1	116	NA	188.344934573004	0	0.5	4.04	1	184.100457357003	184.104520579	"17"	56107.298107398	56104.826900487	1.5	0.1
0.01	1	0.00367267099500168	1	116	NA	188.344934573004	0	0.5	4.04	1	184.334074520004	184.337747190999	"17"	56107.298107398	56104.826900487	1.5	0.1
0.01	1	0.00409023200336378	1	116	NA	188.344934573004	0	0.5	4.04	1	184.567902495	184.571992727004	"17"	56107.298107398	56104.826900487	1.5	0.1
0.01	1	0.00381612899946049	1	116	NA	188.344934573004	0	0.5	4.04	1	184.801596019999	184.805412148999	"17"	56107.298107398	56104.826900487	1.5	0.1
0.01	1	0.00466567999683321	1	116	NA	188.344934573004	0	0.5	4.04	1	185.035192000003	185.03985768	"17"	56107.298107398	56104.826900487	1.5	0.1
0.01	1	0.00401032099762233	1	116	NA	188.344934573004	0	0.5	4.04	1	185.268926842	185.272937162998	"17"	56107.298107398	56104.826900487	1.5	0.1
0.01	1	0.00462665700615617	1	116	NA	188.344934573004	0	0.5	4.04	1	185.502806819997	185.507433477003	"17"	56107.298107398	56104.826900487	1.5	0.1
0.01	1	0.00347076499747345	1	116	NA	188.344934573004	0	0.5	4.04	1	185.736449640004	185.739920405002	"17"	56107.298107398	56104.826900487	1.5	0.1
0.01	1	0.00403888900473248	1	116	NA	188.344934573004	0	0.5	4.04	1	185.970176609997	185.974215499002	"17"	56107.298107398	56104.826900487	1.5	0.1
0.01	1	0.00456163199851289	1	116	NA	188.344934573004	0	0.5	4.04	1	186.203961785002	186.208523417001	"17"	56107.298107398	56104.826900487	1.5	0.1
0.01	1	0.00395327599835582	1	116	NA	188.344934573004	0	0.5	4.04	1	186.437573715004	186.441526991002	"17"	56107.298107398	56104.826900487	1.5	0.1
0.01	1	0.00382780099607771	1	116	NA	188.344934573004	0	0.5	4.04	1	186.671315922002	186.675143722998	"17"	56107.298107398	56104.826900487	1.5	0.1
0.01	1	0.00366082099935738	1	116	NA	188.344934573004	0	0.5	4.04	1	186.905100080003	186.908760901002	"17"	56107.298107398	56104.826900487	1.5	0.1
0.01	1	0.00399084499804303	1	116	NA	188.344934573004	0	0.5	4.04	1	187.138834862002	187.142825707	"17"	56107.298107398	56104.826900487	1.5	0.1
0.01	1	0.00394276499719126	1	116	NA	188.344934573004	0	0.5	4.04	1	187.372523472004	187.376466237001	"17"	56107.298107398	56104.826900487	1.5	0.1
0.01	1	0.00458668499777559	1	116	NA	188.344934573004	0	0.5	4.04	1	187.606236070002	187.610822754999	"17"	56107.298107398	56104.826900487	1.5	0.1
0.01	1	0.503301753997221	2	116	NA	188.344934573004	0	0.5	4.04	1	187.840036651003	188.343338405	"17"	56107.298107398	56104.826900487	1.5	0.1
0.01	1	0.00432258699584054	1	31	197.526785786999	NA	1	0	4.04	1	190.394243590003	190.398566176998	"18"	56107.298107398	56104.826900487	1.5	0.1
0.01	1	0.00379417299700435	1	31	197.526785786999	NA	1	0	4.04	1	190.627954720003	190.631748893	"18"	56107.298107398	56104.826900487	1.5	0.1
0.01	1	0.00395294900226872	1	31	197.526785786999	NA	1	0	4.04	1	190.861695519998	190.865648469	"18"	56107.298107398	56104.826900487	1.5	0.1
0.01	1	0.00400595500104828	1	31	197.526785786999	NA	1	0	4.04	1	191.095420279999	191.099426235	"18"	56107.298107398	56104.826900487	1.5	0.1
0.01	1	0.00347419399622595	1	31	197.526785786999	NA	1	0	4.04	1	191.329188035001	191.332662228997	"18"	56107.298107398	56104.826900487	1.5	0.1
0.01	1	0.00390318800054956	1	31	197.526785786999	NA	1	0	4.04	1	191.562890895002	191.566794083003	"18"	56107.298107398	56104.826900487	1.5	0.1
0.01	1	0.00388912299968069	1	31	197.526785786999	NA	1	0	4.04	1	191.796616582003	191.800505705003	"18"	56107.298107398	56104.826900487	1.5	0.1
0.01	1	0.00369128699821886	1	31	197.526785786999	NA	1	0	4.04	1	192.030487470001	192.034178757	"18"	56107.298107398	56104.826900487	1.5	0.1
0.01	1	0.00455596699612215	1	31	197.526785786999	NA	1	0	4.04	1	192.264034325002	192.268590291998	"18"	56107.298107398	56104.826900487	1.5	0.1
0.01	1	0.00460218200169038	1	31	197.526785786999	NA	1	0	4.04	1	192.497757270001	192.502359452003	"18"	56107.298107398	56104.826900487	1.5	0.1
0.01	1	0.00397879799857037	1	31	197.526785786999	NA	1	0	4.04	1	192.731485885	192.735464682999	"18"	56107.298107398	56104.826900487	1.5	0.1
0.01	1	0.00393751599767711	1	31	197.526785786999	NA	1	0	4.04	1	192.965265305	192.969202820997	"18"	56107.298107398	56104.826900487	1.5	0.1
0.01	1	0.00368178899952909	1	31	197.526785786999	NA	1	0	4.04	1	193.19894124	193.202623028999	"18"	56107.298107398	56104.826900487	1.5	0.1
0.01	1	0.00356734100205358	1	31	197.526785786999	NA	1	0	4.04	1	193.432816009998	193.436383351	"18"	56107.298107398	56104.826900487	1.5	0.1
0.01	1	0.00378146299772197	1	31	197.526785786999	NA	1	0	4.04	1	193.666384092001	193.670165554999	"18"	56107.298107398	56104.826900487	1.5	0.1
0.01	1	0.00390152099862462	1	31	197.526785786999	NA	1	0	4.04	1	193.900188040003	193.904089561001	"18"	56107.298107398	56104.826900487	1.5	0.1
0.01	1	0.0041830980044324	1	31	197.526785786999	NA	1	0	4.04	1	194.133975104	194.138158202004	"18"	56107.298107398	56104.826900487	1.5	0.1
0.01	1	0.00461656200059224	1	31	197.526785786999	NA	1	0	4.04	1	194.367715995002	194.372332557003	"18"	56107.298107398	56104.826900487	1.5	0.1
0.01	1	0.00463143500383012	1	31	197.526785786999	NA	1	0	4.04	1	194.601363829999	194.605995265003	"18"	56107.298107398	56104.826900487	1.5	0.1
0.01	1	0.003562054997019	1	31	197.526785786999	NA	1	0	4.04	1	194.835029640002	194.838591694999	"18"	56107.298107398	56104.826900487	1.5	0.1
0.01	1	0.00395225899410434	1	31	197.526785786999	NA	1	0	4.04	1	195.068823922004	195.072776180998	"18"	56107.298107398	56104.826900487	1.5	0.1
0.01	1	0.00395425500028068	1	31	197.526785786999	NA	1	0	4.04	1	195.302603302	195.306557557	"18"	56107.298107398	56104.826900487	1.5	0.1
0.01	1	0.00358461200085003	1	31	197.526785786999	NA	1	0	4.04	1	195.536290256998	195.539874868999	"18"	56107.298107398	56104.826900487	1.5	0.1
0.01	1	0.00397838799835881	1	31	197.526785786999	NA	1	0	4.04	1	195.770002835001	195.773981222999	"18"	56107.298107398	56104.826900487	1.5	0.1
0.01	1	0.0037841999946977	1	31	197.526785786999	NA	1	0	4.04	1	196.003643745004	196.007427944998	"18"	56107.298107398	56104.826900487	1.5	0.1
0.01	1	0.00453422499413136	1	31	197.526785786999	NA	1	0	4.04	1	196.237524590004	196.242058814998	"18"	56107.298107398	56104.826900487	1.5	0.1
0.01	1	0.00469713199709076	1	31	197.526785786999	NA	1	0	4.04	1	196.471150140002	196.475847271999	"18"	56107.298107398	56104.826900487	1.5	0.1
0.01	1	0.00401654599409085	1	31	197.526785786999	NA	1	0	4.04	1	196.704895665003	196.708912210997	"18"	56107.298107398	56104.826900487	1.5	0.1
0.01	1	0.00382433799677528	1	31	197.526785786999	NA	1	0	4.04	1	196.938600777001	196.942425114998	"18"	56107.298107398	56104.826900487	1.5	0.1
0.01	1	0.00359846700303024	1	31	197.526785786999	NA	1	0	4.04	1	197.172360181998	197.175958649001	"18"	56107.298107398	56104.826900487	1.5	0.1
0.01	1	0.00453089500661008	1	31	197.526785786999	NA	1	0	4.04	1	197.406037654997	197.410568550004	"18"	56107.298107398	56104.826900487	1.5	0.1
0.01	1	0.00378605899459217	1	54	NA	208.915371135001	0	0.4	4.44	1	199.559657322003	199.563443380997	"19"	56107.298107398	56104.826900487	1.5	0.1
0.01	1	0.00376702299399767	1	54	NA	208.915371135001	0	0.4	4.44	1	199.793420070004	199.797187092998	"19"	56107.298107398	56104.826900487	1.5	0.1
0.01	1	0.00398213200242026	1	54	NA	208.915371135001	0	0.4	4.44	1	200.027215966998	200.031198099001	"19"	56107.298107398	56104.826900487	1.5	0.1
0.01	1	0.00386138099565869	1	54	NA	208.915371135001	0	0.4	4.44	1	200.260874712003	200.264736092999	"19"	56107.298107398	56104.826900487	1.5	0.1
0.01	1	0.00392186099634273	1	54	NA	208.915371135001	0	0.4	4.44	1	200.494710790001	200.498632650997	"19"	56107.298107398	56104.826900487	1.5	0.1
0.01	1	0.00369075799972052	1	54	NA	208.915371135001	0	0.4	4.44	1	200.728319875001	200.732010633001	"19"	56107.298107398	56104.826900487	1.5	0.1
0.01	1	0.00386739500390831	1	54	NA	208.915371135001	0	0.4	4.44	1	200.962071301998	200.965938697002	"19"	56107.298107398	56104.826900487	1.5	0.1
0.01	1	0.00394305900408654	1	54	NA	208.915371135001	0	0.4	4.44	1	201.195790559999	201.199733619003	"19"	56107.298107398	56104.826900487	1.5	0.1
0.01	1	0.00386210899887374	1	54	NA	208.915371135001	0	0.4	4.44	1	201.429531280002	201.433393389001	"19"	56107.298107398	56104.826900487	1.5	0.1
0.01	1	0.00365845300257206	1	54	NA	208.915371135001	0	0.4	4.44	1	201.66320499	201.666863443003	"19"	56107.298107398	56104.826900487	1.5	0.1
0.01	1	0.00382337600603933	1	54	NA	208.915371135001	0	0.4	4.44	1	201.896819196998	201.900642573004	"19"	56107.298107398	56104.826900487	1.5	0.1
0.01	1	0.00469999499910045	1	54	NA	208.915371135001	0	0.4	4.44	1	202.130618570001	202.135318565	"19"	56107.298107398	56104.826900487	1.5	0.1
0.01	1	0.0038148750027176	1	54	NA	208.915371135001	0	0.4	4.44	1	202.364447510001	202.368262385004	"19"	56107.298107398	56104.826900487	1.5	0.1
0.01	1	0.0044226099998923	1	54	NA	208.915371135001	0	0.4	4.44	1	202.598047010004	202.602469620004	"19"	56107.298107398	56104.826900487	1.5	0.1
0.01	1	0.00460390499938512	1	54	NA	208.915371135001	0	0.4	4.44	1	202.831884200001	202.836488105	"19"	56107.298107398	56104.826900487	1.5	0.1
0.01	1	0.00375530399469426	1	54	NA	208.915371135001	0	0.4	4.44	1	203.065688895003	203.069444198998	"19"	56107.298107398	56104.826900487	1.5	0.1
0.01	1	0.00461369700497016	1	54	NA	208.915371135001	0	0.4	4.44	1	203.299235179999	203.303848877003	"19"	56107.298107398	56104.826900487	1.5	0.1
0.01	1	0.00460611999733374	1	54	NA	208.915371135001	0	0.4	4.44	1	203.533211130001	203.537817249999	"19"	56107.298107398	56104.826900487	1.5	0.1
0.01	1	0.00343411100038793	1	54	NA	208.915371135001	0	0.4	4.44	1	203.766801782003	203.770235893004	"19"	56107.298107398	56104.826900487	1.5	0.1
0.01	1	0.00372299399896292	1	54	NA	208.915371135001	0	0.4	4.44	1	204.000472334999	204.004195328998	"19"	56107.298107398	56104.826900487	1.5	0.1
0.01	1	0.00382506700407248	1	54	NA	208.915371135001	0	0.4	4.44	1	204.234230171998	204.238055239002	"19"	56107.298107398	56104.826900487	1.5	0.1
0.01	1	0.00391664500057232	1	54	NA	208.915371135001	0	0.4	4.44	1	204.467935162	204.471851807	"19"	56107.298107398	56104.826900487	1.5	0.1
0.01	1	0.00392688300053123	1	54	NA	208.915371135001	0	0.4	4.44	1	204.701595682003	204.705522565004	"19"	56107.298107398	56104.826900487	1.5	0.1
0.01	1	0.00382866799918702	1	54	NA	208.915371135001	0	0.4	4.44	1	204.935351544998	204.939180212998	"19"	56107.298107398	56104.826900487	1.5	0.1
0.01	1	0.00396852799894987	1	54	NA	208.915371135001	0	0.4	4.44	1	205.169086717004	205.173055245003	"19"	56107.298107398	56104.826900487	1.5	0.1
0.01	1	0.00460022699553519	1	54	NA	208.915371135001	0	0.4	4.44	1	205.402887775002	205.407488001998	"19"	56107.298107398	56104.826900487	1.5	0.1
0.01	1	0.00367099099821644	1	54	NA	208.915371135001	0	0.4	4.44	1	205.636591652001	205.640262642999	"19"	56107.298107398	56104.826900487	1.5	0.1
0.01	1	0.00373663099890109	1	54	NA	208.915371135001	0	0.4	4.44	1	205.870250309999	205.873986940998	"19"	56107.298107398	56104.826900487	1.5	0.1
0.01	1	0.00391975999809802	1	54	NA	208.915371135001	0	0.4	4.44	1	206.103956525003	206.107876285001	"19"	56107.298107398	56104.826900487	1.5	0.1
0.01	1	0.003101066002273	1	54	NA	208.915371135001	0	0.4	4.44	1	206.337753414999	206.340854481001	"19"	56107.298107398	56104.826900487	1.5	0.1
0.01	1	0.00456845200096723	1	54	NA	208.915371135001	0	0.4	4.44	1	206.571514169998	206.576082621999	"19"	56107.298107398	56104.826900487	1.5	0.1
0.01	1	0.00331200999789871	1	54	NA	208.915371135001	0	0.4	4.44	1	206.805189487	206.808501496998	"19"	56107.298107398	56104.826900487	1.5	0.1
0.01	1	0.00458600700221723	1	54	NA	208.915371135001	0	0.4	4.44	1	207.038961439997	207.043547447	"19"	56107.298107398	56104.826900487	1.5	0.1
0.01	1	0.00437295200390508	1	54	NA	208.915371135001	0	0.4	4.44	1	207.272801432999	207.277174385003	"19"	56107.298107398	56104.826900487	1.5	0.1
0.01	1	0.00460717999521876	1	54	NA	208.915371135001	0	0.4	4.44	1	207.506384480002	207.510991659998	"19"	56107.298107398	56104.826900487	1.5	0.1
0.01	1	0.00355024299642537	1	54	NA	208.915371135001	0	0.4	4.44	1	207.74014003	207.743690272997	"19"	56107.298107398	56104.826900487	1.5	0.1
0.01	1	0.00386993999563856	1	54	NA	208.915371135001	0	0.4	4.44	1	207.973874055002	207.977743994998	"19"	56107.298107398	56104.826900487	1.5	0.1
0.01	1	0.00464910199661972	1	54	NA	208.915371135001	0	0.4	4.44	1	208.207563230004	208.212212332	"19"	56107.298107398	56104.826900487	1.5	0.1
0.01	1	0.00457063999783713	1	54	NA	208.915371135001	0	0.4	4.44	1	208.441393510002	208.44596415	"19"	56107.298107398	56104.826900487	1.5	0.1
0.01	1	0.00338851300330134	1	54	NA	208.915371135001	0	0.4	4.44	1	208.67499182	208.678380333004	"19"	56107.298107398	56104.826900487	1.5	0.1
