"payoff.level"	"balloon"	"rt"	"resp"	"explode.trial"	"explode.time"	"finish.time"	"exploded"	"trial.total"	"cumulative.total"	"finished"	"trial.start"	"trial.end"	"trial.num"	"secs"	"start.time"	"iti"	"isi"
0.01	1	1.44691681899985	1	64	NA	5.79426113200043	0	0.05	0.05	1	0.0180831050001871	1.46499992400004	"1"	6274.623136251	6268.558528506	1.5	0.1
0.01	1	0.527706275000128	1	64	NA	5.79426113200043	0	0.05	0.05	1	1.87118684500001	2.39889312000014	"1"	6274.623136251	6268.558528506	1.5	0.1
0.01	1	0.466613625999344	1	64	NA	5.79426113200043	0	0.05	0.05	1	2.62240896800085	3.0890225940002	"1"	6274.623136251	6268.558528506	1.5	0.1
0.01	1	0.339336602999538	1	64	NA	5.79426113200043	0	0.05	0.05	1	3.32361578300061	3.66295238600014	"1"	6274.623136251	6268.558528506	1.5	0.1
0.01	1	0.373080816000765	1	64	NA	5.79426113200043	0	0.05	0.05	1	3.89123190200007	4.26431271800084	"1"	6274.623136251	6268.558528506	1.5	0.1
0.01	1	1.30044449199977	2	64	NA	5.79426113200043	0	0.05	0.05	1	4.49224916800085	5.79269366000062	"1"	6274.623136251	6268.558528506	1.5	0.1
0.01	1	0.455799299000319	1	102	NA	14.1133483420008	0	0.11	0.16	1	7.84784614199998	8.3036454410003	"2"	6274.623136251	6268.558528506	1.5	0.1
0.01	1	0.309153774000151	1	102	NA	14.1133483420008	0	0.11	0.16	1	8.53232265000042	8.84147642400058	"2"	6274.623136251	6268.558528506	1.5	0.1
0.01	1	0.260318435999579	1	102	NA	14.1133483420008	0	0.11	0.16	1	9.06654754700048	9.32686598300006	"2"	6274.623136251	6268.558528506	1.5	0.1
0.01	1	0.135962265999297	1	102	NA	14.1133483420008	0	0.11	0.16	1	9.56769090500075	9.70365317100004	"2"	6274.623136251	6268.558528506	1.5	0.1
0.01	1	0.145357352000246	1	102	NA	14.1133483420008	0	0.11	0.16	1	9.93467210100061	10.0800294530009	"2"	6274.623136251	6268.558528506	1.5	0.1
0.01	1	0.193461478000245	1	102	NA	14.1133483420008	0	0.11	0.16	1	10.3021223490005	10.4955838270007	"2"	6274.623136251	6268.558528506	1.5	0.1
0.01	1	0.16865820700059	1	102	NA	14.1133483420008	0	0.11	0.16	1	10.719295848	10.8879540550006	"2"	6274.623136251	6268.558528506	1.5	0.1
0.01	1	0.110954783999659	1	102	NA	14.1133483420008	0	0.11	0.16	1	11.1200507270005	11.2310055110001	"2"	6274.623136251	6268.558528506	1.5	0.1
0.01	1	0.0504112130001886	1	102	NA	14.1133483420008	0	0.11	0.16	1	11.4540485150001	11.5044597280003	"2"	6274.623136251	6268.558528506	1.5	0.1
0.01	1	0.0612322310007585	1	102	NA	14.1133483420008	0	0.11	0.16	1	11.7378654690001	11.7990977000009	"2"	6274.623136251	6268.558528506	1.5	0.1
0.01	1	1.01118577200032	1	102	NA	14.1133483420008	0	0.11	0.16	1	12.0214808820001	13.0326666540004	"2"	6274.623136251	6268.558528506	1.5	0.1
0.01	1	0.854746345999956	2	102	NA	14.1133483420008	0	0.11	0.16	1	13.2570148770001	14.111761223	"2"	6274.623136251	6268.558528506	1.5	0.1
0.01	1	3.54473668299943	1	97	NA	28.5241341360006	0	0.13	0.29	1	16.1618583940008	19.7065950770002	"3"	6274.623136251	6268.558528506	1.5	0.1
0.01	1	0.938543371000378	1	97	NA	28.5241341360006	0	0.13	0.29	1	19.9349172660004	20.8734606370008	"3"	6274.623136251	6268.558528506	1.5	0.1
0.01	1	0.58669667400045	1	97	NA	28.5241341360006	0	0.13	0.29	1	21.1035901980003	21.6902868720008	"3"	6274.623136251	6268.558528506	1.5	0.1
0.01	1	0.320077505999507	1	97	NA	28.5241341360006	0	0.13	0.29	1	21.9214857570005	22.241563263	"3"	6274.623136251	6268.558528506	1.5	0.1
0.01	1	0.976790155999879	1	97	NA	28.5241341360006	0	0.13	0.29	1	22.4726350160008	23.4494251720007	"3"	6274.623136251	6268.558528506	1.5	0.1
0.01	1	0.327913141999488	1	97	NA	28.5241341360006	0	0.13	0.29	1	23.6744847960008	24.0023979380003	"3"	6274.623136251	6268.558528506	1.5	0.1
0.01	1	0.0045585249999931	1	97	NA	28.5241341360006	0	0.13	0.29	1	24.2255163	24.230074825	"3"	6274.623136251	6268.558528506	1.5	0.1
0.01	1	0.383111732000543	1	97	NA	28.5241341360006	0	0.13	0.29	1	24.459190431	24.8423021630006	"3"	6274.623136251	6268.558528506	1.5	0.1
0.01	1	0.333071635999659	1	97	NA	28.5241341360006	0	0.13	0.29	1	25.0770104170006	25.4100820530002	"3"	6274.623136251	6268.558528506	1.5	0.1
0.01	1	0.00216965100025845	1	97	NA	28.5241341360006	0	0.13	0.29	1	25.6445761430004	25.6467457940007	"3"	6274.623136251	6268.558528506	1.5	0.1
0.01	1	0.483683923999706	1	97	NA	28.5241341360006	0	0.13	0.29	1	25.8781792400005	26.3618631640002	"3"	6274.623136251	6268.558528506	1.5	0.1
0.01	1	0.27676259799955	1	97	NA	28.5241341360006	0	0.13	0.29	1	26.5960316160008	26.8727942140004	"3"	6274.623136251	6268.558528506	1.5	0.1
0.01	1	0.306188860000475	1	97	NA	28.5241341360006	0	0.13	0.29	1	27.0968577840003	27.4030466440008	"3"	6274.623136251	6268.558528506	1.5	0.1
0.01	1	0.891378536999582	2	97	NA	28.5241341360006	0	0.13	0.29	1	27.6312478080008	28.5226263450004	"3"	6274.623136251	6268.558528506	1.5	0.1
0.01	1	1.47963375400013	1	51	NA	36.6193906570006	0	0.06	0.35	1	30.5695831440007	32.0492168980009	"4"	6274.623136251	6268.558528506	1.5	0.1
0.01	1	0.504522924000412	1	51	NA	36.6193906570006	0	0.06	0.35	1	32.2890512000004	32.7935741240008	"4"	6274.623136251	6268.558528506	1.5	0.1
0.01	1	0.611230127000454	1	51	NA	36.6193906570006	0	0.06	0.35	1	33.0235565000003	33.6347866270007	"4"	6274.623136251	6268.558528506	1.5	0.1
0.01	1	0.495538537999892	1	51	NA	36.6193906570006	0	0.06	0.35	1	33.8583119520008	34.3538504900007	"4"	6274.623136251	6268.558528506	1.5	0.1
0.01	1	0.168934370999523	1	51	NA	36.6193906570006	0	0.06	0.35	1	34.5761786210005	34.745112992	"4"	6274.623136251	6268.558528506	1.5	0.1
0.01	1	0.103831667000122	1	51	NA	36.6193906570006	0	0.06	0.35	1	34.976855674	35.0806873410002	"4"	6274.623136251	6268.558528506	1.5	0.1
0.01	1	1.30709158599984	2	51	NA	36.6193906570006	0	0.06	0.35	1	35.3107871670009	36.6178787530007	"4"	6274.623136251	6268.558528506	1.5	0.1
0.01	1	0.550393226000779	1	116	NA	41.4519430970004	0	0.06	0.41	1	38.666404566	39.2167977920008	"5"	6274.623136251	6268.558528506	1.5	0.1
0.01	1	0.110210838000057	1	116	NA	41.4519430970004	0	0.06	0.41	1	39.4510609900008	39.5612718280008	"5"	6274.623136251	6268.558528506	1.5	0.1
0.01	1	0.112477477000539	1	116	NA	41.4519430970004	0	0.06	0.41	1	39.7850623280001	39.8975398050006	"5"	6274.623136251	6268.558528506	1.5	0.1
0.01	1	0.123493954000878	1	116	NA	41.4519430970004	0	0.06	0.41	1	40.11879572	40.2422896740009	"5"	6274.623136251	6268.558528506	1.5	0.1
0.01	1	0.083650008999939	1	116	NA	41.4519430970004	0	0.06	0.41	1	40.4694496260008	40.5530996350008	"5"	6274.623136251	6268.558528506	1.5	0.1
0.01	1	0.0473998320003375	1	116	NA	41.4519430970004	0	0.06	0.41	1	40.7866622350002	40.8340620670006	"5"	6274.623136251	6268.558528506	1.5	0.1
0.01	1	0.380067237999356	2	116	NA	41.4519430970004	0	0.06	0.41	1	41.0703746020008	41.4504418400002	"5"	6274.623136251	6268.558528506	1.5	0.1
0.01	1	0.774266991999866	1	118	NA	48.1632213640005	0	0.08	0.49	1	43.5079564740008	44.2822234660007	"6"	6274.623136251	6268.558528506	1.5	0.1
0.01	1	0.116446447999806	1	118	NA	48.1632213640005	0	0.08	0.49	1	44.5095342540008	44.6259807020006	"6"	6274.623136251	6268.558528506	1.5	0.1
0.01	1	0.982351071999801	1	118	NA	48.1632213640005	0	0.08	0.49	1	44.8600777820002	45.842428854	"6"	6274.623136251	6268.558528506	1.5	0.1
0.01	1	0.00220115399952192	1	118	NA	48.1632213640005	0	0.08	0.49	1	46.0787988030006	46.0809999570001	"6"	6274.623136251	6268.558528506	1.5	0.1
0.01	1	0.131848758999695	1	118	NA	48.1632213640005	0	0.08	0.49	1	46.3125131020006	46.4443618610003	"6"	6274.623136251	6268.558528506	1.5	0.1
0.01	1	0.0183278290005546	1	118	NA	48.1632213640005	0	0.08	0.49	1	46.6798706760001	46.6981985050006	"6"	6274.623136251	6268.558528506	1.5	0.1
0.01	1	0.103961683999842	1	118	NA	48.1632213640005	0	0.08	0.49	1	46.9302982610006	47.0342599450005	"6"	6274.623136251	6268.558528506	1.5	0.1
0.01	1	0.200470376999874	1	118	NA	48.1632213640005	0	0.08	0.49	1	47.2641412980001	47.464611675	"6"	6274.623136251	6268.558528506	1.5	0.1
0.01	1	0.463453754000511	2	118	NA	48.1632213640005	0	0.08	0.49	1	47.6982483470001	48.1617021010006	"6"	6274.623136251	6268.558528506	1.5	0.1
0.01	1	1.08676015600031	1	87	NA	56.0757870320003	0	0.11	0.6	1	50.2191230340004	51.3058831900007	"7"	6274.623136251	6268.558528506	1.5	0.1
0.01	1	0.527047169999605	1	87	NA	56.0757870320003	0	0.11	0.6	1	51.5380406950007	52.0650878650004	"7"	6274.623136251	6268.558528506	1.5	0.1
0.01	1	0.144097060999229	1	87	NA	56.0757870320003	0	0.11	0.6	1	52.2893169470008	52.433414008	"7"	6274.623136251	6268.558528506	1.5	0.1
0.01	1	0.106137404999572	1	87	NA	56.0757870320003	0	0.11	0.6	1	52.6566503350004	52.76278774	"7"	6274.623136251	6268.558528506	1.5	0.1
0.01	1	0.0516328000003341	1	87	NA	56.0757870320003	0	0.11	0.6	1	52.9904974270003	53.0421302270006	"7"	6274.623136251	6268.558528506	1.5	0.1
0.01	1	0.0473820090001027	1	87	NA	56.0757870320003	0	0.11	0.6	1	53.2742237460006	53.3216057550007	"7"	6274.623136251	6268.558528506	1.5	0.1
0.01	1	0.0514230680000765	1	87	NA	56.0757870320003	0	0.11	0.6	1	53.5582299890002	53.6096530570003	"7"	6274.623136251	6268.558528506	1.5	0.1
0.01	1	0.0711388839999927	1	87	NA	56.0757870320003	0	0.11	0.6	1	53.8419196940004	53.9130585780003	"7"	6274.623136251	6268.558528506	1.5	0.1
0.01	1	0.091899216999991	1	87	NA	56.0757870320003	0	0.11	0.6	1	54.1423575000008	54.2342567170008	"7"	6274.623136251	6268.558528506	1.5	0.1
0.01	1	0.0635478109998076	1	87	NA	56.0757870320003	0	0.11	0.6	1	54.4595916770004	54.5231394880002	"7"	6274.623136251	6268.558528506	1.5	0.1
0.01	1	0.0645230879999872	1	87	NA	56.0757870320003	0	0.11	0.6	1	54.7600733740001	54.824596462	"7"	6274.623136251	6268.558528506	1.5	0.1
0.01	1	1.01355147699996	2	87	NA	56.0757870320003	0	0.11	0.6	1	55.0606290620008	56.0741805390007	"7"	6274.623136251	6268.558528506	1.5	0.1
0.01	1	0.734664464000161	1	6	60.2720384940003	NA	1	0	0.6	1	58.1157701800003	58.8504346440004	"8"	6274.623136251	6268.558528506	1.5	0.1
0.01	1	0.00220121800066408	1	6	60.2720384940003	NA	1	0	0.6	1	59.084128509	59.0863297270007	"8"	6274.623136251	6268.558528506	1.5	0.1
0.01	1	0.00215599199964345	1	6	60.2720384940003	NA	1	0	0.6	1	59.3178052950007	59.3199612870003	"8"	6274.623136251	6268.558528506	1.5	0.1
0.01	1	0.0816119970004365	1	6	60.2720384940003	NA	1	0	0.6	1	59.551544512	59.6331565090004	"8"	6274.623136251	6268.558528506	1.5	0.1
0.01	1	0.0616485930004274	1	6	60.2720384940003	NA	1	0	0.6	1	59.8687165040001	59.9303650970005	"8"	6274.623136251	6268.558528506	1.5	0.1
0.01	1	0.00206813800014061	1	6	60.2720384940003	NA	1	0	0.6	1	60.1525375390001	60.1546056770003	"8"	6274.623136251	6268.558528506	1.5	0.1
0.01	1	2.177890983	1	106	NA	66.7497363590001	0	0.05	0.65	1	62.30615863	64.484049613	"9"	6274.623136251	6268.558528506	1.5	0.1
0.01	1	0.00213811200046621	1	106	NA	66.7497363590001	0	0.05	0.65	1	64.7102219620001	64.7123600740006	"9"	6274.623136251	6268.558528506	1.5	0.1
0.01	1	0.228078260999609	1	106	NA	66.7497363590001	0	0.05	0.65	1	64.9438808000004	65.1719590610001	"9"	6274.623136251	6268.558528506	1.5	0.1
0.01	1	0.171167969000635	1	106	NA	66.7497363590001	0	0.05	0.65	1	65.3946821620002	65.5658501310008	"9"	6274.623136251	6268.558528506	1.5	0.1
0.01	1	0.153161773999273	1	106	NA	66.7497363590001	0	0.05	0.65	1	65.7952834740008	65.9484452480001	"9"	6274.623136251	6268.558528506	1.5	0.1
0.01	1	0.568822879999971	2	106	NA	66.7497363590001	0	0.05	0.65	1	66.1793259800006	66.7481488600006	"9"	6274.623136251	6268.558528506	1.5	0.1
0.01	1	0.461653539000508	1	21	NA	72.9742749940006	0	0.08	0.73	1	68.8004485430001	69.2621020820006	"10"	6274.623136251	6268.558528506	1.5	0.1
0.01	1	0.00216145000013057	1	21	NA	72.9742749940006	0	0.08	0.73	1	69.5015778020006	69.5037392520007	"10"	6274.623136251	6268.558528506	1.5	0.1
0.01	1	0.00219494799966924	1	21	NA	72.9742749940006	0	0.08	0.73	1	69.7354342800008	69.7376292280005	"10"	6274.623136251	6268.558528506	1.5	0.1
0.01	1	0.002146788000573	1	21	NA	72.9742749940006	0	0.08	0.73	1	69.9690410570001	69.9711878450007	"10"	6274.623136251	6268.558528506	1.5	0.1
0.01	1	0.00236731499990128	1	21	NA	72.9742749940006	0	0.08	0.73	1	70.2027276250001	70.20509494	"10"	6274.623136251	6268.558528506	1.5	0.1
0.01	1	0.0553514900002483	1	21	NA	72.9742749940006	0	0.08	0.73	1	70.4364778670006	70.4918293570008	"10"	6274.623136251	6268.558528506	1.5	0.1
0.01	1	0.692792628999996	1	21	NA	72.9742749940006	0	0.08	0.73	1	70.7202390170005	71.4130316460005	"10"	6274.623136251	6268.558528506	1.5	0.1
0.01	1	0.00221404999956576	1	21	NA	72.9742749940006	0	0.08	0.73	1	71.6385897980008	71.6408038480004	"10"	6274.623136251	6268.558528506	1.5	0.1
0.01	1	1.10058432400001	2	21	NA	72.9742749940006	0	0.08	0.73	1	71.8721763980002	72.9727607220002	"10"	6274.623136251	6268.558528506	1.5	0.1
0.01	1	2.25685259000056	1	19	NA	78.4459538690007	0	0.01	0.74	1	75.0442925500001	77.3011451400007	"11"	6274.623136251	6268.558528506	1.5	0.1
0.01	1	0.912656206000065	2	19	NA	78.4459538690007	0	0.01	0.74	1	77.5316943280004	78.4443505340005	"11"	6274.623136251	6268.558528506	1.5	0.1
0.01	1	0.375510992999807	1	63	NA	81.4793246580002	0	0.02	0.76	1	80.4700694320009	80.8455804250007	"12"	6274.623136251	6268.558528506	1.5	0.1
0.01	1	0.00384414899963303	1	63	NA	81.4793246580002	0	0.02	0.76	1	81.0712251720006	81.0750693210002	"12"	6274.623136251	6268.558528506	1.5	0.1
0.01	1	0.173065498999676	2	63	NA	81.4793246580002	0	0.02	0.76	1	81.3047047460004	81.4777702450001	"12"	6274.623136251	6268.558528506	1.5	0.1
0.01	1	0.129428170999745	1	54	NA	85.429926455	0	0.04	0.8	1	83.5084402710008	83.6378684420006	"13"	6274.623136251	6268.558528506	1.5	0.1
0.01	1	0.00220739999986108	1	54	NA	85.429926455	0	0.04	0.8	1	83.8757850510001	83.877992451	"13"	6274.623136251	6268.558528506	1.5	0.1
0.01	1	0.104185344000143	1	54	NA	85.429926455	0	0.04	0.8	1	84.1095892680005	84.2137746120006	"13"	6274.623136251	6268.558528506	1.5	0.1
0.01	1	0.121229184000185	1	54	NA	85.429926455	0	0.04	0.8	1	84.4433250880002	84.5645542720004	"13"	6274.623136251	6268.558528506	1.5	0.1
0.01	1	0.634393645999808	2	54	NA	85.429926455	0	0.04	0.8	1	84.7939980300007	85.4283916760005	"13"	6274.623136251	6268.558528506	1.5	0.1
0.01	1	0.883383478000724	1	103	NA	101.077463434	0	0.2	1	1	87.48175653	88.3651400080007	"14"	6274.623136251	6268.558528506	1.5	0.1
0.01	1	0.316854992000117	1	103	NA	101.077463434	0	0.2	1	1	88.6003681250004	88.9172231170005	"14"	6274.623136251	6268.558528506	1.5	0.1
0.01	1	0.380612594000013	1	103	NA	101.077463434	0	0.2	1	1	89.1513942360007	89.5320068300007	"14"	6274.623136251	6268.558528506	1.5	0.1
0.01	1	0.291457321000053	1	103	NA	101.077463434	0	0.2	1	1	89.7689626720003	90.0604199930003	"14"	6274.623136251	6268.558528506	1.5	0.1
0.01	1	0.686736514000586	1	103	NA	101.077463434	0	0.2	1	1	90.2865580480002	90.9732945620008	"14"	6274.623136251	6268.558528506	1.5	0.1
0.01	1	0.408548817000337	1	103	NA	101.077463434	0	0.2	1	1	91.2047968400002	91.6133456570005	"14"	6274.623136251	6268.558528506	1.5	0.1
0.01	1	0.484828139999991	1	103	NA	101.077463434	0	0.2	1	1	91.8391922520004	92.3240203920004	"14"	6274.623136251	6268.558528506	1.5	0.1
0.01	1	0.383804772000076	1	103	NA	101.077463434	0	0.2	1	1	92.5569673630007	92.9407721350008	"14"	6274.623136251	6268.558528506	1.5	0.1
0.01	1	0.350671524000063	1	103	NA	101.077463434	0	0.2	1	1	93.1748496390001	93.5255211630001	"14"	6274.623136251	6268.558528506	1.5	0.1
0.01	1	0.308774250999704	1	103	NA	101.077463434	0	0.2	1	1	93.7592163000008	94.0679905510005	"14"	6274.623136251	6268.558528506	1.5	0.1
0.01	1	0.352613164000104	1	103	NA	101.077463434	0	0.2	1	1	94.293332745	94.6459459090001	"14"	6274.623136251	6268.558528506	1.5	0.1
0.01	1	0.4305613180004	1	103	NA	101.077463434	0	0.2	1	1	94.877557113	95.3081184310004	"14"	6274.623136251	6268.558528506	1.5	0.1
0.01	1	0.37074730599943	1	103	NA	101.077463434	0	0.2	1	1	95.5454777130008	95.9162250190002	"14"	6274.623136251	6268.558528506	1.5	0.1
0.01	1	0.394648674000564	1	103	NA	101.077463434	0	0.2	1	1	96.1465338460002	96.5411825200008	"14"	6274.623136251	6268.558528506	1.5	0.1
0.01	1	0.433259943999474	1	103	NA	101.077463434	0	0.2	1	1	96.7641379820006	97.1973979260001	"14"	6274.623136251	6268.558528506	1.5	0.1
0.01	1	0.325554445999842	1	103	NA	101.077463434	0	0.2	1	1	97.4320817400003	97.7576361860001	"14"	6274.623136251	6268.558528506	1.5	0.1
0.01	1	0.446268300999691	1	103	NA	101.077463434	0	0.2	1	1	97.9829111280005	98.4291794290002	"14"	6274.623136251	6268.558528506	1.5	0.1
0.01	1	0.345487206000143	1	103	NA	101.077463434	0	0.2	1	1	98.6673874960006	99.0128747020008	"14"	6274.623136251	6268.558528506	1.5	0.1
0.01	1	0.281401600999743	1	103	NA	101.077463434	0	0.2	1	1	99.2348764440003	99.516278045	"14"	6274.623136251	6268.558528506	1.5	0.1
0.01	1	0.300716695000119	1	103	NA	101.077463434	0	0.2	1	1	99.7524179000002	100.053134595	"14"	6274.623136251	6268.558528506	1.5	0.1
0.01	1	0.789332116999503	2	103	NA	101.077463434	0	0.2	1	1	100.286608795001	101.075940912	"14"	6274.623136251	6268.558528506	1.5	0.1
0.01	1	1.61473149599988	1	120	NA	110.005083755001	0	0.1	1.1	1	103.12488449	104.739615986	"15"	6274.623136251	6268.558528506	1.5	0.1
0.01	1	0.258354026000234	1	120	NA	110.005083755001	0	0.1	1.1	1	104.977929767	105.236283793	"15"	6274.623136251	6268.558528506	1.5	0.1
0.01	1	0.301188792000175	1	120	NA	110.005083755001	0	0.1	1.1	1	105.462218680001	105.763407472001	"15"	6274.623136251	6268.558528506	1.5	0.1
0.01	1	0.264107401999354	1	120	NA	110.005083755001	0	0.1	1.1	1	105.996342924001	106.260450326	"15"	6274.623136251	6268.558528506	1.5	0.1
0.01	1	0.307537924999451	1	120	NA	110.005083755001	0	0.1	1.1	1	106.497190857001	106.804728782	"15"	6274.623136251	6268.558528506	1.5	0.1
0.01	1	0.244959317999928	1	120	NA	110.005083755001	0	0.1	1.1	1	107.031386037001	107.276345355001	"15"	6274.623136251	6268.558528506	1.5	0.1
0.01	1	0.265895608000392	1	120	NA	110.005083755001	0	0.1	1.1	1	107.498797987	107.764693595001	"15"	6274.623136251	6268.558528506	1.5	0.1
0.01	1	0.267887537000206	1	120	NA	110.005083755001	0	0.1	1.1	1	107.999795565001	108.267683102001	"15"	6274.623136251	6268.558528506	1.5	0.1
0.01	1	0.310940288999518	1	120	NA	110.005083755001	0	0.1	1.1	1	108.500559235001	108.811499524	"15"	6274.623136251	6268.558528506	1.5	0.1
0.01	1	0.344880032999754	1	120	NA	110.005083755001	0	0.1	1.1	1	109.034773608	109.379653641	"15"	6274.623136251	6268.558528506	1.5	0.1
0.01	1	0.401188308000201	2	120	NA	110.005083755001	0	0.1	1.1	1	109.602363496	110.003551804	"15"	6274.623136251	6268.558528506	1.5	0.1
0.01	1	0.739906471999348	1	109	NA	121.716824122001	0	0.19	1.29	1	112.056454633001	112.796361105	"16"	6274.623136251	6268.558528506	1.5	0.1
0.01	1	0.0674902640002983	1	109	NA	121.716824122001	0	0.19	1.29	1	113.024894091001	113.092384355001	"16"	6274.623136251	6268.558528506	1.5	0.1
0.01	1	0.00638807299947075	1	109	NA	121.716824122001	0	0.19	1.29	1	113.325326595001	113.331714668	"16"	6274.623136251	6268.558528506	1.5	0.1
0.01	1	0.0137499249995017	1	109	NA	121.716824122001	0	0.19	1.29	1	113.559074649001	113.572824574	"16"	6274.623136251	6268.558528506	1.5	0.1
0.01	1	0.00256207799975527	1	109	NA	121.716824122001	0	0.19	1.29	1	113.809478470001	113.812040548	"16"	6274.623136251	6268.558528506	1.5	0.1
0.01	1	0.00221152999984042	1	109	NA	121.716824122001	0	0.19	1.29	1	114.043140262001	114.045351792	"16"	6274.623136251	6268.558528506	1.5	0.1
0.01	1	0.00203402399984043	1	109	NA	121.716824122001	0	0.19	1.29	1	114.277033959001	114.279067983	"16"	6274.623136251	6268.558528506	1.5	0.1
0.01	1	0.00236940500053606	1	109	NA	121.716824122001	0	0.19	1.29	1	114.510683108	114.513052513001	"16"	6274.623136251	6268.558528506	1.5	0.1
0.01	1	0.0118909089997032	1	109	NA	121.716824122001	0	0.19	1.29	1	114.744450547	114.756341456	"16"	6274.623136251	6268.558528506	1.5	0.1
0.01	1	0.0507424600000377	1	109	NA	121.716824122001	0	0.19	1.29	1	114.978167740001	115.028910200001	"16"	6274.623136251	6268.558528506	1.5	0.1
0.01	1	0.0386063099995226	1	109	NA	121.716824122001	0	0.19	1.29	1	115.262002062001	115.300608372	"16"	6274.623136251	6268.558528506	1.5	0.1
0.01	1	0.0581310540001141	1	109	NA	121.716824122001	0	0.19	1.29	1	115.529029424	115.587160478	"16"	6274.623136251	6268.558528506	1.5	0.1
0.01	1	0.0640649379993192	1	109	NA	121.716824122001	0	0.19	1.29	1	115.812862418001	115.876927356	"16"	6274.623136251	6268.558528506	1.5	0.1
0.01	1	0.0905637129999377	1	109	NA	121.716824122001	0	0.19	1.29	1	116.113364988	116.203928701	"16"	6274.623136251	6268.558528506	1.5	0.1
0.01	1	0.134036528000252	1	109	NA	121.716824122001	0	0.19	1.29	1	116.430595229001	116.564631757001	"16"	6274.623136251	6268.558528506	1.5	0.1
0.01	1	0.478041917000155	1	109	NA	121.716824122001	0	0.19	1.29	1	116.797760288	117.275802205	"16"	6274.623136251	6268.558528506	1.5	0.1
0.01	1	0.00211508299980778	1	109	NA	121.716824122001	0	0.19	1.29	1	117.499058107001	117.50117319	"16"	6274.623136251	6268.558528506	1.5	0.1
0.01	1	0.895236719999957	1	109	NA	121.716824122001	0	0.19	1.29	1	117.7326576	118.62789432	"16"	6274.623136251	6268.558528506	1.5	0.1
0.01	1	0.0585942859997886	1	109	NA	121.716824122001	0	0.19	1.29	1	118.851195994001	118.90979028	"16"	6274.623136251	6268.558528506	1.5	0.1
0.01	1	2.58017281699995	2	109	NA	121.716824122001	0	0.19	1.29	1	119.135105537001	121.715278354	"16"	6274.623136251	6268.558528506	1.5	0.1
0.01	1	0.923424483999952	1	71	NA	138.301995468	0	0.41	1.7	1	123.776131064001	124.699555548001	"17"	6274.623136251	6268.558528506	1.5	0.1
0.01	1	0.0609184059994732	1	71	NA	138.301995468	0	0.41	1.7	1	124.928138015001	124.989056421	"17"	6274.623136251	6268.558528506	1.5	0.1
0.01	1	0.0952827889996115	1	71	NA	138.301995468	0	0.41	1.7	1	125.228679643001	125.323962432	"17"	6274.623136251	6268.558528506	1.5	0.1
0.01	1	0.0822495859993069	1	71	NA	138.301995468	0	0.41	1.7	1	125.545923209001	125.628172795	"17"	6274.623136251	6268.558528506	1.5	0.1
0.01	1	0.00207183600014105	1	71	NA	138.301995468	0	0.41	1.7	1	125.863172060001	125.865243896001	"17"	6274.623136251	6268.558528506	1.5	0.1
0.01	1	0.00217991400040773	1	71	NA	138.301995468	0	0.41	1.7	1	126.096922306	126.099102220001	"17"	6274.623136251	6268.558528506	1.5	0.1
0.01	1	0.00221730100020068	1	71	NA	138.301995468	0	0.41	1.7	1	126.330529077	126.332746378001	"17"	6274.623136251	6268.558528506	1.5	0.1
0.01	1	0.00230968899995787	1	71	NA	138.301995468	0	0.41	1.7	1	126.564215287	126.566524976	"17"	6274.623136251	6268.558528506	1.5	0.1
0.01	1	0.278734839999743	1	71	NA	138.301995468	0	0.41	1.7	1	126.797941858001	127.076676698	"17"	6274.623136251	6268.558528506	1.5	0.1
0.01	1	0.0260106800005815	1	71	NA	138.301995468	0	0.41	1.7	1	127.298843982	127.324854662001	"17"	6274.623136251	6268.558528506	1.5	0.1
0.01	1	0.00208005199965555	1	71	NA	138.301995468	0	0.41	1.7	1	127.549303145001	127.551383197	"17"	6274.623136251	6268.558528506	1.5	0.1
0.01	1	0.00303540400000202	1	71	NA	138.301995468	0	0.41	1.7	1	127.78302573	127.786061134	"17"	6274.623136251	6268.558528506	1.5	0.1
0.01	1	0.0022037429998818	1	71	NA	138.301995468	0	0.41	1.7	1	128.016718577001	128.01892232	"17"	6274.623136251	6268.558528506	1.5	0.1
0.01	1	0.114374302999749	1	71	NA	138.301995468	0	0.41	1.7	1	128.250425302001	128.364799605	"17"	6274.623136251	6268.558528506	1.5	0.1
0.01	1	0.00218982200021856	1	71	NA	138.301995468	0	0.41	1.7	1	128.60110176	128.603291582001	"17"	6274.623136251	6268.558528506	1.5	0.1
0.01	1	0.00204498099992634	1	71	NA	138.301995468	0	0.41	1.7	1	128.834861448	128.836906429	"17"	6274.623136251	6268.558528506	1.5	0.1
0.01	1	0.00211841400050616	1	71	NA	138.301995468	0	0.41	1.7	1	129.068521154	129.070639568001	"17"	6274.623136251	6268.558528506	1.5	0.1
0.01	1	0.0021348330001274	1	71	NA	138.301995468	0	0.41	1.7	1	129.302130073001	129.304264906001	"17"	6274.623136251	6268.558528506	1.5	0.1
0.01	1	0.149146570000084	1	71	NA	138.301995468	0	0.41	1.7	1	129.535943255	129.685089825	"17"	6274.623136251	6268.558528506	1.5	0.1
0.01	1	0.00215159700019285	1	71	NA	138.301995468	0	0.41	1.7	1	129.919930389	129.922081986	"17"	6274.623136251	6268.558528506	1.5	0.1
0.01	1	0.00210829499974352	1	71	NA	138.301995468	0	0.41	1.7	1	130.153531520001	130.155639815001	"17"	6274.623136251	6268.558528506	1.5	0.1
0.01	1	0.0971831619999648	1	71	NA	138.301995468	0	0.41	1.7	1	130.387388104001	130.484571266001	"17"	6274.623136251	6268.558528506	1.5	0.1
0.01	1	0.00394595500074502	1	71	NA	138.301995468	0	0.41	1.7	1	130.721300655	130.725246610001	"17"	6274.623136251	6268.558528506	1.5	0.1
0.01	1	0.00208881900016422	1	71	NA	138.301995468	0	0.41	1.7	1	130.954907899	130.956996718	"17"	6274.623136251	6268.558528506	1.5	0.1
0.01	1	0.311970495999958	1	71	NA	138.301995468	0	0.41	1.7	1	131.188718106	131.500688602	"17"	6274.623136251	6268.558528506	1.5	0.1
0.01	1	0.297920428999532	1	71	NA	138.301995468	0	0.41	1.7	1	131.722869929001	132.020790358	"17"	6274.623136251	6268.558528506	1.5	0.1
0.01	1	0.170045973000015	1	71	NA	138.301995468	0	0.41	1.7	1	132.257074064	132.427120037	"17"	6274.623136251	6268.558528506	1.5	0.1
0.01	1	0.234147205000227	1	71	NA	138.301995468	0	0.41	1.7	1	132.657937334	132.892084539	"17"	6274.623136251	6268.558528506	1.5	0.1
0.01	1	0.230386199999884	1	71	NA	138.301995468	0	0.41	1.7	1	133.125321402001	133.355707602001	"17"	6274.623136251	6268.558528506	1.5	0.1
0.01	1	0.00430664000032266	1	71	NA	138.301995468	0	0.41	1.7	1	133.79319687	133.797503510001	"17"	6274.623136251	6268.558528506	1.5	0.1
0.01	1	0.184204447999946	1	71	NA	138.301995468	0	0.41	1.7	1	134.026955015001	134.211159463001	"17"	6274.623136251	6268.558528506	1.5	0.1
0.01	1	0.167777757000295	1	71	NA	138.301995468	0	0.41	1.7	1	134.444210917	134.611988674001	"17"	6274.623136251	6268.558528506	1.5	0.1
0.01	1	0.127093642000546	1	71	NA	138.301995468	0	0.41	1.7	1	134.84494463	134.972038272001	"17"	6274.623136251	6268.558528506	1.5	0.1
0.01	1	0.135720629999923	1	71	NA	138.301995468	0	0.41	1.7	1	135.195413692	135.331134322	"17"	6274.623136251	6268.558528506	1.5	0.1
0.01	1	0.145986092999919	1	71	NA	138.301995468	0	0.41	1.7	1	135.562616387	135.70860248	"17"	6274.623136251	6268.558528506	1.5	0.1
0.01	1	0.112398386000677	1	71	NA	138.301995468	0	0.41	1.7	1	135.946672047	136.059070433001	"17"	6274.623136251	6268.558528506	1.5	0.1
0.01	1	0.089959920000183	1	71	NA	138.301995468	0	0.41	1.7	1	136.297253718	136.387213638001	"17"	6274.623136251	6268.558528506	1.5	0.1
0.01	1	0.0791936759997043	1	71	NA	138.301995468	0	0.41	1.7	1	136.614387727001	136.693581403	"17"	6274.623136251	6268.558528506	1.5	0.1
0.01	1	0.00225281899929541	1	71	NA	138.301995468	0	0.41	1.7	1	136.914936546001	136.917189365	"17"	6274.623136251	6268.558528506	1.5	0.1
0.01	1	0.00208431699957146	1	71	NA	138.301995468	0	0.41	1.7	1	137.14880528	137.150889597	"17"	6274.623136251	6268.558528506	1.5	0.1
0.01	1	0.117064164999647	1	71	NA	138.301995468	0	0.41	1.7	1	137.382449635001	137.4995138	"17"	6274.623136251	6268.558528506	1.5	0.1
0.01	1	0.56735887800005	2	71	NA	138.301995468	0	0.41	1.7	1	137.733024989	138.300383867	"17"	6274.623136251	6268.558528506	1.5	0.1
0.01	1	1.76236794200031	1	96	NA	153.05363338	0	0.34	2.04	1	140.3374362	142.099804142001	"18"	6274.623136251	6268.558528506	1.5	0.1
0.01	1	0.126875095000287	1	96	NA	153.05363338	0	0.34	2.04	1	142.34086815	142.467743245001	"18"	6274.623136251	6268.558528506	1.5	0.1
0.01	1	0.168886099999327	1	96	NA	153.05363338	0	0.34	2.04	1	142.691427805001	142.860313905	"18"	6274.623136251	6268.558528506	1.5	0.1
0.01	1	0.119057516999419	1	96	NA	153.05363338	0	0.34	2.04	1	143.092186260001	143.211243777	"18"	6274.623136251	6268.558528506	1.5	0.1
0.01	1	0.0664112439999371	1	96	NA	153.05363338	0	0.34	2.04	1	143.442602727	143.509013971	"18"	6274.623136251	6268.558528506	1.5	0.1
0.01	1	0.100229780000518	1	96	NA	153.05363338	0	0.34	2.04	1	143.743244792	143.843474572001	"18"	6274.623136251	6268.558528506	1.5	0.1
0.01	1	0.0799364329996024	1	96	NA	153.05363338	0	0.34	2.04	1	144.077177169001	144.157113602	"18"	6274.623136251	6268.558528506	1.5	0.1
0.01	1	0.113057719999233	1	96	NA	153.05363338	0	0.34	2.04	1	144.394240357001	144.507298077	"18"	6274.623136251	6268.558528506	1.5	0.1
0.01	1	0.0996331860005739	1	96	NA	153.05363338	0	0.34	2.04	1	144.74490194	144.844535126001	"18"	6274.623136251	6268.558528506	1.5	0.1
0.01	1	0.116810204000103	1	96	NA	153.05363338	0	0.34	2.04	1	145.078799415001	145.195609619001	"18"	6274.623136251	6268.558528506	1.5	0.1
0.01	1	0.190956792000179	1	96	NA	153.05363338	0	0.34	2.04	1	145.429390695001	145.620347487001	"18"	6274.623136251	6268.558528506	1.5	0.1
0.01	1	0.116461554000125	1	96	NA	153.05363338	0	0.34	2.04	1	145.846750355	145.963211909	"18"	6274.623136251	6268.558528506	1.5	0.1
0.01	1	0.102384456000436	1	96	NA	153.05363338	0	0.34	2.04	1	146.19742631	146.299810766001	"18"	6274.623136251	6268.558528506	1.5	0.1
0.01	1	0.088481949999732	1	96	NA	153.05363338	0	0.34	2.04	1	146.53126604	146.61974799	"18"	6274.623136251	6268.558528506	1.5	0.1
0.01	1	0.0759059080000952	1	96	NA	153.05363338	0	0.34	2.04	1	146.84845664	146.924362548	"18"	6274.623136251	6268.558528506	1.5	0.1
0.01	1	0.0150394270003744	1	96	NA	153.05363338	0	0.34	2.04	1	147.148953455	147.163992882	"18"	6274.623136251	6268.558528506	1.5	0.1
0.01	1	0.0358933180004897	1	96	NA	153.05363338	0	0.34	2.04	1	147.399422745	147.435316063001	"18"	6274.623136251	6268.558528506	1.5	0.1
0.01	1	0.0173770319997857	1	96	NA	153.05363338	0	0.34	2.04	1	147.666535875001	147.683912907	"18"	6274.623136251	6268.558528506	1.5	0.1
0.01	1	0.0477418329992361	1	96	NA	153.05363338	0	0.34	2.04	1	147.916989945001	147.964731778	"18"	6274.623136251	6268.558528506	1.5	0.1
0.01	1	0.0202670189992205	1	96	NA	153.05363338	0	0.34	2.04	1	148.200777915001	148.221044934	"18"	6274.623136251	6268.558528506	1.5	0.1
0.01	1	0.0339527290007027	1	96	NA	153.05363338	0	0.34	2.04	1	148.45112487	148.485077599001	"18"	6274.623136251	6268.558528506	1.5	0.1
0.01	1	0.0026938169994537	1	96	NA	153.05363338	0	0.34	2.04	1	148.718302034001	148.720995851	"18"	6274.623136251	6268.558528506	1.5	0.1
0.01	1	0.00202272800015635	1	96	NA	153.05363338	0	0.34	2.04	1	148.952052955	148.954075683	"18"	6274.623136251	6268.558528506	1.5	0.1
0.01	1	0.00372389099993597	1	96	NA	153.05363338	0	0.34	2.04	1	149.185763245	149.189487136	"18"	6274.623136251	6268.558528506	1.5	0.1
0.01	1	0.152846874000716	1	96	NA	153.05363338	0	0.34	2.04	1	149.419440832	149.572287706001	"18"	6274.623136251	6268.558528506	1.5	0.1
0.01	1	0.00254035399939312	1	96	NA	153.05363338	0	0.34	2.04	1	149.803423472001	149.805963826	"18"	6274.623136251	6268.558528506	1.5	0.1
0.01	1	0.00253832899943518	1	96	NA	153.05363338	0	0.34	2.04	1	150.037193980001	150.039732309	"18"	6274.623136251	6268.558528506	1.5	0.1
0.01	1	0.00207958200007852	1	96	NA	153.05363338	0	0.34	2.04	1	150.270931768	150.27301135	"18"	6274.623136251	6268.558528506	1.5	0.1
0.01	1	0.00208936700073536	1	96	NA	153.05363338	0	0.34	2.04	1	150.504655838	150.506745205001	"18"	6274.623136251	6268.558528506	1.5	0.1
0.01	1	0.00227032299972052	1	96	NA	153.05363338	0	0.34	2.04	1	150.738316382	150.740586705	"18"	6274.623136251	6268.558528506	1.5	0.1
0.01	1	0.00204570699952455	1	96	NA	153.05363338	0	0.34	2.04	1	150.971986330001	150.974032037	"18"	6274.623136251	6268.558528506	1.5	0.1
0.01	1	0.00386914499995328	1	96	NA	153.05363338	0	0.34	2.04	1	151.205743465001	151.20961261	"18"	6274.623136251	6268.558528506	1.5	0.1
0.01	1	0.0931382429998848	1	96	NA	153.05363338	0	0.34	2.04	1	151.439448547	151.53258679	"18"	6274.623136251	6268.558528506	1.5	0.1
0.01	1	0.0400832779996563	1	96	NA	153.05363338	0	0.34	2.04	1	151.756764227001	151.796847505	"18"	6274.623136251	6268.558528506	1.5	0.1
0.01	1	1.02829609999935	2	96	NA	153.05363338	0	0.34	2.04	1	152.023752720001	153.05204882	"18"	6274.623136251	6268.558528506	1.5	0.1
0.01	1	1.16341994000049	1	91	NA	159.254154707	0	0.1	2.14	1	155.095687735	156.259107675	"19"	6274.623136251	6268.558528506	1.5	0.1
0.01	1	0.00294951999967452	1	91	NA	159.254154707	0	0.1	2.14	1	156.497904436001	156.500853956	"19"	6274.623136251	6268.558528506	1.5	0.1
0.01	1	0.00210217599942553	1	91	NA	159.254154707	0	0.1	2.14	1	156.731744860001	156.733847036	"19"	6274.623136251	6268.558528506	1.5	0.1
0.01	1	0.00460286999987147	1	91	NA	159.254154707	0	0.1	2.14	1	156.965458520001	156.97006139	"19"	6274.623136251	6268.558528506	1.5	0.1
0.01	1	0.00389570099923731	1	91	NA	159.254154707	0	0.1	2.14	1	157.199254317001	157.203150018	"19"	6274.623136251	6268.558528506	1.5	0.1
0.01	1	0.00446727100006683	1	91	NA	159.254154707	0	0.1	2.14	1	157.432926486001	157.437393757001	"19"	6274.623136251	6268.558528506	1.5	0.1
0.01	1	0.00370047599972168	1	91	NA	159.254154707	0	0.1	2.14	1	157.666683942	157.670384418	"19"	6274.623136251	6268.558528506	1.5	0.1
0.01	1	0.00375587199960137	1	91	NA	159.254154707	0	0.1	2.14	1	157.90039751	157.904153382	"19"	6274.623136251	6268.558528506	1.5	0.1
0.01	1	0.13511750500038	1	91	NA	159.254154707	0	0.1	2.14	1	158.13404686	158.269164365001	"19"	6274.623136251	6268.558528506	1.5	0.1
0.01	1	0.00379623000026186	1	91	NA	159.254154707	0	0.1	2.14	1	158.50146778	158.50526401	"19"	6274.623136251	6268.558528506	1.5	0.1
0.01	1	0.517525765000755	2	91	NA	159.254154707	0	0.1	2.14	1	158.73507857	159.252604335001	"19"	6274.623136251	6268.558528506	1.5	0.1
0.01	1	1.66233877899958	1	5	164.414213625	NA	1	0	2.14	1	161.306172397	162.968511176	"20"	6274.623136251	6268.558528506	1.5	0.1
0.01	1	0.00200367099932919	1	5	164.414213625	NA	1	0	2.14	1	163.209263801001	163.211267472	"20"	6274.623136251	6268.558528506	1.5	0.1
0.01	1	0.197015388000182	1	5	164.414213625	NA	1	0	2.14	1	163.443019695001	163.640035083001	"20"	6274.623136251	6268.558528506	1.5	0.1
0.01	1	0.0907669749994966	1	5	164.414213625	NA	1	0	2.14	1	163.877164310001	163.967931285	"20"	6274.623136251	6268.558528506	1.5	0.1
0.01	1	0.10324607199982	1	5	164.414213625	NA	1	0	2.14	1	164.194285657	164.297531729	"20"	6274.623136251	6268.558528506	1.5	0.1
0.01	1	0.856096999000329	1	123	NA	169.155040355	0	0.05	2.19	1	166.448102719	167.304199718001	"21"	6274.623136251	6268.558528506	1.5	0.1
0.01	1	0.0187117400000716	1	123	NA	169.155040355	0	0.05	2.19	1	167.533315765	167.552027505	"21"	6274.623136251	6268.558528506	1.5	0.1
0.01	1	0.0415741730002992	1	123	NA	169.155040355	0	0.05	2.19	1	167.783732715	167.825306888	"21"	6274.623136251	6268.558528506	1.5	0.1
0.01	1	0.319155908000539	1	123	NA	169.155040355	0	0.05	2.19	1	168.05079302	168.369948928001	"21"	6274.623136251	6268.558528506	1.5	0.1
0.01	1	0.00213233999966178	1	123	NA	169.155040355	0	0.05	2.19	1	168.601728438	168.603860778	"21"	6274.623136251	6268.558528506	1.5	0.1
0.01	1	0.318141908000143	2	123	NA	169.155040355	0	0.05	2.19	1	168.835349960001	169.153491868001	"21"	6274.623136251	6268.558528506	1.5	0.1
0.01	1	0.545867795999584	1	81	NA	175.466713265	0	0.11	2.3	1	171.206129130001	171.751996926	"22"	6274.623136251	6268.558528506	1.5	0.1
0.01	1	0.130099652999888	1	81	NA	175.466713265	0	0.11	2.3	1	171.990643902001	172.120743555	"22"	6274.623136251	6268.558528506	1.5	0.1
0.01	1	0.115409067000655	1	81	NA	175.466713265	0	0.11	2.3	1	172.357992235	172.473401302001	"22"	6274.623136251	6268.558528506	1.5	0.1
0.01	1	0.0931410650000544	1	81	NA	175.466713265	0	0.11	2.3	1	172.708602755	172.80174382	"22"	6274.623136251	6268.558528506	1.5	0.1
0.01	1	0.102431511999384	1	81	NA	175.466713265	0	0.11	2.3	1	173.025936180001	173.128367692	"22"	6274.623136251	6268.558528506	1.5	0.1
0.01	1	0.137971674000255	1	81	NA	175.466713265	0	0.11	2.3	1	173.359765662	173.497737336001	"22"	6274.623136251	6268.558528506	1.5	0.1
0.01	1	0.113963935000356	1	81	NA	175.466713265	0	0.11	2.3	1	173.727000607	173.840964542001	"22"	6274.623136251	6268.558528506	1.5	0.1
0.01	1	0.0597577250000541	1	81	NA	175.466713265	0	0.11	2.3	1	174.077611895001	174.137369620001	"22"	6274.623136251	6268.558528506	1.5	0.1
0.01	1	0.0884688099995401	1	81	NA	175.466713265	0	0.11	2.3	1	174.361322035001	174.449790845	"22"	6274.623136251	6268.558528506	1.5	0.1
0.01	1	0.0670354969997788	1	81	NA	175.466713265	0	0.11	2.3	1	174.678593702	174.745629199	"22"	6274.623136251	6268.558528506	1.5	0.1
0.01	1	0.0781504070000665	1	81	NA	175.466713265	0	0.11	2.3	1	174.979128807	175.057279214	"22"	6274.623136251	6268.558528506	1.5	0.1
0.01	1	0.185488143999464	2	81	NA	175.466713265	0	0.11	2.3	1	175.279675350001	175.465163494	"22"	6274.623136251	6268.558528506	1.5	0.1
0.01	1	0.317766328000289	1	117	NA	192.730295218001	0	0.52	2.82	1	177.499963366	177.817729694	"23"	6274.623136251	6268.558528506	1.5	0.1
0.01	1	0.00262492399997427	1	117	NA	192.730295218001	0	0.52	2.82	1	178.050825344	178.053450268	"23"	6274.623136251	6268.558528506	1.5	0.1
0.01	1	0.00322085799962224	1	117	NA	192.730295218001	0	0.52	2.82	1	178.284564410001	178.287785268	"23"	6274.623136251	6268.558528506	1.5	0.1
0.01	1	0.00451781999981904	1	117	NA	192.730295218001	0	0.52	2.82	1	178.518415480001	178.522933300001	"23"	6274.623136251	6268.558528506	1.5	0.1
0.01	1	0.121749193000142	1	117	NA	192.730295218001	0	0.52	2.82	1	178.751977322	178.873726515	"23"	6274.623136251	6268.558528506	1.5	0.1
0.01	1	0.00401139999939915	1	117	NA	192.730295218001	0	0.52	2.82	1	179.102701862001	179.106713262	"23"	6274.623136251	6268.558528506	1.5	0.1
0.01	1	0.136241961999986	1	117	NA	192.730295218001	0	0.52	2.82	1	179.33643474	179.472676702	"23"	6274.623136251	6268.558528506	1.5	0.1
0.01	1	0.249528243999521	1	117	NA	192.730295218001	0	0.52	2.82	1	179.703817455001	179.953345699	"23"	6274.623136251	6268.558528506	1.5	0.1
0.01	1	0.0534494439998525	1	117	NA	192.730295218001	0	0.52	2.82	1	180.187805142001	180.241254586001	"23"	6274.623136251	6268.558528506	1.5	0.1
0.01	1	0.0964071429998512	1	117	NA	192.730295218001	0	0.52	2.82	1	180.471784872	180.568192015	"23"	6274.623136251	6268.558528506	1.5	0.1
0.01	1	0.0832616839998082	1	117	NA	192.730295218001	0	0.52	2.82	1	180.805578145	180.888839829	"23"	6274.623136251	6268.558528506	1.5	0.1
0.01	1	0.0538268450000032	1	117	NA	192.730295218001	0	0.52	2.82	1	181.122793085	181.17661993	"23"	6274.623136251	6268.558528506	1.5	0.1
0.01	1	0.0432814220002911	1	117	NA	192.730295218001	0	0.52	2.82	1	181.40666622	181.449947642001	"23"	6274.623136251	6268.558528506	1.5	0.1
0.01	1	0.0552913339997758	1	117	NA	192.730295218001	0	0.52	2.82	1	181.673604402001	181.728895736001	"23"	6274.623136251	6268.558528506	1.5	0.1
0.01	1	0.0281084150001334	1	117	NA	192.730295218001	0	0.52	2.82	1	181.957444985001	181.985553400001	"23"	6274.623136251	6268.558528506	1.5	0.1
0.01	1	0.0176060370004052	1	117	NA	192.730295218001	0	0.52	2.82	1	182.207906827	182.225512864001	"23"	6274.623136251	6268.558528506	1.5	0.1
0.01	1	0.00808524299918645	1	117	NA	192.730295218001	0	0.52	2.82	1	182.458444385001	182.466529628	"23"	6274.623136251	6268.558528506	1.5	0.1
0.01	1	0.0120025930000338	1	117	NA	192.730295218001	0	0.52	2.82	1	182.692038045	182.704040638	"23"	6274.623136251	6268.558528506	1.5	0.1
0.01	1	0.0120923269996638	1	117	NA	192.730295218001	0	0.52	2.82	1	182.94241879	182.954511117	"23"	6274.623136251	6268.558528506	1.5	0.1
0.01	1	0.0233520949996091	1	117	NA	192.730295218001	0	0.52	2.82	1	183.192955195001	183.21630729	"23"	6274.623136251	6268.558528506	1.5	0.1
0.01	1	0.00340197399964381	1	117	NA	192.730295218001	0	0.52	2.82	1	183.443321600001	183.446723574	"23"	6274.623136251	6268.558528506	1.5	0.1
0.01	1	0.0020016319995193	1	117	NA	192.730295218001	0	0.52	2.82	1	183.677089788001	183.67909142	"23"	6274.623136251	6268.558528506	1.5	0.1
0.01	1	0.00262963800014404	1	117	NA	192.730295218001	0	0.52	2.82	1	183.910853808	183.913483446	"23"	6274.623136251	6268.558528506	1.5	0.1
0.01	1	0.00260711400005675	1	117	NA	192.730295218001	0	0.52	2.82	1	184.144390722	184.146997836	"23"	6274.623136251	6268.558528506	1.5	0.1
0.01	1	0.00423948699972243	1	117	NA	192.730295218001	0	0.52	2.82	1	184.378309995001	184.382549482	"23"	6274.623136251	6268.558528506	1.5	0.1
0.01	1	0.00258217600003263	1	117	NA	192.730295218001	0	0.52	2.82	1	184.611993514	184.61457569	"23"	6274.623136251	6268.558528506	1.5	0.1
0.01	1	0.00374339500012866	1	117	NA	192.730295218001	0	0.52	2.82	1	184.845692927001	184.849436322001	"23"	6274.623136251	6268.558528506	1.5	0.1
0.01	1	0.112449703999118	1	117	NA	192.730295218001	0	0.52	2.82	1	185.079479950001	185.191929654	"23"	6274.623136251	6268.558528506	1.5	0.1
0.01	1	0.00278132200037362	1	117	NA	192.730295218001	0	0.52	2.82	1	185.42995633	185.432737652	"23"	6274.623136251	6268.558528506	1.5	0.1
0.01	1	0.00211719700018875	1	117	NA	192.730295218001	0	0.52	2.82	1	185.66368441	185.665801607001	"23"	6274.623136251	6268.558528506	1.5	0.1
0.01	1	0.0020422529996722	1	117	NA	192.730295218001	0	0.52	2.82	1	185.897507965001	185.899550218001	"23"	6274.623136251	6268.558528506	1.5	0.1
0.01	1	0.00217395799973019	1	117	NA	192.730295218001	0	0.52	2.82	1	186.131182701	186.133356659	"23"	6274.623136251	6268.558528506	1.5	0.1
0.01	1	0.00390651100042305	1	117	NA	192.730295218001	0	0.52	2.82	1	186.364936985	186.368843496	"23"	6274.623136251	6268.558528506	1.5	0.1
0.01	1	0.121169797999755	1	117	NA	192.730295218001	0	0.52	2.82	1	186.598726990001	186.719896788	"23"	6274.623136251	6268.558528506	1.5	0.1
0.01	1	0.00212845799978822	1	117	NA	192.730295218001	0	0.52	2.82	1	186.949117339001	186.951245797	"23"	6274.623136251	6268.558528506	1.5	0.1
0.01	1	0.130690695999874	1	117	NA	192.730295218001	0	0.52	2.82	1	187.18281574	187.313506436	"23"	6274.623136251	6268.558528506	1.5	0.1
0.01	1	0.00203514600070775	1	117	NA	192.730295218001	0	0.52	2.82	1	187.550271096	187.552306242001	"23"	6274.623136251	6268.558528506	1.5	0.1
0.01	1	0.0727942739995342	1	117	NA	192.730295218001	0	0.52	2.82	1	187.783875075001	187.856669349	"23"	6274.623136251	6268.558528506	1.5	0.1
0.01	1	0.00424764499985031	1	117	NA	192.730295218001	0	0.52	2.82	1	188.084522712001	188.088770357001	"23"	6274.623136251	6268.558528506	1.5	0.1
0.01	1	0.106265389999862	1	117	NA	192.730295218001	0	0.52	2.82	1	188.318110565	188.424375955	"23"	6274.623136251	6268.558528506	1.5	0.1
0.01	1	0.00395134500013228	1	117	NA	192.730295218001	0	0.52	2.82	1	188.652075125	188.65602647	"23"	6274.623136251	6268.558528506	1.5	0.1
0.01	1	0.0832447130005676	1	117	NA	192.730295218001	0	0.52	2.82	1	188.885743545	188.968988258001	"23"	6274.623136251	6268.558528506	1.5	0.1
0.01	1	0.00383908700041502	1	117	NA	192.730295218001	0	0.52	2.82	1	189.203101365	189.206940452001	"23"	6274.623136251	6268.558528506	1.5	0.1
0.01	1	0.0681733960000201	1	117	NA	192.730295218001	0	0.52	2.82	1	189.436732737	189.504906133	"23"	6274.623136251	6268.558528506	1.5	0.1
0.01	1	0.00399186000049667	1	117	NA	192.730295218001	0	0.52	2.82	1	189.73717525	189.741167110001	"23"	6274.623136251	6268.558528506	1.5	0.1
0.01	1	0.0788256030000412	1	117	NA	192.730295218001	0	0.52	2.82	1	189.971007805	190.049833408	"23"	6274.623136251	6268.558528506	1.5	0.1
0.01	1	0.105488501000764	1	117	NA	192.730295218001	0	0.52	2.82	1	190.288147235	190.393635736001	"23"	6274.623136251	6268.558528506	1.5	0.1
0.01	1	0.203325151999707	1	117	NA	192.730295218001	0	0.52	2.82	1	190.622071722	190.825396874	"23"	6274.623136251	6268.558528506	1.5	0.1
0.01	1	0.0411244159995476	1	117	NA	192.730295218001	0	0.52	2.82	1	191.056082472001	191.097206888	"23"	6274.623136251	6268.558528506	1.5	0.1
0.01	1	0.04500201799965	1	117	NA	192.730295218001	0	0.52	2.82	1	191.323277477	191.368279495	"23"	6274.623136251	6268.558528506	1.5	0.1
0.01	1	0.0341390539997519	1	117	NA	192.730295218001	0	0.52	2.82	1	191.590456700001	191.624595754	"23"	6274.623136251	6268.558528506	1.5	0.1
0.01	1	0.0401727789994766	1	117	NA	192.730295218001	0	0.52	2.82	1	191.857468722001	191.897641501	"23"	6274.623136251	6268.558528506	1.5	0.1
0.01	1	0.604108685000028	2	117	NA	192.730295218001	0	0.52	2.82	1	192.12464504	192.728753725	"23"	6274.623136251	6268.558528506	1.5	0.1
0.01	1	1.31795979900016	1	84	NA	199.898176379001	0	0.14	2.96	1	194.779133755001	196.097093554001	"24"	6274.623136251	6268.558528506	1.5	0.1
0.01	1	0.0137838950004152	1	84	NA	199.898176379001	0	0.14	2.96	1	196.33172877	196.345512665001	"24"	6274.623136251	6268.558528506	1.5	0.1
0.01	1	0.0110928220001369	1	84	NA	199.898176379001	0	0.14	2.96	1	196.58209159	196.593184412	"24"	6274.623136251	6268.558528506	1.5	0.1
0.01	1	0.0171968619997642	1	84	NA	199.898176379001	0	0.14	2.96	1	196.815886582001	196.833083444	"24"	6274.623136251	6268.558528506	1.5	0.1
0.01	1	0.0231163319995176	1	84	NA	199.898176379001	0	0.14	2.96	1	197.066264900001	197.089381232	"24"	6274.623136251	6268.558528506	1.5	0.1
0.01	1	0.0072434699995938	1	84	NA	199.898176379001	0	0.14	2.96	1	197.31665553	197.323899	"24"	6274.623136251	6268.558528506	1.5	0.1
0.01	1	0.0196197229997779	1	84	NA	199.898176379001	0	0.14	2.96	1	197.550366895	197.569986618	"24"	6274.623136251	6268.558528506	1.5	0.1
0.01	1	0.0158757560002414	1	84	NA	199.898176379001	0	0.14	2.96	1	197.80078406	197.816659816001	"24"	6274.623136251	6268.558528506	1.5	0.1
0.01	1	0.0034054660000038	1	84	NA	199.898176379001	0	0.14	2.96	1	198.051167506001	198.054572972001	"24"	6274.623136251	6268.558528506	1.5	0.1
0.01	1	0.0116642339999089	1	84	NA	199.898176379001	0	0.14	2.96	1	198.284923142	198.296587376	"24"	6274.623136251	6268.558528506	1.5	0.1
0.01	1	0.0496946459998071	1	84	NA	199.898176379001	0	0.14	2.96	1	198.518636180001	198.568330826	"24"	6274.623136251	6268.558528506	1.5	0.1
0.01	1	0.0702210059998833	1	84	NA	199.898176379001	0	0.14	2.96	1	198.802426540001	198.872647546001	"24"	6274.623136251	6268.558528506	1.5	0.1
0.01	1	0.0491383980006503	1	84	NA	199.898176379001	0	0.14	2.96	1	199.102981127	199.152119525001	"24"	6274.623136251	6268.558528506	1.5	0.1
0.01	1	0.070183203999477	1	84	NA	199.898176379001	0	0.14	2.96	1	199.386874340001	199.457057544	"24"	6274.623136251	6268.558528506	1.5	0.1
0.01	1	0.20932152900059	2	84	NA	199.898176379001	0	0.14	2.96	1	199.687295957	199.896617486001	"24"	6274.623136251	6268.558528506	1.5	0.1
0.01	1	1.0348966900001	1	22	NA	205.377825888	0	0.06	3.02	1	201.941172622001	202.976069312001	"25"	6274.623136251	6268.558528506	1.5	0.1
0.01	1	0.00458997700025066	1	22	NA	205.377825888	0	0.06	3.02	1	203.20992982	203.214519797	"25"	6274.623136251	6268.558528506	1.5	0.1
0.01	1	0.00236821399994369	1	22	NA	205.377825888	0	0.06	3.02	1	203.44365051	203.446018724	"25"	6274.623136251	6268.558528506	1.5	0.1
0.01	1	0.004426722000062	1	22	NA	205.377825888	0	0.06	3.02	1	203.677432045	203.681858767	"25"	6274.623136251	6268.558528506	1.5	0.1
0.01	1	0.00279419799971947	1	22	NA	205.377825888	0	0.06	3.02	1	203.910958258	203.913752456	"25"	6274.623136251	6268.558528506	1.5	0.1
0.01	1	0.0967607649999991	1	22	NA	205.377825888	0	0.06	3.02	1	204.144882022	204.241642787	"25"	6274.623136251	6268.558528506	1.5	0.1
0.01	1	0.897504635000587	2	22	NA	205.377825888	0	0.06	3.02	1	204.47877193	205.376276565001	"25"	6274.623136251	6268.558528506	1.5	0.1
0.01	1	1.43406232300003	1	36	NA	212.573421586	0	0.12	3.14	1	207.433759485	208.867821808	"26"	6274.623136251	6268.558528506	1.5	0.1
0.01	1	0.00373283299995819	1	36	NA	212.573421586	0	0.12	3.14	1	209.103192205001	209.106925038001	"26"	6274.623136251	6268.558528506	1.5	0.1
0.01	1	0.138278647999869	1	36	NA	212.573421586	0	0.12	3.14	1	209.336864722	209.47514337	"26"	6274.623136251	6268.558528506	1.5	0.1
0.01	1	0.00469442700068612	1	36	NA	212.573421586	0	0.12	3.14	1	209.70412846	209.708822887001	"26"	6274.623136251	6268.558528506	1.5	0.1
0.01	1	0.0903556319999552	1	36	NA	212.573421586	0	0.12	3.14	1	209.937834625001	210.028190257	"26"	6274.623136251	6268.558528506	1.5	0.1
0.01	1	0.00387622700054635	1	36	NA	212.573421586	0	0.12	3.14	1	210.255142465	210.259018692001	"26"	6274.623136251	6268.558528506	1.5	0.1
0.01	1	0.0826120179999634	1	36	NA	212.573421586	0	0.12	3.14	1	210.488835450001	210.571447468001	"26"	6274.623136251	6268.558528506	1.5	0.1
0.01	1	0.00406066100003954	1	36	NA	212.573421586	0	0.12	3.14	1	210.805961115	210.810021776	"26"	6274.623136251	6268.558528506	1.5	0.1
0.01	1	0.0590121909999652	1	36	NA	212.573421586	0	0.12	3.14	1	211.039772057001	211.098784248001	"26"	6274.623136251	6268.558528506	1.5	0.1
0.01	1	0.0038520600000993	1	36	NA	212.573421586	0	0.12	3.14	1	211.323569030001	211.327421090001	"26"	6274.623136251	6268.558528506	1.5	0.1
0.01	1	0.0373836400003711	1	36	NA	212.573421586	0	0.12	3.14	1	211.557148072	211.594531712	"26"	6274.623136251	6268.558528506	1.5	0.1
0.01	1	0.0838210920001075	1	36	NA	212.573421586	0	0.12	3.14	1	211.82441541	211.908236502	"26"	6274.623136251	6268.558528506	1.5	0.1
0.01	1	0.430290119000347	2	36	NA	212.573421586	0	0.12	3.14	1	212.14157608	212.571866199	"26"	6274.623136251	6268.558528506	1.5	0.1
0.01	1	0.759158158999526	1	124	NA	222.677034214001	0	0.23	3.37	1	214.629141955001	215.388300114	"27"	6274.623136251	6268.558528506	1.5	0.1
0.01	1	0.101812577000601	1	124	NA	222.677034214001	0	0.23	3.37	1	215.614031887	215.715844464001	"27"	6274.623136251	6268.558528506	1.5	0.1
0.01	1	0.0641679820000718	1	124	NA	222.677034214001	0	0.23	3.37	1	215.947982775	216.012150757	"27"	6274.623136251	6268.558528506	1.5	0.1
0.01	1	0.0739846540000144	1	124	NA	222.677034214001	0	0.23	3.37	1	216.248553917	216.322538571	"27"	6274.623136251	6268.558528506	1.5	0.1
0.01	1	0.0792537919996903	1	124	NA	222.677034214001	0	0.23	3.37	1	216.54895422	216.628208012	"27"	6274.623136251	6268.558528506	1.5	0.1
0.01	1	0.00205431900030817	1	124	NA	222.677034214001	0	0.23	3.37	1	216.866275289	216.868329608001	"27"	6274.623136251	6268.558528506	1.5	0.1
0.01	1	0.11207050900066	1	124	NA	222.677034214001	0	0.23	3.37	1	217.099864715	217.211935224001	"27"	6274.623136251	6268.558528506	1.5	0.1
0.01	1	0.00372288800008391	1	124	NA	222.677034214001	0	0.23	3.37	1	217.450598422	217.454321310001	"27"	6274.623136251	6268.558528506	1.5	0.1
0.01	1	0.0544509640003525	1	124	NA	222.677034214001	0	0.23	3.37	1	217.684319525	217.738770489001	"27"	6274.623136251	6268.558528506	1.5	0.1
0.01	1	0.00457585999993171	1	124	NA	222.677034214001	0	0.23	3.37	1	217.968119255001	217.972695115001	"27"	6274.623136251	6268.558528506	1.5	0.1
0.01	1	0.0575830120005776	1	124	NA	222.677034214001	0	0.23	3.37	1	218.201819363	218.259402375001	"27"	6274.623136251	6268.558528506	1.5	0.1
0.01	1	0.0043572229997153	1	124	NA	222.677034214001	0	0.23	3.37	1	218.485506399001	218.489863622	"27"	6274.623136251	6268.558528506	1.5	0.1
0.01	1	0.0436128579995056	1	124	NA	222.677034214001	0	0.23	3.37	1	218.719311147001	218.762924005	"27"	6274.623136251	6268.558528506	1.5	0.1
0.01	1	0.0642316460007351	1	124	NA	222.677034214001	0	0.23	3.37	1	219.00312459	219.067356236001	"27"	6274.623136251	6268.558528506	1.5	0.1
0.01	1	0.0754338810002082	1	124	NA	222.677034214001	0	0.23	3.37	1	219.30361669	219.379050571	"27"	6274.623136251	6268.558528506	1.5	0.1
0.01	1	0.00458374499976344	1	124	NA	222.677034214001	0	0.23	3.37	1	219.604246170001	219.608829915001	"27"	6274.623136251	6268.558528506	1.5	0.1
0.01	1	0.0624683019996155	1	124	NA	222.677034214001	0	0.23	3.37	1	219.837794142	219.900262444	"27"	6274.623136251	6268.558528506	1.5	0.1
0.01	1	0.138871537999876	1	124	NA	222.677034214001	0	0.23	3.37	1	220.12160886	220.260480398	"27"	6274.623136251	6268.558528506	1.5	0.1
0.01	1	0.114216488000238	1	124	NA	222.677034214001	0	0.23	3.37	1	220.488993762	220.60321025	"27"	6274.623136251	6268.558528506	1.5	0.1
0.01	1	0.116589788000056	1	124	NA	222.677034214001	0	0.23	3.37	1	220.83948792	220.956077708001	"27"	6274.623136251	6268.558528506	1.5	0.1
0.01	1	0.0852086740005689	1	124	NA	222.677034214001	0	0.23	3.37	1	221.19014857	221.275357244001	"27"	6274.623136251	6268.558528506	1.5	0.1
0.01	1	0.119365323999773	1	124	NA	222.677034214001	0	0.23	3.37	1	221.507289159001	221.626654483	"27"	6274.623136251	6268.558528506	1.5	0.1
0.01	1	0.0969306599999982	1	124	NA	222.677034214001	0	0.23	3.37	1	221.857936745	221.954867405	"27"	6274.623136251	6268.558528506	1.5	0.1
0.01	1	0.48375704099999	2	124	NA	222.677034214001	0	0.23	3.37	1	222.191709082001	222.675466123001	"27"	6274.623136251	6268.558528506	1.5	0.1
0.01	1	0.370542976999786	1	13	228.70577297	NA	1	0	3.37	1	224.712745612001	225.083288589	"28"	6274.623136251	6268.558528506	1.5	0.1
0.01	1	0.137353547999737	1	13	228.70577297	NA	1	0	3.37	1	225.313756977001	225.451110525	"28"	6274.623136251	6268.558528506	1.5	0.1
0.01	1	0.0827189739993628	1	13	228.70577297	NA	1	0	3.37	1	225.681000195001	225.763719169	"28"	6274.623136251	6268.558528506	1.5	0.1
0.01	1	0.00466707200030214	1	13	228.70577297	NA	1	0	3.37	1	225.998210705	226.002877777	"28"	6274.623136251	6268.558528506	1.5	0.1
0.01	1	0.0436103969996111	1	13	228.70577297	NA	1	0	3.37	1	226.231910275001	226.275520672	"28"	6274.623136251	6268.558528506	1.5	0.1
0.01	1	0.0722263550005664	1	13	228.70577297	NA	1	0	3.37	1	226.49914911	226.571375465001	"28"	6274.623136251	6268.558528506	1.5	0.1
0.01	1	0.00387614999999641	1	13	228.70577297	NA	1	0	3.37	1	226.79960215	226.8034783	"28"	6274.623136251	6268.558528506	1.5	0.1
0.01	1	0.0901771779999763	1	13	228.70577297	NA	1	0	3.37	1	227.033273640001	227.123450818	"28"	6274.623136251	6268.558528506	1.5	0.1
0.01	1	0.00400930700016033	1	13	228.70577297	NA	1	0	3.37	1	227.350485097	227.354494404	"28"	6274.623136251	6268.558528506	1.5	0.1
0.01	1	0.060151673999826	1	13	228.70577297	NA	1	0	3.37	1	227.584294295	227.644445969	"28"	6274.623136251	6268.558528506	1.5	0.1
0.01	1	0.103184590000637	1	13	228.70577297	NA	1	0	3.37	1	227.86800304	227.971187630001	"28"	6274.623136251	6268.558528506	1.5	0.1
0.01	1	0.0986042979993726	1	13	228.70577297	NA	1	0	3.37	1	228.201801687001	228.300405985	"28"	6274.623136251	6268.558528506	1.5	0.1
0.01	1	0.0518360510004641	1	13	228.70577297	NA	1	0	3.37	1	228.53582702	228.587663071001	"28"	6274.623136251	6268.558528506	1.5	0.1
0.01	1	0.344462237000698	1	125	NA	233.877880345	0	0.1	3.47	1	230.739612067	231.084074304001	"29"	6274.623136251	6268.558528506	1.5	0.1
0.01	1	0.0398945890001414	1	125	NA	233.877880345	0	0.1	3.47	1	231.323836317	231.363730906	"29"	6274.623136251	6268.558528506	1.5	0.1
0.01	1	0.0116037220004728	1	125	NA	233.877880345	0	0.1	3.47	1	231.591017525	231.602621247001	"29"	6274.623136251	6268.558528506	1.5	0.1
0.01	1	0.0356201769991458	1	125	NA	233.877880345	0	0.1	3.47	1	231.824685052001	231.860305229	"29"	6274.623136251	6268.558528506	1.5	0.1
0.01	1	0.0323737010003242	1	125	NA	233.877880345	0	0.1	3.47	1	232.091877335	232.124251036001	"29"	6274.623136251	6268.558528506	1.5	0.1
0.01	1	0.0198471909998261	1	125	NA	233.877880345	0	0.1	3.47	1	232.358923655001	232.378770846	"29"	6274.623136251	6268.558528506	1.5	0.1
0.01	1	0.0579110400003628	1	125	NA	233.877880345	0	0.1	3.47	1	232.60936767	232.667278710001	"29"	6274.623136251	6268.558528506	1.5	0.1
0.01	1	0.046333474999301	1	125	NA	233.877880345	0	0.1	3.47	1	232.893161360001	232.939494835	"29"	6274.623136251	6268.558528506	1.5	0.1
0.01	1	0.00417679000020144	1	125	NA	233.877880345	0	0.1	3.47	1	233.176942242	233.181119032	"29"	6274.623136251	6268.558528506	1.5	0.1
0.01	1	0.0646715719994972	1	125	NA	233.877880345	0	0.1	3.47	1	233.410737390001	233.475408962	"29"	6274.623136251	6268.558528506	1.5	0.1
0.01	1	0.16512569599945	2	125	NA	233.877880345	0	0.1	3.47	1	233.711207423001	233.876333119	"29"	6274.623136251	6268.558528506	1.5	0.1
0.01	1	0.00387096200029191	1	105	NA	238.820428398	0	0.09	3.56	1	235.93168126	235.935552222	"30"	6274.623136251	6268.558528506	1.5	0.1
0.01	1	0.110982745000001	1	105	NA	238.820428398	0	0.09	3.56	1	236.16538537	236.276368115	"30"	6274.623136251	6268.558528506	1.5	0.1
0.01	1	0.00263109500065184	1	105	NA	238.820428398	0	0.09	3.56	1	236.4992493	236.501880395001	"30"	6274.623136251	6268.558528506	1.5	0.1
0.01	1	0.00380357500034734	1	105	NA	238.820428398	0	0.09	3.56	1	236.732984835	236.73678841	"30"	6274.623136251	6268.558528506	1.5	0.1
0.01	1	0.116205971999989	1	105	NA	238.820428398	0	0.09	3.56	1	236.966633720001	237.082839692001	"30"	6274.623136251	6268.558528506	1.5	0.1
0.01	1	0.00197939000008773	1	105	NA	238.820428398	0	0.09	3.56	1	237.3172173	237.31919669	"30"	6274.623136251	6268.558528506	1.5	0.1
0.01	1	0.100908442999753	1	105	NA	238.820428398	0	0.09	3.56	1	237.550947622	237.651856065	"30"	6274.623136251	6268.558528506	1.5	0.1
0.01	1	0.0038663949999318	1	105	NA	238.820428398	0	0.09	3.56	1	237.884863515001	237.888729910001	"30"	6274.623136251	6268.558528506	1.5	0.1
0.01	1	0.0610098039996956	1	105	NA	238.820428398	0	0.09	3.56	1	238.118614822	238.179624626	"30"	6274.623136251	6268.558528506	1.5	0.1
0.01	1	0.416513963999932	2	105	NA	238.820428398	0	0.09	3.56	1	238.40232723	238.818841194	"30"	6274.623136251	6268.558528506	1.5	0.1
