"payoff.level"	"balloon"	"rt"	"resp"	"explode.trial"	"explode.time"	"finish.time"	"exploded"	"trial.total"	"cumulative.total"	"finished"	"trial.start"	"trial.end"	"trial.num"	"secs"	"start.time"	"iti"	"isi"
0.01	1	4.86072236800101	1	64	NA	34.9448702509981	0	0.3	0.3	1	0.0249761309969472	4.88569849899795	"1"	44521.757273358	44456.377149932	1.5	0.1
0.01	1	1.24204175900377	1	64	NA	34.9448702509981	0	0.3	0.3	1	5.26713234699855	6.50917410600232	"1"	44521.757273358	44456.377149932	1.5	0.1
0.01	1	1.66700907900668	1	64	NA	34.9448702509981	0	0.3	0.3	1	6.80312749099539	8.47013657000207	"1"	44521.757273358	44456.377149932	1.5	0.1
0.01	1	1.29917560699687	1	64	NA	34.9448702509981	0	0.3	0.3	1	8.70630876599898	10.0054843729959	"1"	44521.757273358	44456.377149932	1.5	0.1
0.01	1	1.47491058400192	1	64	NA	34.9448702509981	0	0.3	0.3	1	10.2422017759964	11.7171123599983	"1"	44521.757273358	44456.377149932	1.5	0.1
0.01	1	1.85184517099697	1	64	NA	34.9448702509981	0	0.3	0.3	1	11.9453069110023	13.7971520819992	"1"	44521.757273358	44456.377149932	1.5	0.1
0.01	1	1.58207828000013	1	64	NA	34.9448702509981	0	0.3	0.3	1	14.0319583660021	15.6140366460022	"1"	44521.757273358	44456.377149932	1.5	0.1
0.01	1	1.40188478599885	1	64	NA	34.9448702509981	0	0.3	0.3	1	15.851757548	17.2536423339989	"1"	44521.757273358	44456.377149932	1.5	0.1
0.01	1	1.45395389400073	1	64	NA	34.9448702509981	0	0.3	0.3	1	17.4879611259967	18.9419150199974	"1"	44521.757273358	44456.377149932	1.5	0.1
0.01	1	1.43955362599809	1	64	NA	34.9448702509981	0	0.3	0.3	1	19.1739750359993	20.6135286619974	"1"	44521.757273358	44456.377149932	1.5	0.1
0.01	1	1.08213196200086	1	64	NA	34.9448702509981	0	0.3	0.3	1	20.8434654609955	21.9255974229964	"1"	44521.757273358	44456.377149932	1.5	0.1
0.01	1	0.420493819001422	1	64	NA	34.9448702509981	0	0.3	0.3	1	22.1622580580006	22.582751877002	"1"	44521.757273358	44456.377149932	1.5	0.1
0.01	1	0.26573962099792	1	64	NA	34.9448702509981	0	0.3	0.3	1	22.8134139309986	23.0791535519966	"1"	44521.757273358	44456.377149932	1.5	0.1
0.01	1	0.339405236998573	1	64	NA	34.9448702509981	0	0.3	0.3	1	23.3141800910016	23.6535853280002	"1"	44521.757273358	44456.377149932	1.5	0.1
0.01	1	0.365188083000248	1	64	NA	34.9448702509981	0	0.3	0.3	1	23.8818788979988	24.2470669809991	"1"	44521.757273358	44456.377149932	1.5	0.1
0.01	1	0.266596674999164	1	64	NA	34.9448702509981	0	0.3	0.3	1	24.4828951759991	24.7494918509983	"1"	44521.757273358	44456.377149932	1.5	0.1
0.01	1	0.295278603996849	1	64	NA	34.9448702509981	0	0.3	0.3	1	24.9836860159994	25.2789646199963	"1"	44521.757273358	44456.377149932	1.5	0.1
0.01	1	0.320426225996925	1	64	NA	34.9448702509981	0	0.3	0.3	1	25.5012836509995	25.8217098769965	"1"	44521.757273358	44456.377149932	1.5	0.1
0.01	1	0.36259760500252	1	64	NA	34.9448702509981	0	0.3	0.3	1	26.0521143259975	26.4147119310001	"1"	44521.757273358	44456.377149932	1.5	0.1
0.01	1	0.336799430006067	1	64	NA	34.9448702509981	0	0.3	0.3	1	26.6365575609962	26.9733569910022	"1"	44521.757273358	44456.377149932	1.5	0.1
0.01	1	0.30507358199975	1	64	NA	34.9448702509981	0	0.3	0.3	1	27.2040757459981	27.5091493279979	"1"	44521.757273358	44456.377149932	1.5	0.1
0.01	1	0.243168960994808	1	64	NA	34.9448702509981	0	0.3	0.3	1	27.738432254002	27.9816012149968	"1"	44521.757273358	44456.377149932	1.5	0.1
0.01	1	0.31218876800267	1	64	NA	34.9448702509981	0	0.3	0.3	1	28.2225111709995	28.5346999390022	"1"	44521.757273358	44456.377149932	1.5	0.1
0.01	1	0.761615028000961	1	64	NA	34.9448702509981	0	0.3	0.3	1	28.7566566259993	29.5182716540003	"1"	44521.757273358	44456.377149932	1.5	0.1
0.01	1	0.424806253999122	1	64	NA	34.9448702509981	0	0.3	0.3	1	29.7416640110023	30.1664702650014	"1"	44521.757273358	44456.377149932	1.5	0.1
0.01	1	0.324604043002182	1	64	NA	34.9448702509981	0	0.3	0.3	1	30.3926964109996	30.7173004540018	"1"	44521.757273358	44456.377149932	1.5	0.1
0.01	1	0.222228095000901	1	64	NA	34.9448702509981	0	0.3	0.3	1	30.943696960996	31.1659250559969	"1"	44521.757273358	44456.377149932	1.5	0.1
0.01	1	0.315856247005286	1	64	NA	34.9448702509981	0	0.3	0.3	1	31.3945566979964	31.7104129450017	"1"	44521.757273358	44456.377149932	1.5	0.1
0.01	1	1.41304689300159	1	64	NA	34.9448702509981	0	0.3	0.3	1	31.9454276379984	33.358474531	"1"	44521.757273358	44456.377149932	1.5	0.1
0.01	1	0.176091734996589	1	64	NA	34.9448702509981	0	0.3	0.3	1	33.5814738330009	33.7575655679975	"1"	44521.757273358	44456.377149932	1.5	0.1
0.01	1	0.961012217994721	2	64	NA	34.9448702509981	0	0.3	0.3	1	33.9821542860009	34.9431665039956	"1"	44521.757273358	44456.377149932	1.5	0.1
0.01	1	1.9463284270023	1	102	NA	55.9526811390024	0	0.4	0.7	1	37.0038636559984	38.9501920830007	"2"	44521.757273358	44456.377149932	1.5	0.1
0.01	1	0.00400314899889054	1	102	NA	55.9526811390024	0	0.4	0.7	1	39.1909751179992	39.1949782669981	"2"	44521.757273358	44456.377149932	1.5	0.1
0.01	1	0.00433548799628625	1	102	NA	55.9526811390024	0	0.4	0.7	1	39.4247260699995	39.4290615579957	"2"	44521.757273358	44456.377149932	1.5	0.1
0.01	1	0.00334316399676027	1	102	NA	55.9526811390024	0	0.4	0.7	1	39.6582796290022	39.661622792999	"2"	44521.757273358	44456.377149932	1.5	0.1
0.01	1	0.00216009699943243	1	102	NA	55.9526811390024	0	0.4	0.7	1	39.8920366559978	39.8941967529972	"2"	44521.757273358	44456.377149932	1.5	0.1
0.01	1	0.00328501599869924	1	102	NA	55.9526811390024	0	0.4	0.7	1	40.1258636909988	40.1291487069975	"2"	44521.757273358	44456.377149932	1.5	0.1
0.01	1	0.00400966600136599	1	102	NA	55.9526811390024	0	0.4	0.7	1	40.3595904429967	40.3636001089981	"2"	44521.757273358	44456.377149932	1.5	0.1
0.01	1	0.00395025999750942	1	102	NA	55.9526811390024	0	0.4	0.7	1	40.5933590229979	40.5973092829954	"2"	44521.757273358	44456.377149932	1.5	0.1
0.01	1	0.00375199200061616	1	102	NA	55.9526811390024	0	0.4	0.7	1	40.8269952529954	40.830747244996	"2"	44521.757273358	44456.377149932	1.5	0.1
0.01	1	0.00337969399697613	1	102	NA	55.9526811390024	0	0.4	0.7	1	41.0607675889987	41.0641472829957	"2"	44521.757273358	44456.377149932	1.5	0.1
0.01	1	0.711936476996925	1	102	NA	55.9526811390024	0	0.4	0.7	1	41.2945432109991	42.006479687996	"2"	44521.757273358	44456.377149932	1.5	0.1
0.01	1	0.00458511200122302	1	102	NA	55.9526811390024	0	0.4	0.7	1	42.2460951609974	42.2506802729986	"2"	44521.757273358	44456.377149932	1.5	0.1
0.01	1	0.00395618100446882	1	102	NA	55.9526811390024	0	0.4	0.7	1	42.4798322759962	42.4837884570006	"2"	44521.757273358	44456.377149932	1.5	0.1
0.01	1	0.00233028599905083	1	102	NA	55.9526811390024	0	0.4	0.7	1	42.713471846997	42.715802132996	"2"	44521.757273358	44456.377149932	1.5	0.1
0.01	1	0.0030930279972381	1	102	NA	55.9526811390024	0	0.4	0.7	1	42.9472952389988	42.950388266996	"2"	44521.757273358	44456.377149932	1.5	0.1
0.01	1	0.00350740299472818	1	102	NA	55.9526811390024	0	0.4	0.7	1	43.1808878980009	43.1843953009957	"2"	44521.757273358	44456.377149932	1.5	0.1
0.01	1	0.51041318600619	1	102	NA	55.9526811390024	0	0.4	0.7	1	43.4147557979959	43.9251689840021	"2"	44521.757273358	44456.377149932	1.5	0.1
0.01	1	0.00390472299477551	1	102	NA	55.9526811390024	0	0.4	0.7	1	44.1492893780014	44.1531941009962	"2"	44521.757273358	44456.377149932	1.5	0.1
0.01	1	0.00395098300214158	1	102	NA	55.9526811390024	0	0.4	0.7	1	44.3829795779966	44.3869305609987	"2"	44521.757273358	44456.377149932	1.5	0.1
0.01	1	0.00464972500049043	1	102	NA	55.9526811390024	0	0.4	0.7	1	44.6167419010017	44.6213916260022	"2"	44521.757273358	44456.377149932	1.5	0.1
0.01	1	0.00372928100114223	1	102	NA	55.9526811390024	0	0.4	0.7	1	44.8504231859988	44.8541524669999	"2"	44521.757273358	44456.377149932	1.5	0.1
0.01	1	0.00389654700120445	1	102	NA	55.9526811390024	0	0.4	0.7	1	45.084225325998	45.0881218729992	"2"	44521.757273358	44456.377149932	1.5	0.1
0.01	1	1.06469581300189	1	102	NA	55.9526811390024	0	0.4	0.7	1	45.3179752659998	46.3826710790017	"2"	44521.757273358	44456.377149932	1.5	0.1
0.01	1	0.424986926998827	1	102	NA	55.9526811390024	0	0.4	0.7	1	46.6202434360021	47.0452303630009	"2"	44521.757273358	44456.377149932	1.5	0.1
0.01	1	0.358088189001137	1	102	NA	55.9526811390024	0	0.4	0.7	1	47.2713128859978	47.6294010749989	"2"	44521.757273358	44456.377149932	1.5	0.1
0.01	1	0.407117107999511	1	102	NA	55.9526811390024	0	0.4	0.7	1	47.8555018609986	48.2626189689981	"2"	44521.757273358	44456.377149932	1.5	0.1
0.01	1	0.900432583999645	1	102	NA	55.9526811390024	0	0.4	0.7	1	48.4899471929966	49.3903797769963	"2"	44521.757273358	44456.377149932	1.5	0.1
0.01	1	0.981642578997707	1	102	NA	55.9526811390024	0	0.4	0.7	1	49.625159285999	50.6068018649967	"2"	44521.757273358	44456.377149932	1.5	0.1
0.01	1	0.386961074000283	1	102	NA	55.9526811390024	0	0.4	0.7	1	50.8439487610012	51.2309098350015	"2"	44521.757273358	44456.377149932	1.5	0.1
0.01	1	0.281190007000987	1	102	NA	55.9526811390024	0	0.4	0.7	1	51.4614958940001	51.7426859010011	"2"	44521.757273358	44456.377149932	1.5	0.1
0.01	1	0.171347587005585	1	102	NA	55.9526811390024	0	0.4	0.7	1	51.9790851309954	52.150432718001	"2"	44521.757273358	44456.377149932	1.5	0.1
0.01	1	0.153518865998194	1	102	NA	55.9526811390024	0	0.4	0.7	1	52.3799461910021	52.5334650570003	"2"	44521.757273358	44456.377149932	1.5	0.1
0.01	1	0.162959330002195	1	102	NA	55.9526811390024	0	0.4	0.7	1	52.7637389759984	52.9266983060006	"2"	44521.757273358	44456.377149932	1.5	0.1
0.01	1	0.184635591998813	1	102	NA	55.9526811390024	0	0.4	0.7	1	53.1644442079996	53.3490797999984	"2"	44521.757273358	44456.377149932	1.5	0.1
0.01	1	0.160854955000104	1	102	NA	55.9526811390024	0	0.4	0.7	1	53.5819255710012	53.7427805260013	"2"	44521.757273358	44456.377149932	1.5	0.1
0.01	1	0.0968883660025313	1	102	NA	55.9526811390024	0	0.4	0.7	1	53.9657832509984	54.0626716170009	"2"	44521.757273358	44456.377149932	1.5	0.1
0.01	1	0.0741339410014916	1	102	NA	55.9526811390024	0	0.4	0.7	1	54.2996112010005	54.373745142002	"2"	44521.757273358	44456.377149932	1.5	0.1
0.01	1	0.0937036670002271	1	102	NA	55.9526811390024	0	0.4	0.7	1	54.600183372997	54.6938870399972	"2"	44521.757273358	44456.377149932	1.5	0.1
0.01	1	0.0321097249980085	1	102	NA	55.9526811390024	0	0.4	0.7	1	54.9173708079979	54.9494805329959	"2"	44521.757273358	44456.377149932	1.5	0.1
0.01	1	0.00345067099988228	1	102	NA	55.9526811390024	0	0.4	0.7	1	55.1845018879976	55.1879525589975	"2"	44521.757273358	44456.377149932	1.5	0.1
0.01	1	0.532771454003523	2	102	NA	55.9526811390024	0	0.4	0.7	1	55.4182442109959	55.9510156649994	"2"	44521.757273358	44456.377149932	1.5	0.1
0.01	1	1.52095170899702	1	97	NA	79.983375744996	0	0.66	1.36	1	58.0058493760007	59.5268010849977	"3"	44521.757273358	44456.377149932	1.5	0.1
0.01	1	0.00495481899997685	1	97	NA	79.983375744996	0	0.66	1.36	1	59.7587972659967	59.7637520849967	"3"	44521.757273358	44456.377149932	1.5	0.1
0.01	1	0.00400567000178853	1	97	NA	79.983375744996	0	0.66	1.36	1	59.9926087509957	59.9966144209975	"3"	44521.757273358	44456.377149932	1.5	0.1
0.01	1	0.00389300400274806	1	97	NA	79.983375744996	0	0.66	1.36	1	60.2263724009972	60.230265405	"3"	44521.757273358	44456.377149932	1.5	0.1
0.01	1	0.00461987999733537	1	97	NA	79.983375744996	0	0.66	1.36	1	60.460102281002	60.4647221609994	"3"	44521.757273358	44456.377149932	1.5	0.1
0.01	1	0.00382151300436817	1	97	NA	79.983375744996	0	0.66	1.36	1	60.6938017259963	60.6976232390007	"3"	44521.757273358	44456.377149932	1.5	0.1
0.01	1	0.00437704700016184	1	97	NA	79.983375744996	0	0.66	1.36	1	60.9275183889986	60.9318954359987	"3"	44521.757273358	44456.377149932	1.5	0.1
0.01	1	0.00464137000381015	1	97	NA	79.983375744996	0	0.66	1.36	1	61.1613109659957	61.1659523359995	"3"	44521.757273358	44456.377149932	1.5	0.1
0.01	1	0.0033911700011231	1	97	NA	79.983375744996	0	0.66	1.36	1	61.3950051270003	61.3983962970015	"3"	44521.757273358	44456.377149932	1.5	0.1
0.01	1	0.00373086100444198	1	97	NA	79.983375744996	0	0.66	1.36	1	61.6286674059957	61.6323982670001	"3"	44521.757273358	44456.377149932	1.5	0.1
0.01	1	0.00459355000202777	1	97	NA	79.983375744996	0	0.66	1.36	1	61.862426710999	61.867020261001	"3"	44521.757273358	44456.377149932	1.5	0.1
0.01	1	0.00445683399448171	1	97	NA	79.983375744996	0	0.66	1.36	1	62.0962189790007	62.1006758129952	"3"	44521.757273358	44456.377149932	1.5	0.1
0.01	1	0.00390092999441549	1	97	NA	79.983375744996	0	0.66	1.36	1	62.3298363310023	62.3337372609967	"3"	44521.757273358	44456.377149932	1.5	0.1
0.01	1	0.00335648600594141	1	97	NA	79.983375744996	0	0.66	1.36	1	62.5636465189964	62.5670030050023	"3"	44521.757273358	44456.377149932	1.5	0.1
0.01	1	0.00336696200247388	1	97	NA	79.983375744996	0	0.66	1.36	1	62.7972913109988	62.8006582730013	"3"	44521.757273358	44456.377149932	1.5	0.1
0.01	1	0.00448669800243806	1	97	NA	79.983375744996	0	0.66	1.36	1	63.0309475699978	63.0354342680002	"3"	44521.757273358	44456.377149932	1.5	0.1
0.01	1	0.0020774779986823	1	97	NA	79.983375744996	0	0.66	1.36	1	63.264611863	63.2666893409987	"3"	44521.757273358	44456.377149932	1.5	0.1
0.01	1	0.0038558739979635	1	97	NA	79.983375744996	0	0.66	1.36	1	63.4985276910011	63.502383564999	"3"	44521.757273358	44456.377149932	1.5	0.1
0.01	1	0.00390189400059171	1	97	NA	79.983375744996	0	0.66	1.36	1	63.7321914229979	63.7360933169984	"3"	44521.757273358	44456.377149932	1.5	0.1
0.01	1	0.00454215000354452	1	97	NA	79.983375744996	0	0.66	1.36	1	63.9660455959965	63.9705877460001	"3"	44521.757273358	44456.377149932	1.5	0.1
0.01	1	0.00394059599784669	1	97	NA	79.983375744996	0	0.66	1.36	1	64.1997181010011	64.2036586969989	"3"	44521.757273358	44456.377149932	1.5	0.1
0.01	1	0.509707970995805	1	97	NA	79.983375744996	0	0.66	1.36	1	64.4333717080008	64.9430796789966	"3"	44521.757273358	44456.377149932	1.5	0.1
0.01	1	0.00385023499984527	1	97	NA	79.983375744996	0	0.66	1.36	1	65.1679149560005	65.1717651910003	"3"	44521.757273358	44456.377149932	1.5	0.1
0.01	1	0.00456963799661025	1	97	NA	79.983375744996	0	0.66	1.36	1	65.4017186380006	65.4062882759972	"3"	44521.757273358	44456.377149932	1.5	0.1
0.01	1	0.00331503999768756	1	97	NA	79.983375744996	0	0.66	1.36	1	65.6353584550016	65.6386734949992	"3"	44521.757273358	44456.377149932	1.5	0.1
0.01	1	0.00364425500447396	1	97	NA	79.983375744996	0	0.66	1.36	1	65.8691814459962	65.8728257010007	"3"	44521.757273358	44456.377149932	1.5	0.1
0.01	1	0.00395942800241755	1	97	NA	79.983375744996	0	0.66	1.36	1	66.1028902109974	66.1068496389998	"3"	44521.757273358	44456.377149932	1.5	0.1
0.01	1	0.00390044300002046	1	97	NA	79.983375744996	0	0.66	1.36	1	66.3366747479959	66.3405751909959	"3"	44521.757273358	44456.377149932	1.5	0.1
0.01	1	0.00335624600120354	1	97	NA	79.983375744996	0	0.66	1.36	1	66.5702999549976	66.5736562009988	"3"	44521.757273358	44456.377149932	1.5	0.1
0.01	1	0.00209264000295661	1	97	NA	79.983375744996	0	0.66	1.36	1	66.8039125489959	66.8060051889988	"3"	44521.757273358	44456.377149932	1.5	0.1
0.01	1	0.00402633900375804	1	97	NA	79.983375744996	0	0.66	1.36	1	67.0377304779977	67.0417568170014	"3"	44521.757273358	44456.377149932	1.5	0.1
0.01	1	0.00381717200070852	1	97	NA	79.983375744996	0	0.66	1.36	1	67.2714054809985	67.2752226529992	"3"	44521.757273358	44456.377149932	1.5	0.1
0.01	1	0.00369880799553357	1	97	NA	79.983375744996	0	0.66	1.36	1	67.505223731001	67.5089225389966	"3"	44521.757273358	44456.377149932	1.5	0.1
0.01	1	0.00396738500421634	1	97	NA	79.983375744996	0	0.66	1.36	1	67.7388780359979	67.7428454210021	"3"	44521.757273358	44456.377149932	1.5	0.1
0.01	1	0.00462622200575424	1	97	NA	79.983375744996	0	0.66	1.36	1	67.972634355996	67.9772605780017	"3"	44521.757273358	44456.377149932	1.5	0.1
0.01	1	0.0038413650036091	1	97	NA	79.983375744996	0	0.66	1.36	1	68.2064652679983	68.2103066330019	"3"	44521.757273358	44456.377149932	1.5	0.1
0.01	1	0.318434755005001	1	97	NA	79.983375744996	0	0.66	1.36	1	68.4401369729967	68.7585717280017	"3"	44521.757273358	44456.377149932	1.5	0.1
0.01	1	0.00403971999912756	1	97	NA	79.983375744996	0	0.66	1.36	1	68.9909784909978	68.9950182109969	"3"	44521.757273358	44456.377149932	1.5	0.1
0.01	1	0.00430254900129512	1	97	NA	79.983375744996	0	0.66	1.36	1	69.224787829	69.2290903780013	"3"	44521.757273358	44456.377149932	1.5	0.1
0.01	1	0.00376165799389128	1	97	NA	79.983375744996	0	0.66	1.36	1	69.4585053510018	69.4622670089957	"3"	44521.757273358	44456.377149932	1.5	0.1
0.01	1	0.00393671599886147	1	97	NA	79.983375744996	0	0.66	1.36	1	69.6922804810019	69.6962171970008	"3"	44521.757273358	44456.377149932	1.5	0.1
0.01	1	0.00373345799744129	1	97	NA	79.983375744996	0	0.66	1.36	1	69.9258987409994	69.9296321989968	"3"	44521.757273358	44456.377149932	1.5	0.1
0.01	1	0.00392480599839473	1	97	NA	79.983375744996	0	0.66	1.36	1	70.1596943330005	70.1636191389989	"3"	44521.757273358	44456.377149932	1.5	0.1
0.01	1	0.00394341299397638	1	97	NA	79.983375744996	0	0.66	1.36	1	70.3934641160013	70.3974075289952	"3"	44521.757273358	44456.377149932	1.5	0.1
0.01	1	0.00329449399578152	1	97	NA	79.983375744996	0	0.66	1.36	1	70.627138445001	70.6304329389968	"3"	44521.757273358	44456.377149932	1.5	0.1
0.01	1	0.00464392499998212	1	97	NA	79.983375744996	0	0.66	1.36	1	70.8608532259968	70.8654971509968	"3"	44521.757273358	44456.377149932	1.5	0.1
0.01	1	0.00396030199772213	1	97	NA	79.983375744996	0	0.66	1.36	1	71.094682570998	71.0986428729957	"3"	44521.757273358	44456.377149932	1.5	0.1
0.01	1	0.00443618500139564	1	97	NA	79.983375744996	0	0.66	1.36	1	71.3283264259953	71.3327626109967	"3"	44521.757273358	44456.377149932	1.5	0.1
0.01	1	0.00345380999351619	1	97	NA	79.983375744996	0	0.66	1.36	1	71.562031321002	71.5654851309955	"3"	44521.757273358	44456.377149932	1.5	0.1
0.01	1	0.00336280000192346	1	97	NA	79.983375744996	0	0.66	1.36	1	71.7957184069965	71.7990812069984	"3"	44521.757273358	44456.377149932	1.5	0.1
0.01	1	0.00342619600269245	1	97	NA	79.983375744996	0	0.66	1.36	1	72.0294645409958	72.0328907369985	"3"	44521.757273358	44456.377149932	1.5	0.1
0.01	1	0.00397179299761774	1	97	NA	79.983375744996	0	0.66	1.36	1	72.2632491559998	72.2672209489974	"3"	44521.757273358	44456.377149932	1.5	0.1
0.01	1	0.717411172001448	1	97	NA	79.983375744996	0	0.66	1.36	1	72.4970096510006	73.214420823002	"3"	44521.757273358	44456.377149932	1.5	0.1
0.01	1	0.00333647600200493	1	97	NA	79.983375744996	0	0.66	1.36	1	73.448625899	73.451962375002	"3"	44521.757273358	44456.377149932	1.5	0.1
0.01	1	0.00383552499988582	1	97	NA	79.983375744996	0	0.66	1.36	1	73.6822867779993	73.6861223029991	"3"	44521.757273358	44456.377149932	1.5	0.1
0.01	1	0.00457378500141203	1	97	NA	79.983375744996	0	0.66	1.36	1	73.9160245809981	73.9205983659995	"3"	44521.757273358	44456.377149932	1.5	0.1
0.01	1	0.00377995500457473	1	97	NA	79.983375744996	0	0.66	1.36	1	74.1497011179963	74.1534810730009	"3"	44521.757273358	44456.377149932	1.5	0.1
0.01	1	0.00381076899793698	1	97	NA	79.983375744996	0	0.66	1.36	1	74.3834896560002	74.3873004249981	"3"	44521.757273358	44456.377149932	1.5	0.1
0.01	1	0.00376199000311317	1	97	NA	79.983375744996	0	0.66	1.36	1	74.6172681609969	74.621030151	"3"	44521.757273358	44456.377149932	1.5	0.1
0.01	1	0.00454465500661172	1	97	NA	79.983375744996	0	0.66	1.36	1	74.8509492359954	74.855493891002	"3"	44521.757273358	44456.377149932	1.5	0.1
0.01	1	0.00329274400428403	1	97	NA	79.983375744996	0	0.66	1.36	1	75.0846983669981	75.0879911110023	"3"	44521.757273358	44456.377149932	1.5	0.1
0.01	1	0.00352915799885523	1	97	NA	79.983375744996	0	0.66	1.36	1	75.3183636929971	75.3218928509959	"3"	44521.757273358	44456.377149932	1.5	0.1
0.01	1	0.00470620700070867	1	97	NA	79.983375744996	0	0.66	1.36	1	75.5521542459974	75.5568604529981	"3"	44521.757273358	44456.377149932	1.5	0.1
0.01	1	0.55656535000162	1	97	NA	79.983375744996	0	0.66	1.36	1	75.7858180010007	76.3423833510024	"3"	44521.757273358	44456.377149932	1.5	0.1
0.01	1	0.436382323998259	1	97	NA	79.983375744996	0	0.66	1.36	1	76.570549256001	77.0069315799992	"3"	44521.757273358	44456.377149932	1.5	0.1
0.01	1	0.320491218000825	1	97	NA	79.983375744996	0	0.66	1.36	1	77.2383505359976	77.5588417539984	"3"	44521.757273358	44456.377149932	1.5	0.1
0.01	1	2.19252112200047	2	97	NA	79.983375744996	0	0.66	1.36	1	77.789162932997	79.9816840549975	"3"	44521.757273358	44456.377149932	1.5	0.1
0.01	1	1.40286035500321	1	51	95.8725689060011	NA	1	0	1.36	1	82.0296984509987	83.4325588060019	"4"	44521.757273358	44456.377149932	1.5	0.1
0.01	1	0.00439107699639862	1	51	95.8725689060011	NA	1	0	1.36	1	83.6658149159994	83.6702059929958	"4"	44521.757273358	44456.377149932	1.5	0.1
0.01	1	0.00458253199758474	1	51	95.8725689060011	NA	1	0	1.36	1	83.8994883409978	83.9040708729954	"4"	44521.757273358	44456.377149932	1.5	0.1
0.01	1	0.00396050600102171	1	51	95.8725689060011	NA	1	0	1.36	1	84.133174290997	84.137134796998	"4"	44521.757273358	44456.377149932	1.5	0.1
0.01	1	0.003727326002263	1	51	95.8725689060011	NA	1	0	1.36	1	84.3668555729964	84.3705828989987	"4"	44521.757273358	44456.377149932	1.5	0.1
0.01	1	0.00369159199908609	1	51	95.8725689060011	NA	1	0	1.36	1	84.6006895609971	84.6043811529962	"4"	44521.757273358	44456.377149932	1.5	0.1
0.01	1	0.00460868499794742	1	51	95.8725689060011	NA	1	0	1.36	1	84.8343543009978	84.8389629859957	"4"	44521.757273358	44456.377149932	1.5	0.1
0.01	1	0.00208333400223637	1	51	95.8725689060011	NA	1	0	1.36	1	85.0679457849983	85.0700291190005	"4"	44521.757273358	44456.377149932	1.5	0.1
0.01	1	0.0033789640001487	1	51	95.8725689060011	NA	1	0	1.36	1	85.3019205410019	85.305299505002	"4"	44521.757273358	44456.377149932	1.5	0.1
0.01	1	0.00333259199396707	1	51	95.8725689060011	NA	1	0	1.36	1	85.5355689470016	85.5389015389956	"4"	44521.757273358	44456.377149932	1.5	0.1
0.01	1	0.00467246500193141	1	51	95.8725689060011	NA	1	0	1.36	1	85.7693002209999	85.7739726860018	"4"	44521.757273358	44456.377149932	1.5	0.1
0.01	1	0.00387347600189969	1	51	95.8725689060011	NA	1	0	1.36	1	86.0030171909966	86.0068906669985	"4"	44521.757273358	44456.377149932	1.5	0.1
0.01	1	0.0046303849958349	1	51	95.8725689060011	NA	1	0	1.36	1	86.2369489310004	86.2415793159962	"4"	44521.757273358	44456.377149932	1.5	0.1
0.01	1	0.00338493199524237	1	51	95.8725689060011	NA	1	0	1.36	1	86.4704506130001	86.4738355449954	"4"	44521.757273358	44456.377149932	1.5	0.1
0.01	1	0.00353950900171185	1	51	95.8725689060011	NA	1	0	1.36	1	86.7041607179999	86.7077002270016	"4"	44521.757273358	44456.377149932	1.5	0.1
0.01	1	0.00399379600276006	1	51	95.8725689060011	NA	1	0	1.36	1	86.937928870997	86.9419226669997	"4"	44521.757273358	44456.377149932	1.5	0.1
0.01	1	0.00385899999673711	1	51	95.8725689060011	NA	1	0	1.36	1	87.1716268210002	87.175485820997	"4"	44521.757273358	44456.377149932	1.5	0.1
0.01	1	0.00392410600034054	1	51	95.8725689060011	NA	1	0	1.36	1	87.4053504129988	87.4092745189992	"4"	44521.757273358	44456.377149932	1.5	0.1
0.01	1	0.00353012599953217	1	51	95.8725689060011	NA	1	0	1.36	1	87.639105672999	87.6426357989985	"4"	44521.757273358	44456.377149932	1.5	0.1
0.01	1	0.0038926490015001	1	51	95.8725689060011	NA	1	0	1.36	1	87.8727738379966	87.8766664869981	"4"	44521.757273358	44456.377149932	1.5	0.1
0.01	1	0.00419670900009805	1	51	95.8725689060011	NA	1	0	1.36	1	88.106575359001	88.1107720680011	"4"	44521.757273358	44456.377149932	1.5	0.1
0.01	1	0.00394558599509764	1	51	95.8725689060011	NA	1	0	1.36	1	88.3403392510008	88.3442848369959	"4"	44521.757273358	44456.377149932	1.5	0.1
0.01	1	0.00381768300576368	1	51	95.8725689060011	NA	1	0	1.36	1	88.5740567979956	88.5778744810013	"4"	44521.757273358	44456.377149932	1.5	0.1
0.01	1	0.00388631499663461	1	51	95.8725689060011	NA	1	0	1.36	1	88.8077333580004	88.811619672997	"4"	44521.757273358	44456.377149932	1.5	0.1
0.01	1	0.00389719499798957	1	51	95.8725689060011	NA	1	0	1.36	1	89.0414969859994	89.0453941809974	"4"	44521.757273358	44456.377149932	1.5	0.1
0.01	1	0.00384011099959025	1	51	95.8725689060011	NA	1	0	1.36	1	89.2752143280013	89.2790544390009	"4"	44521.757273358	44456.377149932	1.5	0.1
0.01	1	0.640707412996562	1	51	95.8725689060011	NA	1	0	1.36	1	89.5089598810009	90.1496672939975	"4"	44521.757273358	44456.377149932	1.5	0.1
0.01	1	0.00387343100010185	1	51	95.8725689060011	NA	1	0	1.36	1	90.3770223179963	90.3808957489964	"4"	44521.757273358	44456.377149932	1.5	0.1
0.01	1	0.00395405499875778	1	51	95.8725689060011	NA	1	0	1.36	1	90.6107800559985	90.6147341109972	"4"	44521.757273358	44456.377149932	1.5	0.1
0.01	1	0.00337590600247495	1	51	95.8725689060011	NA	1	0	1.36	1	90.8445174329972	90.8478933389997	"4"	44521.757273358	44456.377149932	1.5	0.1
0.01	1	0.00333402700198349	1	51	95.8725689060011	NA	1	0	1.36	1	91.0782305479952	91.0815645749972	"4"	44521.757273358	44456.377149932	1.5	0.1
0.01	1	0.00405922299978556	1	51	95.8725689060011	NA	1	0	1.36	1	91.3118730360002	91.315932259	"4"	44521.757273358	44456.377149932	1.5	0.1
0.01	1	0.00400866300333291	1	51	95.8725689060011	NA	1	0	1.36	1	91.5455891179954	91.5495977809987	"4"	44521.757273358	44456.377149932	1.5	0.1
0.01	1	0.00404964300105348	1	51	95.8725689060011	NA	1	0	1.36	1	91.7794533959968	91.7835030389979	"4"	44521.757273358	44456.377149932	1.5	0.1
0.01	1	0.00350851200346369	1	51	95.8725689060011	NA	1	0	1.36	1	92.0130599609984	92.0165684730018	"4"	44521.757273358	44456.377149932	1.5	0.1
0.01	1	0.00334337200183654	1	51	95.8725689060011	NA	1	0	1.36	1	92.2467535269971	92.2500968989989	"4"	44521.757273358	44456.377149932	1.5	0.1
0.01	1	0.00470026200491702	1	51	95.8725689060011	NA	1	0	1.36	1	92.4806926859965	92.4853929480014	"4"	44521.757273358	44456.377149932	1.5	0.1
0.01	1	0.00458783999783918	1	51	95.8725689060011	NA	1	0	1.36	1	92.7144135010021	92.719001341	"4"	44521.757273358	44456.377149932	1.5	0.1
0.01	1	0.00395596299495082	1	51	95.8725689060011	NA	1	0	1.36	1	92.9481024260022	92.9520583889971	"4"	44521.757273358	44456.377149932	1.5	0.1
0.01	1	0.00466466699435841	1	51	95.8725689060011	NA	1	0	1.36	1	93.1817368510019	93.1864015179963	"4"	44521.757273358	44456.377149932	1.5	0.1
0.01	1	0.0039247139939107	1	51	95.8725689060011	NA	1	0	1.36	1	93.4155097030016	93.4194344169955	"4"	44521.757273358	44456.377149932	1.5	0.1
0.01	1	0.00393161899410188	1	51	95.8725689060011	NA	1	0	1.36	1	93.6491281080016	93.6530597269957	"4"	44521.757273358	44456.377149932	1.5	0.1
0.01	1	0.00377325699810171	1	51	95.8725689060011	NA	1	0	1.36	1	93.8829682180003	93.8867414749984	"4"	44521.757273358	44456.377149932	1.5	0.1
0.01	1	0.00328873399848817	1	51	95.8725689060011	NA	1	0	1.36	1	94.1166920449978	94.1199807789963	"4"	44521.757273358	44456.377149932	1.5	0.1
0.01	1	0.00460659200325608	1	51	95.8725689060011	NA	1	0	1.36	1	94.3504210809988	94.355027673002	"4"	44521.757273358	44456.377149932	1.5	0.1
0.01	1	0.00374256899522152	1	51	95.8725689060011	NA	1	0	1.36	1	94.584116596001	94.5878591649962	"4"	44521.757273358	44456.377149932	1.5	0.1
0.01	1	0.00383574099396355	1	51	95.8725689060011	NA	1	0	1.36	1	94.8179255880023	94.8217613289962	"4"	44521.757273358	44456.377149932	1.5	0.1
0.01	1	0.00389615099993534	1	51	95.8725689060011	NA	1	0	1.36	1	95.0516305380006	95.0555266890005	"4"	44521.757273358	44456.377149932	1.5	0.1
0.01	1	0.00347967700508889	1	51	95.8725689060011	NA	1	0	1.36	1	95.285347635996	95.2888273130011	"4"	44521.757273358	44456.377149932	1.5	0.1
0.01	1	0.00356182499672286	1	51	95.8725689060011	NA	1	0	1.36	1	95.5190627760021	95.5226246009988	"4"	44521.757273358	44456.377149932	1.5	0.1
0.01	1	0.00425191599788377	1	51	95.8725689060011	NA	1	0	1.36	1	95.7527580969981	95.757010012996	"4"	44521.757273358	44456.377149932	1.5	0.1
0.01	1	0.811135092997574	1	116	NA	106.398929859002	0	0.25	1.61	1	97.9231019159997	98.7342370089973	"5"	44521.757273358	44456.377149932	1.5	0.1
0.01	1	0.126429985000868	1	116	NA	106.398929859002	0	0.25	1.61	1	98.974880032998	99.1013100179989	"5"	44521.757273358	44456.377149932	1.5	0.1
0.01	1	0.193558642000426	1	116	NA	106.398929859002	0	0.25	1.61	1	99.3254083409993	99.5189669829997	"5"	44521.757273358	44456.377149932	1.5	0.1
0.01	1	0.159918849996757	1	116	NA	106.398929859002	0	0.25	1.61	1	99.7428561109991	99.9027749609959	"5"	44521.757273358	44456.377149932	1.5	0.1
0.01	1	0.119467575001181	1	116	NA	106.398929859002	0	0.25	1.61	1	100.126759945997	100.246227520998	"5"	44521.757273358	44456.377149932	1.5	0.1
0.01	1	0.137701471998298	1	116	NA	106.398929859002	0	0.25	1.61	1	100.477393531	100.615095002999	"5"	44521.757273358	44456.377149932	1.5	0.1
0.01	1	0.105940667999675	1	116	NA	106.398929859002	0	0.25	1.61	1	100.844671332998	100.950612000997	"5"	44521.757273358	44456.377149932	1.5	0.1
0.01	1	0.0911852490025922	1	116	NA	106.398929859002	0	0.25	1.61	1	101.178514209998	101.269699459001	"5"	44521.757273358	44456.377149932	1.5	0.1
0.01	1	0.0779932189980173	1	116	NA	106.398929859002	0	0.25	1.61	1	101.495731506002	101.573724725	"5"	44521.757273358	44456.377149932	1.5	0.1
0.01	1	0.0493395579978824	1	116	NA	106.398929859002	0	0.25	1.61	1	101.796185530999	101.845525088997	"5"	44521.757273358	44456.377149932	1.5	0.1
0.01	1	0.0491473430010956	1	116	NA	106.398929859002	0	0.25	1.61	1	102.080047429001	102.129194772002	"5"	44521.757273358	44456.377149932	1.5	0.1
0.01	1	0.0511233310026	1	116	NA	106.398929859002	0	0.25	1.61	1	102.363817047997	102.414940379	"5"	44521.757273358	44456.377149932	1.5	0.1
0.01	1	0.0694386480026878	1	116	NA	106.398929859002	0	0.25	1.61	1	102.647751405995	102.717190053998	"5"	44521.757273358	44456.377149932	1.5	0.1
0.01	1	0.0743256860005204	1	116	NA	106.398929859002	0	0.25	1.61	1	102.948129270997	103.022454956998	"5"	44521.757273358	44456.377149932	1.5	0.1
0.01	1	0.116870851001295	1	116	NA	106.398929859002	0	0.25	1.61	1	103.248754752996	103.365625603998	"5"	44521.757273358	44456.377149932	1.5	0.1
0.01	1	0.0636619470024016	1	116	NA	106.398929859002	0	0.25	1.61	1	103.599216750998	103.662878698	"5"	44521.757273358	44456.377149932	1.5	0.1
0.01	1	0.0592814659976284	1	116	NA	106.398929859002	0	0.25	1.61	1	103.899714603001	103.958996068999	"5"	44521.757273358	44456.377149932	1.5	0.1
0.01	1	0.0714580339990789	1	116	NA	106.398929859002	0	0.25	1.61	1	104.183599085998	104.255057119997	"5"	44521.757273358	44456.377149932	1.5	0.1
0.01	1	0.0576829030032968	1	116	NA	106.398929859002	0	0.25	1.61	1	104.484119107998	104.541802011001	"5"	44521.757273358	44456.377149932	1.5	0.1
0.01	1	0.00808042300195666	1	116	NA	106.398929859002	0	0.25	1.61	1	104.767933155999	104.776013579001	"5"	44521.757273358	44456.377149932	1.5	0.1
0.01	1	0.00464151500636945	1	116	NA	106.398929859002	0	0.25	1.61	1	105.001701035995	105.006342551002	"5"	44521.757273358	44456.377149932	1.5	0.1
0.01	1	0.00404361599794356	1	116	NA	106.398929859002	0	0.25	1.61	1	105.235447070998	105.239490686996	"5"	44521.757273358	44456.377149932	1.5	0.1
0.01	1	0.00333582399616716	1	116	NA	106.398929859002	0	0.25	1.61	1	105.469106771001	105.472442594997	"5"	44521.757273358	44456.377149932	1.5	0.1
0.01	1	0.0045769649950671	1	116	NA	106.398929859002	0	0.25	1.61	1	105.702897531002	105.707474495997	"5"	44521.757273358	44456.377149932	1.5	0.1
0.01	1	0.00464201700378908	1	116	NA	106.398929859002	0	0.25	1.61	1	105.936540750998	105.941182768001	"5"	44521.757273358	44456.377149932	1.5	0.1
0.01	1	0.22691994500201	2	116	NA	106.398929859002	0	0.25	1.61	1	106.170327640997	106.397247585999	"5"	44521.757273358	44456.377149932	1.5	0.1
0.01	1	0.205988539004466	1	118	NA	117.847877590997	0	0.35	1.96	1	108.424109437998	108.630097977002	"6"	44521.757273358	44456.377149932	1.5	0.1
0.01	1	0.00400302700290922	1	118	NA	117.847877590997	0	0.35	1.96	1	108.858184655997	108.862187683	"6"	44521.757273358	44456.377149932	1.5	0.1
0.01	1	0.00395333499909611	1	118	NA	117.847877590997	0	0.35	1.96	1	109.091852616002	109.095805951001	"6"	44521.757273358	44456.377149932	1.5	0.1
0.01	1	0.00455039500229759	1	118	NA	117.847877590997	0	0.35	1.96	1	109.325596545998	109.330146941	"6"	44521.757273358	44456.377149932	1.5	0.1
0.01	1	0.00365244100248674	1	118	NA	117.847877590997	0	0.35	1.96	1	109.559305787996	109.562958228998	"6"	44521.757273358	44456.377149932	1.5	0.1
0.01	1	0.00360747800004901	1	118	NA	117.847877590997	0	0.35	1.96	1	109.793105580997	109.796713058997	"6"	44521.757273358	44456.377149932	1.5	0.1
0.01	1	0.00396031399577623	1	118	NA	117.847877590997	0	0.35	1.96	1	110.026709013	110.030669326996	"6"	44521.757273358	44456.377149932	1.5	0.1
0.01	1	0.00385070299671497	1	118	NA	117.847877590997	0	0.35	1.96	1	110.260416038	110.264266740996	"6"	44521.757273358	44456.377149932	1.5	0.1
0.01	1	0.00345243500487413	1	118	NA	117.847877590997	0	0.35	1.96	1	110.494252225995	110.497704661	"6"	44521.757273358	44456.377149932	1.5	0.1
0.01	1	0.00344112099992344	1	118	NA	117.847877590997	0	0.35	1.96	1	110.727886248002	110.731327369002	"6"	44521.757273358	44456.377149932	1.5	0.1
0.01	1	0.00393087999691488	1	118	NA	117.847877590997	0	0.35	1.96	1	110.961876952999	110.965807832996	"6"	44521.757273358	44456.377149932	1.5	0.1
0.01	1	0.00390241400600644	1	118	NA	117.847877590997	0	0.35	1.96	1	111.195438712995	111.199341127001	"6"	44521.757273358	44456.377149932	1.5	0.1
0.01	1	0.00465609499951825	1	118	NA	117.847877590997	0	0.35	1.96	1	111.429202141	111.433858236	"6"	44521.757273358	44456.377149932	1.5	0.1
0.01	1	0.00341045800450956	1	118	NA	117.847877590997	0	0.35	1.96	1	111.662855450995	111.666265909	"6"	44521.757273358	44456.377149932	1.5	0.1
0.01	1	0.00383505799982231	1	118	NA	117.847877590997	0	0.35	1.96	1	111.896533722997	111.900368780996	"6"	44521.757273358	44456.377149932	1.5	0.1
0.01	1	0.00458762999915052	1	118	NA	117.847877590997	0	0.35	1.96	1	112.130351861	112.134939490999	"6"	44521.757273358	44456.377149932	1.5	0.1
0.01	1	0.00381263400049647	1	118	NA	117.847877590997	0	0.35	1.96	1	112.364042911002	112.367855545002	"6"	44521.757273358	44456.377149932	1.5	0.1
0.01	1	0.00418619899573969	1	118	NA	117.847877590997	0	0.35	1.96	1	112.597875756001	112.602061954996	"6"	44521.757273358	44456.377149932	1.5	0.1
0.01	1	0.00458124999568099	1	118	NA	117.847877590997	0	0.35	1.96	1	112.831482606001	112.836063855997	"6"	44521.757273358	44456.377149932	1.5	0.1
0.01	1	0.00375379699835321	1	118	NA	117.847877590997	0	0.35	1.96	1	113.065197167998	113.068950964996	"6"	44521.757273358	44456.377149932	1.5	0.1
0.01	1	0.00461401999928057	1	118	NA	117.847877590997	0	0.35	1.96	1	113.299053556002	113.303667576001	"6"	44521.757273358	44456.377149932	1.5	0.1
0.01	1	0.00303409600019222	1	118	NA	117.847877590997	0	0.35	1.96	1	113.532651740999	113.535685837	"6"	44521.757273358	44456.377149932	1.5	0.1
0.01	1	0.00398896699334728	1	118	NA	117.847877590997	0	0.35	1.96	1	113.766347798002	113.770336764996	"6"	44521.757273358	44456.377149932	1.5	0.1
0.01	1	0.00377203099924373	1	118	NA	117.847877590997	0	0.35	1.96	1	114.000156506001	114.003928537	"6"	44521.757273358	44456.377149932	1.5	0.1
0.01	1	0.180240111003513	1	118	NA	117.847877590997	0	0.35	1.96	1	114.233885725997	114.414125837	"6"	44521.757273358	44456.377149932	1.5	0.1
0.01	1	0.226327569995192	1	118	NA	117.847877590997	0	0.35	1.96	1	114.651231431002	114.877559000997	"6"	44521.757273358	44456.377149932	1.5	0.1
0.01	1	0.00403751299745636	1	118	NA	117.847877590997	0	0.35	1.96	1	115.101962608001	115.106000120999	"6"	44521.757273358	44456.377149932	1.5	0.1
0.01	1	0.0936119920006604	1	118	NA	117.847877590997	0	0.35	1.96	1	115.335711350999	115.429323343	"6"	44521.757273358	44456.377149932	1.5	0.1
0.01	1	0.0956898549993639	1	118	NA	117.847877590997	0	0.35	1.96	1	115.669634086	115.765323940999	"6"	44521.757273358	44456.377149932	1.5	0.1
0.01	1	0.0428321569997934	1	118	NA	117.847877590997	0	0.35	1.96	1	116.003469021001	116.046301178001	"6"	44521.757273358	44456.377149932	1.5	0.1
0.01	1	0.0473815160003142	1	118	NA	117.847877590997	0	0.35	1.96	1	116.270524173	116.317905689	"6"	44521.757273358	44456.377149932	1.5	0.1
0.01	1	0.0188184590006131	1	118	NA	117.847877590997	0	0.35	1.96	1	116.554484082997	116.573302541998	"6"	44521.757273358	44456.377149932	1.5	0.1
0.01	1	0.0581707489982364	1	118	NA	117.847877590997	0	0.35	1.96	1	116.804851995999	116.863022744998	"6"	44521.757273358	44456.377149932	1.5	0.1
0.01	1	0.0702643539989367	1	118	NA	117.847877590997	0	0.35	1.96	1	117.088695446	117.158959799999	"6"	44521.757273358	44456.377149932	1.5	0.1
0.01	1	0.0580405649961904	1	118	NA	117.847877590997	0	0.35	1.96	1	117.389176500001	117.447217064997	"6"	44521.757273358	44456.377149932	1.5	0.1
0.01	1	0.173425865003082	2	118	NA	117.847877590997	0	0.35	1.96	1	117.672907430999	117.846333296002	"6"	44521.757273358	44456.377149932	1.5	0.1
0.01	1	0.00380826200125739	1	87	NA	135.166978925001	0	0.45	2.41	1	119.893333050997	119.897141312998	"7"	44521.757273358	44456.377149932	1.5	0.1
0.01	1	0.00391534299706109	1	87	NA	135.166978925001	0	0.45	2.41	1	120.127111868002	120.131027210999	"7"	44521.757273358	44456.377149932	1.5	0.1
0.01	1	0.0036235600055079	1	87	NA	135.166978925001	0	0.45	2.41	1	120.360896280996	120.364519841001	"7"	44521.757273358	44456.377149932	1.5	0.1
0.01	1	0.00202050499501638	1	87	NA	135.166978925001	0	0.45	2.41	1	120.594539436002	120.596559940997	"7"	44521.757273358	44456.377149932	1.5	0.1
0.01	1	0.00391050100006396	1	87	NA	135.166978925001	0	0.45	2.41	1	120.828265395998	120.832175896998	"7"	44521.757273358	44456.377149932	1.5	0.1
0.01	1	0.00399209000170231	1	87	NA	135.166978925001	0	0.45	2.41	1	121.061950281	121.065942371002	"7"	44521.757273358	44456.377149932	1.5	0.1
0.01	1	0.00383525099459803	1	87	NA	135.166978925001	0	0.45	2.41	1	121.295723208001	121.299558458995	"7"	44521.757273358	44456.377149932	1.5	0.1
0.01	1	0.00460374000249431	1	87	NA	135.166978925001	0	0.45	2.41	1	121.529462320999	121.534066061002	"7"	44521.757273358	44456.377149932	1.5	0.1
0.01	1	0.0033405509966542	1	87	NA	135.166978925001	0	0.45	2.41	1	121.763175685999	121.766516236996	"7"	44521.757273358	44456.377149932	1.5	0.1
0.01	1	0.00346499699662672	1	87	NA	135.166978925001	0	0.45	2.41	1	121.996848718001	122.000313714998	"7"	44521.757273358	44456.377149932	1.5	0.1
0.01	1	0.00444213500304613	1	87	NA	135.166978925001	0	0.45	2.41	1	122.230643065996	122.235085200999	"7"	44521.757273358	44456.377149932	1.5	0.1
0.01	1	0.00456875499367015	1	87	NA	135.166978925001	0	0.45	2.41	1	122.464371761002	122.468940515995	"7"	44521.757273358	44456.377149932	1.5	0.1
0.01	1	0.00446368799748598	1	87	NA	135.166978925001	0	0.45	2.41	1	122.698100410002	122.702564097999	"7"	44521.757273358	44456.377149932	1.5	0.1
0.01	1	0.00360090300091542	1	87	NA	135.166978925001	0	0.45	2.41	1	122.931887945997	122.935488848998	"7"	44521.757273358	44456.377149932	1.5	0.1
0.01	1	0.00359678699896904	1	87	NA	135.166978925001	0	0.45	2.41	1	123.165606228002	123.169203015001	"7"	44521.757273358	44456.377149932	1.5	0.1
0.01	1	0.0040595799946459	1	87	NA	135.166978925001	0	0.45	2.41	1	123.399417451001	123.403477030995	"7"	44521.757273358	44456.377149932	1.5	0.1
0.01	1	0.00460603000101401	1	87	NA	135.166978925001	0	0.45	2.41	1	123.633042431	123.637648461001	"7"	44521.757273358	44456.377149932	1.5	0.1
0.01	1	0.00394852199679008	1	87	NA	135.166978925001	0	0.45	2.41	1	123.866721081002	123.870669602999	"7"	44521.757273358	44456.377149932	1.5	0.1
0.01	1	0.00457410499802791	1	87	NA	135.166978925001	0	0.45	2.41	1	124.100562300999	124.105136405997	"7"	44521.757273358	44456.377149932	1.5	0.1
0.01	1	0.00390090399741894	1	87	NA	135.166978925001	0	0.45	2.41	1	124.334175103002	124.338076006999	"7"	44521.757273358	44456.377149932	1.5	0.1
0.01	1	0.00462689000414684	1	87	NA	135.166978925001	0	0.45	2.41	1	124.567996195998	124.572623086002	"7"	44521.757273358	44456.377149932	1.5	0.1
0.01	1	0.00395136799488682	1	87	NA	135.166978925001	0	0.45	2.41	1	124.801696123002	124.805647490997	"7"	44521.757273358	44456.377149932	1.5	0.1
0.01	1	0.00336707799579017	1	87	NA	135.166978925001	0	0.45	2.41	1	125.035411211	125.038778288996	"7"	44521.757273358	44456.377149932	1.5	0.1
0.01	1	0.00369444399984786	1	87	NA	135.166978925001	0	0.45	2.41	1	125.269048121001	125.272742565001	"7"	44521.757273358	44456.377149932	1.5	0.1
0.01	1	0.00395260700315703	1	87	NA	135.166978925001	0	0.45	2.41	1	125.502722555997	125.506675163	"7"	44521.757273358	44456.377149932	1.5	0.1
0.01	1	0.00451490499835927	1	87	NA	135.166978925001	0	0.45	2.41	1	125.736568911001	125.741083815999	"7"	44521.757273358	44456.377149932	1.5	0.1
0.01	1	0.452547615001095	1	87	NA	135.166978925001	0	0.45	2.41	1	125.970252487998	126.422800102999	"7"	44521.757273358	44456.377149932	1.5	0.1
0.01	1	0.254498200003582	1	87	NA	135.166978925001	0	0.45	2.41	1	126.654848945996	126.909347146	"7"	44521.757273358	44456.377149932	1.5	0.1
0.01	1	0.395724838002934	1	87	NA	135.166978925001	0	0.45	2.41	1	127.138850930998	127.534575769001	"7"	44521.757273358	44456.377149932	1.5	0.1
0.01	1	0.337016289995518	1	87	NA	135.166978925001	0	0.45	2.41	1	127.756624196001	128.093640485997	"7"	44521.757273358	44456.377149932	1.5	0.1
0.01	1	0.313954940000258	1	87	NA	135.166978925001	0	0.45	2.41	1	128.324212571002	128.638167511002	"7"	44521.757273358	44456.377149932	1.5	0.1
0.01	1	0.250133284003823	1	87	NA	135.166978925001	0	0.45	2.41	1	128.875200780996	129.125334065	"7"	44521.757273358	44456.377149932	1.5	0.1
0.01	1	0.270828667999012	1	87	NA	135.166978925001	0	0.45	2.41	1	129.359271465997	129.630100133996	"7"	44521.757273358	44456.377149932	1.5	0.1
0.01	1	0.00442091099830577	1	87	NA	135.166978925001	0	0.45	2.41	1	129.86020933	129.864630240998	"7"	44521.757273358	44456.377149932	1.5	0.1
0.01	1	0.0473245079992921	1	87	NA	135.166978925001	0	0.45	2.41	1	130.093847206001	130.141171714	"7"	44521.757273358	44456.377149932	1.5	0.1
0.01	1	0.244171439000638	1	87	NA	135.166978925001	0	0.45	2.41	1	130.377671226001	130.621842665001	"7"	44521.757273358	44456.377149932	1.5	0.1
0.01	1	0.289283171994612	1	87	NA	135.166978925001	0	0.45	2.41	1	130.845101268002	131.134384439996	"7"	44521.757273358	44456.377149932	1.5	0.1
0.01	1	0.204064198995184	1	87	NA	135.166978925001	0	0.45	2.41	1	131.362769453001	131.566833651996	"7"	44521.757273358	44456.377149932	1.5	0.1
0.01	1	0.209894990999601	1	87	NA	135.166978925001	0	0.45	2.41	1	131.796734885997	132.006629876996	"7"	44521.757273358	44456.377149932	1.5	0.1
0.01	1	0.00383519799652277	1	87	NA	135.166978925001	0	0.45	2.41	1	132.230786191001	132.234621388998	"7"	44521.757273358	44456.377149932	1.5	0.1
0.01	1	0.036606418005249	1	87	NA	135.166978925001	0	0.45	2.41	1	132.464635307995	132.501241726	"7"	44521.757273358	44456.377149932	1.5	0.1
0.01	1	0.259058814001037	1	87	NA	135.166978925001	0	0.45	2.41	1	132.731697666	132.990756480001	"7"	44521.757273358	44456.377149932	1.5	0.1
0.01	1	0.221898231997329	1	87	NA	135.166978925001	0	0.45	2.41	1	133.215740553002	133.437638784999	"7"	44521.757273358	44456.377149932	1.5	0.1
0.01	1	0.22851293200074	1	87	NA	135.166978925001	0	0.45	2.41	1	133.666481840999	133.894994773	"7"	44521.757273358	44456.377149932	1.5	0.1
0.01	1	0.224236789996212	1	87	NA	135.166978925001	0	0.45	2.41	1	134.117324453	134.341561242996	"7"	44521.757273358	44456.377149932	1.5	0.1
0.01	1	0.597335853002733	2	87	NA	135.166978925001	0	0.45	2.41	1	134.568068305998	135.165404159001	"7"	44521.757273358	44456.377149932	1.5	0.1
0.01	1	1.20777646100032	1	6	139.713249212997	NA	1	0	2.41	1	137.222510567997	138.430287028998	"8"	44521.757273358	44456.377149932	1.5	0.1
0.01	1	0.00468975999683607	1	6	139.713249212997	NA	1	0	2.41	1	138.658260901	138.662950660997	"8"	44521.757273358	44456.377149932	1.5	0.1
0.01	1	0.00465475500095636	1	6	139.713249212997	NA	1	0	2.41	1	138.891954385996	138.896609140997	"8"	44521.757273358	44456.377149932	1.5	0.1
0.01	1	0.00396537999768043	1	6	139.713249212997	NA	1	0	2.41	1	139.125667660999	139.129633040997	"8"	44521.757273358	44456.377149932	1.5	0.1
0.01	1	0.00396710100176279	1	6	139.713249212997	NA	1	0	2.41	1	139.359503127998	139.363470229	"8"	44521.757273358	44456.377149932	1.5	0.1
0.01	1	0.00387639099790249	1	6	139.713249212997	NA	1	0	2.41	1	139.593140696001	139.597017086999	"8"	44521.757273358	44456.377149932	1.5	0.1
0.01	1	1.2112680709979	1	106	NA	149.006743655998	0	0.18	2.59	1	141.746811318	142.958079388998	"9"	44521.757273358	44456.377149932	1.5	0.1
0.01	1	0.451327157999913	1	106	NA	149.006743655998	0	0.18	2.59	1	143.199249648002	143.650576806001	"9"	44521.757273358	44456.377149932	1.5	0.1
0.01	1	0.315037462001783	1	106	NA	149.006743655998	0	0.18	2.59	1	143.883751125999	144.198788588001	"9"	44521.757273358	44456.377149932	1.5	0.1
0.01	1	0.0991720559977693	1	106	NA	149.006743655998	0	0.18	2.59	1	144.434586957999	144.533759013997	"9"	44521.757273358	44456.377149932	1.5	0.1
0.01	1	0.0301904899970395	1	106	NA	149.006743655998	0	0.18	2.59	1	144.768557636002	144.798748125999	"9"	44521.757273358	44456.377149932	1.5	0.1
0.01	1	0.0265474089974305	1	106	NA	149.006743655998	0	0.18	2.59	1	145.035736168	145.062283576997	"9"	44521.757273358	44456.377149932	1.5	0.1
0.01	1	0.0563346969938721	1	106	NA	149.006743655998	0	0.18	2.59	1	145.286113818001	145.342448514995	"9"	44521.757273358	44456.377149932	1.5	0.1
0.01	1	0.0117568529967684	1	106	NA	149.006743655998	0	0.18	2.59	1	145.569892811	145.581649663996	"9"	44521.757273358	44456.377149932	1.5	0.1
0.01	1	0.0581933860012214	1	106	NA	149.006743655998	0	0.18	2.59	1	145.803545447998	145.861738833999	"9"	44521.757273358	44456.377149932	1.5	0.1
0.01	1	0.0477147400015383	1	106	NA	149.006743655998	0	0.18	2.59	1	146.087358220997	146.135072960999	"9"	44521.757273358	44456.377149932	1.5	0.1
0.01	1	0.043766989998403	1	106	NA	149.006743655998	0	0.18	2.59	1	146.371164871001	146.414931861	"9"	44521.757273358	44456.377149932	1.5	0.1
0.01	1	0.0635280029964633	1	106	NA	149.006743655998	0	0.18	2.59	1	146.638321778002	146.701849780999	"9"	44521.757273358	44456.377149932	1.5	0.1
0.01	1	0.0358272209996358	1	106	NA	149.006743655998	0	0.18	2.59	1	146.938850617997	146.974677838996	"9"	44521.757273358	44456.377149932	1.5	0.1
0.01	1	0.0236892729953979	1	106	NA	149.006743655998	0	0.18	2.59	1	147.205975101002	147.229664373997	"9"	44521.757273358	44456.377149932	1.5	0.1
0.01	1	0.0136087110004155	1	106	NA	149.006743655998	0	0.18	2.59	1	147.456406480997	147.470015191997	"9"	44521.757273358	44456.377149932	1.5	0.1
0.01	1	0.00212929899862502	1	106	NA	149.006743655998	0	0.18	2.59	1	147.706753307997	147.708882606996	"9"	44521.757273358	44456.377149932	1.5	0.1
0.01	1	0.130049204002717	1	106	NA	149.006743655998	0	0.18	2.59	1	147.940531797998	148.070581002001	"9"	44521.757273358	44456.377149932	1.5	0.1
0.01	1	0.139199434997863	1	106	NA	149.006743655998	0	0.18	2.59	1	148.307794660002	148.446994095	"9"	44521.757273358	44456.377149932	1.5	0.1
0.01	1	0.33012273300119	2	106	NA	149.006743655998	0	0.18	2.59	1	148.675081035995	149.005203768997	"9"	44521.757273358	44456.377149932	1.5	0.1
0.01	1	0.239347748996806	1	21	157.175752411	NA	1	0	2.59	1	151.062500223001	151.301847971998	"10"	44521.757273358	44456.377149932	1.5	0.1
0.01	1	0.0351101769992965	1	21	157.175752411	NA	1	0	2.59	1	151.529972930002	151.565083107002	"10"	44521.757273358	44456.377149932	1.5	0.1
0.01	1	0.0253782389991102	1	21	157.175752411	NA	1	0	2.59	1	151.797031235998	151.822409474997	"10"	44521.757273358	44456.377149932	1.5	0.1
0.01	1	0.023442054996849	1	21	157.175752411	NA	1	0	2.59	1	152.047452348001	152.070894402998	"10"	44521.757273358	44456.377149932	1.5	0.1
0.01	1	0.0523791399973561	1	21	157.175752411	NA	1	0	2.59	1	152.297862136002	152.350241275999	"10"	44521.757273358	44456.377149932	1.5	0.1
0.01	1	0.0160310450010002	1	21	157.175752411	NA	1	0	2.59	1	152.581666277998	152.597697322999	"10"	44521.757273358	44456.377149932	1.5	0.1
0.01	1	0.0225039579963777	1	21	157.175752411	NA	1	0	2.59	1	152.832145941	152.854649898996	"10"	44521.757273358	44456.377149932	1.5	0.1
0.01	1	0.0426790069977869	1	21	157.175752411	NA	1	0	2.59	1	153.082590015998	153.125269022996	"10"	44521.757273358	44456.377149932	1.5	0.1
0.01	1	0.0642604829990887	1	21	157.175752411	NA	1	0	2.59	1	153.349656785998	153.413917268997	"10"	44521.757273358	44456.377149932	1.5	0.1
0.01	1	0.0509653580011218	1	21	157.175752411	NA	1	0	2.59	1	153.650163797996	153.701129155997	"10"	44521.757273358	44456.377149932	1.5	0.1
0.01	1	0.0564740199988591	1	21	157.175752411	NA	1	0	2.59	1	153.933923655997	153.990397675996	"10"	44521.757273358	44456.377149932	1.5	0.1
0.01	1	0.0443116180031211	1	21	157.175752411	NA	1	0	2.59	1	154.217799159997	154.262110778	"10"	44521.757273358	44456.377149932	1.5	0.1
0.01	1	0.0980774679992464	1	21	157.175752411	NA	1	0	2.59	1	154.484878928	154.582956396	"10"	44521.757273358	44456.377149932	1.5	0.1
0.01	1	0.0594625550002092	1	21	157.175752411	NA	1	0	2.59	1	154.818802980997	154.878265535997	"10"	44521.757273358	44456.377149932	1.5	0.1
0.01	1	0.0946061819995521	1	21	157.175752411	NA	1	0	2.59	1	155.102621605998	155.197227787998	"10"	44521.757273358	44456.377149932	1.5	0.1
0.01	1	0.0830641909997212	1	21	157.175752411	NA	1	0	2.59	1	155.419782227997	155.502846418996	"10"	44521.757273358	44456.377149932	1.5	0.1
0.01	1	0.0680920400045579	1	21	157.175752411	NA	1	0	2.59	1	155.737034332997	155.805126373001	"10"	44521.757273358	44456.377149932	1.5	0.1
0.01	1	0.0956099280010676	1	21	157.175752411	NA	1	0	2.59	1	156.037611875996	156.133221803997	"10"	44521.757273358	44456.377149932	1.5	0.1
0.01	1	0.0835799269989366	1	21	157.175752411	NA	1	0	2.59	1	156.354659185999	156.438239112998	"10"	44521.757273358	44456.377149932	1.5	0.1
0.01	1	0.069889341997623	1	21	157.175752411	NA	1	0	2.59	1	156.671955541002	156.741844882999	"10"	44521.757273358	44456.377149932	1.5	0.1
0.01	1	0.0811378250000416	1	21	157.175752411	NA	1	0	2.59	1	156.972432110997	157.053569935997	"10"	44521.757273358	44456.377149932	1.5	0.1
0.01	1	0.252130271997885	2	19	NA	159.479796631	0	0	2.59	1	159.226129921	159.478260192998	"11"	44521.757273358	44456.377149932	1.5	0.1
0.01	1	0.275527029996738	1	63	NA	165.919547332996	0	0.15	2.74	1	161.530130145999	161.805657175995	"12"	44521.757273358	44456.377149932	1.5	0.1
0.01	1	0.142367462998664	1	63	NA	165.919547332996	0	0.15	2.74	1	162.030908585999	162.173276048998	"12"	44521.757273358	44456.377149932	1.5	0.1
0.01	1	0.046916223000153	1	63	NA	165.919547332996	0	0.15	2.74	1	162.398176531002	162.445092754002	"12"	44521.757273358	44456.377149932	1.5	0.1
0.01	1	0.0277302149988827	1	63	NA	165.919547332996	0	0.15	2.74	1	162.682008260999	162.709738475998	"12"	44521.757273358	44456.377149932	1.5	0.1
0.01	1	0.00310307600011583	1	63	NA	165.919547332996	0	0.15	2.74	1	162.932385054999	162.935488130999	"12"	44521.757273358	44456.377149932	1.5	0.1
0.01	1	0.00467478500650031	1	63	NA	165.919547332996	0	0.15	2.74	1	163.166357010996	163.171031796002	"12"	44521.757273358	44456.377149932	1.5	0.1
0.01	1	0.00201851600286318	1	63	NA	165.919547332996	0	0.15	2.74	1	163.399887565	163.401906081002	"12"	44521.757273358	44456.377149932	1.5	0.1
0.01	1	0.00211079799919389	1	63	NA	165.919547332996	0	0.15	2.74	1	163.633588646997	163.635699444996	"12"	44521.757273358	44456.377149932	1.5	0.1
0.01	1	0.00449030799791217	1	63	NA	165.919547332996	0	0.15	2.74	1	163.867368503001	163.871858810999	"12"	44521.757273358	44456.377149932	1.5	0.1
0.01	1	0.00205544799973723	1	63	NA	165.919547332996	0	0.15	2.74	1	164.101027614997	164.103083062997	"12"	44521.757273358	44456.377149932	1.5	0.1
0.01	1	0.00223952800297411	1	63	NA	165.919547332996	0	0.15	2.74	1	164.334753270996	164.336992798999	"12"	44521.757273358	44456.377149932	1.5	0.1
0.01	1	0.00664984899776755	1	63	NA	165.919547332996	0	0.15	2.74	1	164.568580068	164.575229916998	"12"	44521.757273358	44456.377149932	1.5	0.1
0.01	1	0.0513428990016109	1	63	NA	165.919547332996	0	0.15	2.74	1	164.802283596	164.853626495002	"12"	44521.757273358	44456.377149932	1.5	0.1
0.01	1	0.0566043760045432	1	63	NA	165.919547332996	0	0.15	2.74	1	165.086157610996	165.142761987001	"12"	44521.757273358	44456.377149932	1.5	0.1
0.01	1	0.0920034009977826	1	63	NA	165.919547332996	0	0.15	2.74	1	165.369814746002	165.461818147	"12"	44521.757273358	44456.377149932	1.5	0.1
0.01	1	0.230864780998672	2	63	NA	165.919547332996	0	0.15	2.74	1	165.687101083	165.917965863999	"12"	44521.757273358	44456.377149932	1.5	0.1
0.01	1	0.0234793089985033	1	54	NA	171.640472619001	0	0.11	2.85	1	167.974200593999	167.997679902997	"13"	44521.757273358	44456.377149932	1.5	0.1
0.01	1	0.0608850880016689	1	54	NA	171.640472619001	0	0.11	2.85	1	168.224755083	168.285640171001	"13"	44521.757273358	44456.377149932	1.5	0.1
0.01	1	0.0565825530065922	1	54	NA	171.640472619001	0	0.11	2.85	1	168.525179692995	168.581762246002	"13"	44521.757273358	44456.377149932	1.5	0.1
0.01	1	0.0767557290018885	1	54	NA	171.640472619001	0	0.11	2.85	1	168.809002037997	168.885757766999	"13"	44521.757273358	44456.377149932	1.5	0.1
0.01	1	0.0974766959989211	1	54	NA	171.640472619001	0	0.11	2.85	1	169.109484273002	169.206960969001	"13"	44521.757273358	44456.377149932	1.5	0.1
0.01	1	0.0512834969995311	1	54	NA	171.640472619001	0	0.11	2.85	1	169.443360821002	169.494644318002	"13"	44521.757273358	44456.377149932	1.5	0.1
0.01	1	0.095584933005739	1	54	NA	171.640472619001	0	0.11	2.85	1	169.727149975995	169.822734909001	"13"	44521.757273358	44456.377149932	1.5	0.1
0.01	1	0.0651829280031961	1	54	NA	171.640472619001	0	0.11	2.85	1	170.061141027996	170.126323955999	"13"	44521.757273358	44456.377149932	1.5	0.1
0.01	1	0.0846952689971658	1	54	NA	171.640472619001	0	0.11	2.85	1	170.361526221001	170.446221489998	"13"	44521.757273358	44456.377149932	1.5	0.1
0.01	1	0.0796254750021035	1	54	NA	171.640472619001	0	0.11	2.85	1	170.678843825997	170.758469300999	"13"	44521.757273358	44456.377149932	1.5	0.1
0.01	1	0.0812783889996354	1	54	NA	171.640472619001	0	0.11	2.85	1	170.995997810998	171.077276199998	"13"	44521.757273358	44456.377149932	1.5	0.1
0.01	1	0.32566318300087	2	54	NA	171.640472619001	0	0.11	2.85	1	171.313244195997	171.638907378998	"13"	44521.757273358	44456.377149932	1.5	0.1
0.01	1	0.14674584500608	1	103	NA	187.512072676	0	0.43	3.28	1	173.683868850996	173.830614696002	"14"	44521.757273358	44456.377149932	1.5	0.1
0.01	1	0.0504693860057159	1	103	NA	187.512072676	0	0.43	3.28	1	174.067907587996	174.118376974002	"14"	44521.757273358	44456.377149932	1.5	0.1
0.01	1	0.00208088000363205	1	103	NA	187.512072676	0	0.43	3.28	1	174.351694218996	174.353775099	"14"	44521.757273358	44456.377149932	1.5	0.1
0.01	1	0.00382278300094185	1	103	NA	187.512072676	0	0.43	3.28	1	174.585471416001	174.589294199002	"14"	44521.757273358	44456.377149932	1.5	0.1
0.01	1	0.00379196400172077	1	103	NA	187.512072676	0	0.43	3.28	1	174.819044700998	174.822836665	"14"	44521.757273358	44456.377149932	1.5	0.1
0.01	1	0.00394608100032201	1	103	NA	187.512072676	0	0.43	3.28	1	175.052872446002	175.056818527002	"14"	44521.757273358	44456.377149932	1.5	0.1
0.01	1	0.00405937399773393	1	103	NA	187.512072676	0	0.43	3.28	1	175.286518330999	175.290577704996	"14"	44521.757273358	44456.377149932	1.5	0.1
0.01	1	0.00337231400044402	1	103	NA	187.512072676	0	0.43	3.28	1	175.520356743	175.523729057	"14"	44521.757273358	44456.377149932	1.5	0.1
0.01	1	0.00394825500552543	1	103	NA	187.512072676	0	0.43	3.28	1	175.753970487996	175.757918743002	"14"	44521.757273358	44456.377149932	1.5	0.1
0.01	1	0.00399922599899583	1	103	NA	187.512072676	0	0.43	3.28	1	175.987733340997	175.991732566996	"14"	44521.757273358	44456.377149932	1.5	0.1
0.01	1	0.00458381699718302	1	103	NA	187.512072676	0	0.43	3.28	1	176.221390680999	176.225974497997	"14"	44521.757273358	44456.377149932	1.5	0.1
0.01	1	0.00463176499761175	1	103	NA	187.512072676	0	0.43	3.28	1	176.455147895998	176.459779660996	"14"	44521.757273358	44456.377149932	1.5	0.1
0.01	1	0.00463258500531083	1	103	NA	187.512072676	0	0.43	3.28	1	176.688998280995	176.693630866001	"14"	44521.757273358	44456.377149932	1.5	0.1
0.01	1	0.0037523049977608	1	103	NA	187.512072676	0	0.43	3.28	1	176.922615096002	176.926367401	"14"	44521.757273358	44456.377149932	1.5	0.1
0.01	1	0.00463790199864889	1	103	NA	187.512072676	0	0.43	3.28	1	177.156449271002	177.161087173001	"14"	44521.757273358	44456.377149932	1.5	0.1
0.01	1	0.00399372999527259	1	103	NA	187.512072676	0	0.43	3.28	1	177.390028711001	177.394022440996	"14"	44521.757273358	44456.377149932	1.5	0.1
0.01	1	0.00393078100023558	1	103	NA	187.512072676	0	0.43	3.28	1	177.623805017996	177.627735798997	"14"	44521.757273358	44456.377149932	1.5	0.1
0.01	1	0.00369625900202664	1	103	NA	187.512072676	0	0.43	3.28	1	177.857558967997	177.861255226999	"14"	44521.757273358	44456.377149932	1.5	0.1
0.01	1	0.00465753200114705	1	103	NA	187.512072676	0	0.43	3.28	1	178.091279560998	178.095937093	"14"	44521.757273358	44456.377149932	1.5	0.1
0.01	1	0.00403573999938089	1	103	NA	187.512072676	0	0.43	3.28	1	178.325056880996	178.329092620996	"14"	44521.757273358	44456.377149932	1.5	0.1
0.01	1	0.783672956997179	1	103	NA	187.512072676	0	0.43	3.28	1	178.558718920998	179.342391877995	"14"	44521.757273358	44456.377149932	1.5	0.1
0.01	1	0.516924076000578	1	103	NA	187.512072676	0	0.43	3.28	1	179.577083812997	180.094007888998	"14"	44521.757273358	44456.377149932	1.5	0.1
0.01	1	0.0697985220031114	1	103	NA	187.512072676	0	0.43	3.28	1	180.328342255998	180.398140778001	"14"	44521.757273358	44456.377149932	1.5	0.1
0.01	1	0.233340871003747	1	103	NA	187.512072676	0	0.43	3.28	1	180.628873812995	180.862214683999	"14"	44521.757273358	44456.377149932	1.5	0.1
0.01	1	0.0942529250023654	1	103	NA	187.512072676	0	0.43	3.28	1	181.096312260997	181.190565186	"14"	44521.757273358	44456.377149932	1.5	0.1
0.01	1	0.121346578998782	1	103	NA	187.512072676	0	0.43	3.28	1	181.413482914002	181.534829493001	"14"	44521.757273358	44456.377149932	1.5	0.1
0.01	1	0.13854176899622	1	103	NA	187.512072676	0	0.43	3.28	1	181.764134156001	181.902675924997	"14"	44521.757273358	44456.377149932	1.5	0.1
0.01	1	0.139289730999735	1	103	NA	187.512072676	0	0.43	3.28	1	182.131465785998	182.270755516998	"14"	44521.757273358	44456.377149932	1.5	0.1
0.01	1	0.131423468999856	1	103	NA	187.512072676	0	0.43	3.28	1	182.498653110997	182.630076579997	"14"	44521.757273358	44456.377149932	1.5	0.1
0.01	1	0.173049841003376	1	103	NA	187.512072676	0	0.43	3.28	1	182.866050395998	183.039100237002	"14"	44521.757273358	44456.377149932	1.5	0.1
0.01	1	0.13230405899958	1	103	NA	187.512072676	0	0.43	3.28	1	183.266694387996	183.398998446995	"14"	44521.757273358	44456.377149932	1.5	0.1
0.01	1	0.161342273997434	1	103	NA	187.512072676	0	0.43	3.28	1	183.634009740999	183.795352014997	"14"	44521.757273358	44456.377149932	1.5	0.1
0.01	1	0.0770128299991484	1	103	NA	187.512072676	0	0.43	3.28	1	184.017867725997	184.094880555996	"14"	44521.757273358	44456.377149932	1.5	0.1
0.01	1	0.176262742999825	1	103	NA	187.512072676	0	0.43	3.28	1	184.318399122996	184.494661865996	"14"	44521.757273358	44456.377149932	1.5	0.1
0.01	1	0.167148936998274	1	103	NA	187.512072676	0	0.43	3.28	1	184.719177175997	184.886326112995	"14"	44521.757273358	44456.377149932	1.5	0.1
0.01	1	0.150958797996282	1	103	NA	187.512072676	0	0.43	3.28	1	185.119821118002	185.270779915998	"14"	44521.757273358	44456.377149932	1.5	0.1
0.01	1	0.0779300100039109	1	103	NA	187.512072676	0	0.43	3.28	1	185.503710569996	185.58164058	"14"	44521.757273358	44456.377149932	1.5	0.1
0.01	1	0.082137892000901	1	103	NA	187.512072676	0	0.43	3.28	1	185.804195393997	185.886333285998	"14"	44521.757273358	44456.377149932	1.5	0.1
0.01	1	0.020646556004067	1	103	NA	187.512072676	0	0.43	3.28	1	186.121492170998	186.142138727002	"14"	44521.757273358	44456.377149932	1.5	0.1
0.01	1	0.00294324399874313	1	103	NA	187.512072676	0	0.43	3.28	1	186.371845549002	186.374788793	"14"	44521.757273358	44456.377149932	1.5	0.1
0.01	1	0.032033510004112	1	103	NA	187.512072676	0	0.43	3.28	1	186.605584705998	186.637618216002	"14"	44521.757273358	44456.377149932	1.5	0.1
0.01	1	0.029572781000752	1	103	NA	187.512072676	0	0.43	3.28	1	186.872667507996	186.902240288997	"14"	44521.757273358	44456.377149932	1.5	0.1
0.01	1	0.00208647199906409	1	103	NA	187.512072676	0	0.43	3.28	1	187.139790153997	187.141876625996	"14"	44521.757273358	44456.377149932	1.5	0.1
0.01	1	0.136880600999575	2	103	NA	187.512072676	0	0.43	3.28	1	187.373584278001	187.510464879	"14"	44521.757273358	44456.377149932	1.5	0.1
0.01	1	0.453189564999775	1	120	NA	208.808272894996	0	0.49	3.77	1	189.560520241001	190.013709806	"15"	44521.757273358	44456.377149932	1.5	0.1
0.01	1	0.00386218900530366	1	120	NA	208.808272894996	0	0.49	3.77	1	190.245005407996	190.248867597002	"15"	44521.757273358	44456.377149932	1.5	0.1
0.01	1	0.00383364399749553	1	120	NA	208.808272894996	0	0.49	3.77	1	190.478833223002	190.482666866999	"15"	44521.757273358	44456.377149932	1.5	0.1
0.01	1	0.00402283699804684	1	120	NA	208.808272894996	0	0.49	3.77	1	190.712521877998	190.716544714996	"15"	44521.757273358	44456.377149932	1.5	0.1
0.01	1	0.00352722000388894	1	120	NA	208.808272894996	0	0.49	3.77	1	190.946209180998	190.949736401002	"15"	44521.757273358	44456.377149932	1.5	0.1
0.01	1	0.00464131199987605	1	120	NA	208.808272894996	0	0.49	3.77	1	191.179938625995	191.184579937995	"15"	44521.757273358	44456.377149932	1.5	0.1
0.01	1	0.00397138300468214	1	120	NA	208.808272894996	0	0.49	3.77	1	191.413711547997	191.417682931002	"15"	44521.757273358	44456.377149932	1.5	0.1
0.01	1	0.00459686699468875	1	120	NA	208.808272894996	0	0.49	3.77	1	191.647462606001	191.652059472995	"15"	44521.757273358	44456.377149932	1.5	0.1
0.01	1	0.00333349599532085	1	120	NA	208.808272894996	0	0.49	3.77	1	191.881147647	191.884481142995	"15"	44521.757273358	44456.377149932	1.5	0.1
0.01	1	0.00361749799776589	1	120	NA	208.808272894996	0	0.49	3.77	1	192.114898043001	192.118515540998	"15"	44521.757273358	44456.377149932	1.5	0.1
0.01	1	0.00470689000212587	1	120	NA	208.808272894996	0	0.49	3.77	1	192.348667380997	192.353374270999	"15"	44521.757273358	44456.377149932	1.5	0.1
0.01	1	0.00393935500324005	1	120	NA	208.808272894996	0	0.49	3.77	1	192.582377257997	192.586316613	"15"	44521.757273358	44456.377149932	1.5	0.1
0.01	1	0.00387484800012317	1	120	NA	208.808272894996	0	0.49	3.77	1	192.816071750996	192.819946598996	"15"	44521.757273358	44456.377149932	1.5	0.1
0.01	1	0.00335073199676117	1	120	NA	208.808272894996	0	0.49	3.77	1	193.049760447	193.053111178997	"15"	44521.757273358	44456.377149932	1.5	0.1
0.01	1	0.00406479399680393	1	120	NA	208.808272894996	0	0.49	3.77	1	193.283468280999	193.287533074996	"15"	44521.757273358	44456.377149932	1.5	0.1
0.01	1	0.00393643999996129	1	120	NA	208.808272894996	0	0.49	3.77	1	193.517169312996	193.521105752996	"15"	44521.757273358	44456.377149932	1.5	0.1
0.01	1	0.00385321200155886	1	120	NA	208.808272894996	0	0.49	3.77	1	193.751011020999	193.754864233	"15"	44521.757273358	44456.377149932	1.5	0.1
0.01	1	0.00326152599882334	1	120	NA	208.808272894996	0	0.49	3.77	1	193.984698050997	193.987959576996	"15"	44521.757273358	44456.377149932	1.5	0.1
0.01	1	0.123857773003692	1	120	NA	208.808272894996	0	0.49	3.77	1	194.218552505998	194.342410279001	"15"	44521.757273358	44456.377149932	1.5	0.1
0.01	1	0.350122652998834	1	120	NA	208.808272894996	0	0.49	3.77	1	194.568961306002	194.919083959001	"15"	44521.757273358	44456.377149932	1.5	0.1
0.01	1	0.0773595439968631	1	120	NA	208.808272894996	0	0.49	3.77	1	195.153316135998	195.230675679995	"15"	44521.757273358	44456.377149932	1.5	0.1
0.01	1	0.0719424900016747	1	120	NA	208.808272894996	0	0.49	3.77	1	195.453792505999	195.525734996001	"15"	44521.757273358	44456.377149932	1.5	0.1
0.01	1	0.083042894002574	1	120	NA	208.808272894996	0	0.49	3.77	1	195.754352235999	195.837395130002	"15"	44521.757273358	44456.377149932	1.5	0.1
0.01	1	0.103154368000105	1	120	NA	208.808272894996	0	0.49	3.77	1	196.071458318002	196.174612686002	"15"	44521.757273358	44456.377149932	1.5	0.1
0.01	1	0.0486464950008667	1	120	NA	208.808272894996	0	0.49	3.77	1	196.405409715997	196.454056210998	"15"	44521.757273358	44456.377149932	1.5	0.1
0.01	1	0.0685857060016133	1	120	NA	208.808272894996	0	0.49	3.77	1	196.689236931001	196.757822637002	"15"	44521.757273358	44456.377149932	1.5	0.1
0.01	1	0.0729050099980668	1	120	NA	208.808272894996	0	0.49	3.77	1	196.989675122997	197.062580132995	"15"	44521.757273358	44456.377149932	1.5	0.1
0.01	1	0.0601649739983259	1	120	NA	208.808272894996	0	0.49	3.77	1	197.290240905997	197.350405879995	"15"	44521.757273358	44456.377149932	1.5	0.1
0.01	1	0.287599365998176	1	120	NA	208.808272894996	0	0.49	3.77	1	197.573954633001	197.861553998999	"15"	44521.757273358	44456.377149932	1.5	0.1
0.01	1	0.0664323399978457	1	120	NA	208.808272894996	0	0.49	3.77	1	198.091586556002	198.158018896	"15"	44521.757273358	44456.377149932	1.5	0.1
0.01	1	0.0622495879943017	1	120	NA	208.808272894996	0	0.49	3.77	1	198.392125131002	198.454374718996	"15"	44521.757273358	44456.377149932	1.5	0.1
0.01	1	0.0729425049939891	1	120	NA	208.808272894996	0	0.49	3.77	1	198.692561691001	198.765504195995	"15"	44521.757273358	44456.377149932	1.5	0.1
0.01	1	0.0605451570008881	1	120	NA	208.808272894996	0	0.49	3.77	1	198.993123287997	199.053668444998	"15"	44521.757273358	44456.377149932	1.5	0.1
0.01	1	0.0335333879993414	1	120	NA	208.808272894996	0	0.49	3.77	1	199.293556987999	199.327090375999	"15"	44521.757273358	44456.377149932	1.5	0.1
0.01	1	0.0454988299970864	1	120	NA	208.808272894996	0	0.49	3.77	1	199.560683516	199.606182345997	"15"	44521.757273358	44456.377149932	1.5	0.1
0.01	1	0.0253450980017078	1	120	NA	208.808272894996	0	0.49	3.77	1	199.827759620995	199.853104718997	"15"	44521.757273358	44456.377149932	1.5	0.1
0.01	1	0.002839385997504	1	120	NA	208.808272894996	0	0.49	3.77	1	200.078189252999	200.081028638997	"15"	44521.757273358	44456.377149932	1.5	0.1
0.01	1	0.0785050600024988	1	120	NA	208.808272894996	0	0.49	3.77	1	200.312051430999	200.390556491002	"15"	44521.757273358	44456.377149932	1.5	0.1
0.01	1	0.441799931002606	1	120	NA	208.808272894996	0	0.49	3.77	1	200.612496905997	201.054296836999	"15"	44521.757273358	44456.377149932	1.5	0.1
0.01	1	0.261259942002653	1	120	NA	208.808272894996	0	0.49	3.77	1	201.280311470997	201.541571412999	"15"	44521.757273358	44456.377149932	1.5	0.1
0.01	1	0.362015900995175	1	120	NA	208.808272894996	0	0.49	3.77	1	201.764371281002	202.126387181997	"15"	44521.757273358	44456.377149932	1.5	0.1
0.01	1	0.344615711997903	1	120	NA	208.808272894996	0	0.49	3.77	1	202.365470566998	202.710086278996	"15"	44521.757273358	44456.377149932	1.5	0.1
0.01	1	0.305011129996274	1	120	NA	208.808272894996	0	0.49	3.77	1	202.93305277	203.238063899997	"15"	44521.757273358	44456.377149932	1.5	0.1
0.01	1	0.242644434001704	1	120	NA	208.808272894996	0	0.49	3.77	1	203.467332750995	203.709977184997	"15"	44521.757273358	44456.377149932	1.5	0.1
0.01	1	0.263387080995017	1	120	NA	208.808272894996	0	0.49	3.77	1	203.934804438002	204.198191518997	"15"	44521.757273358	44456.377149932	1.5	0.1
0.01	1	0.187534930002585	1	120	NA	208.808272894996	0	0.49	3.77	1	204.435615805996	204.623150735999	"15"	44521.757273358	44456.377149932	1.5	0.1
0.01	1	1.66537641100149	1	120	NA	208.808272894996	0	0.49	3.77	1	204.852912490998	206.518288902	"15"	44521.757273358	44456.377149932	1.5	0.1
0.01	1	0.577945516000909	1	120	NA	208.808272894996	0	0.49	3.77	1	206.756113212999	207.334058729	"15"	44521.757273358	44456.377149932	1.5	0.1
0.01	1	0.969003717000305	1	120	NA	208.808272894996	0	0.49	3.77	1	207.557462051001	208.526465768002	"15"	44521.757273358	44456.377149932	1.5	0.1
0.01	1	0.0472024050031905	2	120	NA	208.808272894996	0	0.49	3.77	1	208.759487910997	208.806690316	"15"	44521.757273358	44456.377149932	1.5	0.1
0.01	1	1.33565599899885	1	109	NA	241.311508802995	0	0.73	4.5	1	210.863115316002	212.198771315001	"16"	44521.757273358	44456.377149932	1.5	0.1
0.01	1	0.00459060000139289	1	109	NA	241.311508802995	0	0.73	4.5	1	212.432369176	212.436959776001	"16"	44521.757273358	44456.377149932	1.5	0.1
0.01	1	0.00394131700159051	1	109	NA	241.311508802995	0	0.73	4.5	1	212.666148926	212.670090243002	"16"	44521.757273358	44456.377149932	1.5	0.1
0.01	1	0.00392707200080622	1	109	NA	241.311508802995	0	0.73	4.5	1	212.899802130996	212.903729202997	"16"	44521.757273358	44456.377149932	1.5	0.1
0.01	1	0.00464054999611108	1	109	NA	241.311508802995	0	0.73	4.5	1	213.133594421	213.138234970997	"16"	44521.757273358	44456.377149932	1.5	0.1
0.01	1	0.00391785299871117	1	109	NA	241.311508802995	0	0.73	4.5	1	213.367297297998	213.371215150997	"16"	44521.757273358	44456.377149932	1.5	0.1
0.01	1	0.00451339499704773	1	109	NA	241.311508802995	0	0.73	4.5	1	213.601092805999	213.605606200996	"16"	44521.757273358	44456.377149932	1.5	0.1
0.01	1	0.00396936099423328	1	109	NA	241.311508802995	0	0.73	4.5	1	213.834729178001	213.838698538995	"16"	44521.757273358	44456.377149932	1.5	0.1
0.01	1	0.00400503099808702	1	109	NA	241.311508802995	0	0.73	4.5	1	214.068402156001	214.072407186999	"16"	44521.757273358	44456.377149932	1.5	0.1
0.01	1	0.00369026300177211	1	109	NA	241.311508802995	0	0.73	4.5	1	214.302156726	214.305846989002	"16"	44521.757273358	44456.377149932	1.5	0.1
0.01	1	0.00379545699979644	1	109	NA	241.311508802995	0	0.73	4.5	1	214.535906136	214.539701592999	"16"	44521.757273358	44456.377149932	1.5	0.1
0.01	1	0.00390312699892092	1	109	NA	241.311508802995	0	0.73	4.5	1	214.769654465999	214.773557592998	"16"	44521.757273358	44456.377149932	1.5	0.1
0.01	1	0.00331495000136783	1	109	NA	241.311508802995	0	0.73	4.5	1	215.003269888999	215.006584839	"16"	44521.757273358	44456.377149932	1.5	0.1
0.01	1	0.0033372919933754	1	109	NA	241.311508802995	0	0.73	4.5	1	215.237095807002	215.240433098996	"16"	44521.757273358	44456.377149932	1.5	0.1
0.01	1	0.00365950299601536	1	109	NA	241.311508802995	0	0.73	4.5	1	215.470855526	215.474515028996	"16"	44521.757273358	44456.377149932	1.5	0.1
0.01	1	0.00404476399853593	1	109	NA	241.311508802995	0	0.73	4.5	1	215.704562373001	215.708607136999	"16"	44521.757273358	44456.377149932	1.5	0.1
0.01	1	0.00458775500010233	1	109	NA	241.311508802995	0	0.73	4.5	1	215.938290320999	215.942878075999	"16"	44521.757273358	44456.377149932	1.5	0.1
0.01	1	0.00462413000059314	1	109	NA	241.311508802995	0	0.73	4.5	1	216.172092811001	216.176716941001	"16"	44521.757273358	44456.377149932	1.5	0.1
0.01	1	0.0039483879954787	1	109	NA	241.311508802995	0	0.73	4.5	1	216.405698281	216.409646668995	"16"	44521.757273358	44456.377149932	1.5	0.1
0.01	1	0.00407332300528651	1	109	NA	241.311508802995	0	0.73	4.5	1	216.639462305997	216.643535629002	"16"	44521.757273358	44456.377149932	1.5	0.1
0.01	1	0.00387528300052509	1	109	NA	241.311508802995	0	0.73	4.5	1	216.873157075999	216.877032359	"16"	44521.757273358	44456.377149932	1.5	0.1
0.01	1	0.00400556700333254	1	109	NA	241.311508802995	0	0.73	4.5	1	217.106928907997	217.110934475	"16"	44521.757273358	44456.377149932	1.5	0.1
0.01	1	0.00207258299633395	1	109	NA	241.311508802995	0	0.73	4.5	1	217.340679157001	217.342751739998	"16"	44521.757273358	44456.377149932	1.5	0.1
0.01	1	0.00355705399852013	1	109	NA	241.311508802995	0	0.73	4.5	1	217.574294521	217.577851574999	"16"	44521.757273358	44456.377149932	1.5	0.1
0.01	1	0.00402667299931636	1	109	NA	241.311508802995	0	0.73	4.5	1	217.808053098001	217.812079771	"16"	44521.757273358	44456.377149932	1.5	0.1
0.01	1	0.00387517100170953	1	109	NA	241.311508802995	0	0.73	4.5	1	218.041703295996	218.045578466998	"16"	44521.757273358	44456.377149932	1.5	0.1
0.01	1	0.00450229199486785	1	109	NA	241.311508802995	0	0.73	4.5	1	218.275646046	218.280148337995	"16"	44521.757273358	44456.377149932	1.5	0.1
0.01	1	0.00393836799776182	1	109	NA	241.311508802995	0	0.73	4.5	1	218.509208650998	218.513147018995	"16"	44521.757273358	44456.377149932	1.5	0.1
0.01	1	0.00362846200005151	1	109	NA	241.311508802995	0	0.73	4.5	1	218.743034911	218.746663373	"16"	44521.757273358	44456.377149932	1.5	0.1
0.01	1	0.00378706400078954	1	109	NA	241.311508802995	0	0.73	4.5	1	218.976705560999	218.980492625	"16"	44521.757273358	44456.377149932	1.5	0.1
0.01	1	0.00397920700197574	1	109	NA	241.311508802995	0	0.73	4.5	1	219.210412815999	219.214392023001	"16"	44521.757273358	44456.377149932	1.5	0.1
0.01	1	0.00462641500052996	1	109	NA	241.311508802995	0	0.73	4.5	1	219.444154512996	219.448780927996	"16"	44521.757273358	44456.377149932	1.5	0.1
0.01	1	0.00377066499640932	1	109	NA	241.311508802995	0	0.73	4.5	1	219.677830706001	219.681601370998	"16"	44521.757273358	44456.377149932	1.5	0.1
0.01	1	0.0304258139949525	1	109	NA	241.311508802995	0	0.73	4.5	1	219.911608556002	219.942034369997	"16"	44521.757273358	44456.377149932	1.5	0.1
0.01	1	0.00350737800181378	1	109	NA	241.311508802995	0	0.73	4.5	1	220.178774430999	220.182281809	"16"	44521.757273358	44456.377149932	1.5	0.1
0.01	1	0.00384395499713719	1	109	NA	241.311508802995	0	0.73	4.5	1	220.412425376002	220.416269330999	"16"	44521.757273358	44456.377149932	1.5	0.1
0.01	1	0.0039036899979692	1	109	NA	241.311508802995	0	0.73	4.5	1	220.646166733	220.650070422998	"16"	44521.757273358	44456.377149932	1.5	0.1
0.01	1	0.00363147800089791	1	109	NA	241.311508802995	0	0.73	4.5	1	220.879904800997	220.883536278998	"16"	44521.757273358	44456.377149932	1.5	0.1
0.01	1	0.00384051499713678	1	109	NA	241.311508802995	0	0.73	4.5	1	221.113649147999	221.117489662996	"16"	44521.757273358	44456.377149932	1.5	0.1
0.01	1	0.00448643200070364	1	109	NA	241.311508802995	0	0.73	4.5	1	221.347427595996	221.351914027997	"16"	44521.757273358	44456.377149932	1.5	0.1
0.01	1	0.003887045000738	1	109	NA	241.311508802995	0	0.73	4.5	1	221.581056887997	221.584943932998	"16"	44521.757273358	44456.377149932	1.5	0.1
0.01	1	0.00339439099479932	1	109	NA	241.311508802995	0	0.73	4.5	1	221.814898698001	221.818293088996	"16"	44521.757273358	44456.377149932	1.5	0.1
0.01	1	0.00394916499499232	1	109	NA	241.311508802995	0	0.73	4.5	1	222.048516946001	222.052466110996	"16"	44521.757273358	44456.377149932	1.5	0.1
0.01	1	0.00362166999548208	1	109	NA	241.311508802995	0	0.73	4.5	1	222.282242221001	222.285863890997	"16"	44521.757273358	44456.377149932	1.5	0.1
0.01	1	0.00390137800422963	1	109	NA	241.311508802995	0	0.73	4.5	1	222.516052852996	222.519954231	"16"	44521.757273358	44456.377149932	1.5	0.1
0.01	1	0.00460404700424988	1	109	NA	241.311508802995	0	0.73	4.5	1	222.749810085996	222.754414133	"16"	44521.757273358	44456.377149932	1.5	0.1
0.01	1	0.00456328500149539	1	109	NA	241.311508802995	0	0.73	4.5	1	222.983489751001	222.988053036002	"16"	44521.757273358	44456.377149932	1.5	0.1
0.01	1	0.00367778600048041	1	109	NA	241.311508802995	0	0.73	4.5	1	223.217150231001	223.220828017002	"16"	44521.757273358	44456.377149932	1.5	0.1
0.01	1	0.00462055000389228	1	109	NA	241.311508802995	0	0.73	4.5	1	223.450883840997	223.455504391	"16"	44521.757273358	44456.377149932	1.5	0.1
0.01	1	0.00394841600063955	1	109	NA	241.311508802995	0	0.73	4.5	1	223.684686150998	223.688634566999	"16"	44521.757273358	44456.377149932	1.5	0.1
0.01	1	0.00211952399695292	1	109	NA	241.311508802995	0	0.73	4.5	1	223.918211117001	223.920330640998	"16"	44521.757273358	44456.377149932	1.5	0.1
0.01	1	0.00394570500066038	1	109	NA	241.311508802995	0	0.73	4.5	1	224.152057745996	224.156003450997	"16"	44521.757273358	44456.377149932	1.5	0.1
0.01	1	0.00437739700282691	1	109	NA	241.311508802995	0	0.73	4.5	1	224.385726068998	224.390103466001	"16"	44521.757273358	44456.377149932	1.5	0.1
0.01	1	0.0038296389975585	1	109	NA	241.311508802995	0	0.73	4.5	1	224.619460078	224.623289716998	"16"	44521.757273358	44456.377149932	1.5	0.1
0.01	1	0.00396396800351795	1	109	NA	241.311508802995	0	0.73	4.5	1	224.853264972997	224.857228941	"16"	44521.757273358	44456.377149932	1.5	0.1
0.01	1	0.239709451998351	1	109	NA	241.311508802995	0	0.73	4.5	1	225.087054570999	225.326764022997	"16"	44521.757273358	44456.377149932	1.5	0.1
0.01	1	0.260075557998789	1	109	NA	241.311508802995	0	0.73	4.5	1	225.554364652999	225.814440210997	"16"	44521.757273358	44456.377149932	1.5	0.1
0.01	1	0.318867818001308	1	109	NA	241.311508802995	0	0.73	4.5	1	226.038632500997	226.357500318998	"16"	44521.757273358	44456.377149932	1.5	0.1
0.01	1	0.263771737998468	1	109	NA	241.311508802995	0	0.73	4.5	1	226.589407241001	226.853178978999	"16"	44521.757273358	44456.377149932	1.5	0.1
0.01	1	0.324738554001669	1	109	NA	241.311508802995	0	0.73	4.5	1	227.090324901001	227.415063455002	"16"	44521.757273358	44456.377149932	1.5	0.1
0.01	1	0.277636740000162	1	109	NA	241.311508802995	0	0.73	4.5	1	227.641449670999	227.919086410999	"16"	44521.757273358	44456.377149932	1.5	0.1
0.01	1	0.343940658996871	1	109	NA	241.311508802995	0	0.73	4.5	1	228.158824730999	228.502765389996	"16"	44521.757273358	44456.377149932	1.5	0.1
0.01	1	0.264038793000509	1	109	NA	241.311508802995	0	0.73	4.5	1	228.726431475996	228.990470268996	"16"	44521.757273358	44456.377149932	1.5	0.1
0.01	1	0.234157915998367	1	109	NA	241.311508802995	0	0.73	4.5	1	229.227246932998	229.461404848997	"16"	44521.757273358	44456.377149932	1.5	0.1
0.01	1	0.216343218002294	1	109	NA	241.311508802995	0	0.73	4.5	1	229.694728140996	229.911071358998	"16"	44521.757273358	44456.377149932	1.5	0.1
0.01	1	1.50146589500218	1	109	NA	241.311508802995	0	0.73	4.5	1	230.145496835998	231.646962731	"16"	44521.757273358	44456.377149932	1.5	0.1
0.01	1	1.14777234000212	1	109	NA	241.311508802995	0	0.73	4.5	1	231.881815795998	233.029588136	"16"	44521.757273358	44456.377149932	1.5	0.1
0.01	1	1.10694079600216	1	109	NA	241.311508802995	0	0.73	4.5	1	233.267352260998	234.374293057001	"16"	44521.757273358	44456.377149932	1.5	0.1
0.01	1	1.74750846799725	1	109	NA	241.311508802995	0	0.73	4.5	1	234.603054733001	236.350563200998	"16"	44521.757273358	44456.377149932	1.5	0.1
0.01	1	1.55271664100292	1	109	NA	241.311508802995	0	0.73	4.5	1	236.589660792997	238.142377434	"16"	44521.757273358	44456.377149932	1.5	0.1
0.01	1	0.334260780000477	1	109	NA	241.311508802995	0	0.73	4.5	1	238.376157868996	238.710418648996	"16"	44521.757273358	44456.377149932	1.5	0.1
0.01	1	0.365956292000192	1	109	NA	241.311508802995	0	0.73	4.5	1	238.943638051001	239.309594343002	"16"	44521.757273358	44456.377149932	1.5	0.1
0.01	1	1.24586882199947	1	109	NA	241.311508802995	0	0.73	4.5	1	239.544584465999	240.790453287998	"16"	44521.757273358	44456.377149932	1.5	0.1
0.01	1	0.296255627996288	2	109	NA	241.311508802995	0	0.73	4.5	1	241.013712041	241.309967668996	"16"	44521.757273358	44456.377149932	1.5	0.1
0.01	1	0.583422237999912	1	71	270.249378107997	NA	1	0	4.5	1	243.351034266998	243.934456504998	"17"	44521.757273358	44456.377149932	1.5	0.1
0.01	1	0.00387530399893876	1	71	270.249378107997	NA	1	0	4.5	1	244.169147740999	244.173023044998	"17"	44521.757273358	44456.377149932	1.5	0.1
0.01	1	0.00438827900507022	1	71	270.249378107997	NA	1	0	4.5	1	244.402922538997	244.407310818002	"17"	44521.757273358	44456.377149932	1.5	0.1
0.01	1	0.00400067299779039	1	71	270.249378107997	NA	1	0	4.5	1	244.636535657999	244.640536330997	"17"	44521.757273358	44456.377149932	1.5	0.1
0.01	1	0.00458708700170973	1	71	270.249378107997	NA	1	0	4.5	1	244.870273330998	244.874860418	"17"	44521.757273358	44456.377149932	1.5	0.1
0.01	1	0.00464700500015169	1	71	270.249378107997	NA	1	0	4.5	1	245.104034901	245.108681906	"17"	44521.757273358	44456.377149932	1.5	0.1
0.01	1	0.00469880700256908	1	71	270.249378107997	NA	1	0	4.5	1	245.337675190996	245.342373997999	"17"	44521.757273358	44456.377149932	1.5	0.1
0.01	1	0.00379032600176288	1	71	270.249378107997	NA	1	0	4.5	1	245.571442761	245.575233087002	"17"	44521.757273358	44456.377149932	1.5	0.1
0.01	1	0.00466849700023886	1	71	270.249378107997	NA	1	0	4.5	1	245.805252856	245.809921353	"17"	44521.757273358	44456.377149932	1.5	0.1
0.01	1	0.0037250919995131	1	71	270.249378107997	NA	1	0	4.5	1	246.038935461002	246.042660553001	"17"	44521.757273358	44456.377149932	1.5	0.1
0.01	1	0.00465427999733947	1	71	270.249378107997	NA	1	0	4.5	1	246.272602131001	246.277256410998	"17"	44521.757273358	44456.377149932	1.5	0.1
0.01	1	0.00383266999415355	1	71	270.249378107997	NA	1	0	4.5	1	246.506327531002	246.510160200996	"17"	44521.757273358	44456.377149932	1.5	0.1
0.01	1	0.00462458499532659	1	71	270.249378107997	NA	1	0	4.5	1	246.740100616	246.744725200995	"17"	44521.757273358	44456.377149932	1.5	0.1
0.01	1	0.00399605400161818	1	71	270.249378107997	NA	1	0	4.5	1	246.973750990997	246.977747044999	"17"	44521.757273358	44456.377149932	1.5	0.1
0.01	1	0.00399636500515044	1	71	270.249378107997	NA	1	0	4.5	1	247.207501687997	247.211498053002	"17"	44521.757273358	44456.377149932	1.5	0.1
0.01	1	0.00392842099972768	1	71	270.249378107997	NA	1	0	4.5	1	247.441330597998	247.445259018998	"17"	44521.757273358	44456.377149932	1.5	0.1
0.01	1	0.00451123499806272	1	71	270.249378107997	NA	1	0	4.5	1	247.675015626002	247.679526861	"17"	44521.757273358	44456.377149932	1.5	0.1
0.01	1	0.00403569800255354	1	71	270.249378107997	NA	1	0	4.5	1	247.908650940997	247.912686639	"17"	44521.757273358	44456.377149932	1.5	0.1
0.01	1	0.00397392999730073	1	71	270.249378107997	NA	1	0	4.5	1	248.142382222999	248.146356152996	"17"	44521.757273358	44456.377149932	1.5	0.1
0.01	1	0.00401953799882904	1	71	270.249378107997	NA	1	0	4.5	1	248.376155450998	248.380174988997	"17"	44521.757273358	44456.377149932	1.5	0.1
0.01	1	0.00369135900109541	1	71	270.249378107997	NA	1	0	4.5	1	248.609821498001	248.613512857002	"17"	44521.757273358	44456.377149932	1.5	0.1
0.01	1	0.00392403099976946	1	71	270.249378107997	NA	1	0	4.5	1	248.843721628	248.847645659	"17"	44521.757273358	44456.377149932	1.5	0.1
0.01	1	0.00338263899902813	1	71	270.249378107997	NA	1	0	4.5	1	249.077273237999	249.080655876998	"17"	44521.757273358	44456.377149932	1.5	0.1
0.01	1	0.00372980300016934	1	71	270.249378107997	NA	1	0	4.5	1	249.311103585998	249.314833388999	"17"	44521.757273358	44456.377149932	1.5	0.1
0.01	1	0.00389730699680513	1	71	270.249378107997	NA	1	0	4.5	1	249.544791257998	249.548688564995	"17"	44521.757273358	44456.377149932	1.5	0.1
0.01	1	0.460123122000368	1	71	270.249378107997	NA	1	0	4.5	1	249.778517416002	250.238640538002	"17"	44521.757273358	44456.377149932	1.5	0.1
0.01	1	0.143737503000011	1	71	270.249378107997	NA	1	0	4.5	1	250.463020092997	250.606757595997	"17"	44521.757273358	44456.377149932	1.5	0.1
0.01	1	0.0473964249977143	1	71	270.249378107997	NA	1	0	4.5	1	250.846978886002	250.894375311	"17"	44521.757273358	44456.377149932	1.5	0.1
0.01	1	0.0271801169947139	1	71	270.249378107997	NA	1	0	4.5	1	251.130876691001	251.158056807995	"17"	44521.757273358	44456.377149932	1.5	0.1
0.01	1	0.0560920799980522	1	71	270.249378107997	NA	1	0	4.5	1	251.381192647998	251.437284727996	"17"	44521.757273358	44456.377149932	1.5	0.1
0.01	1	0.0451680029946147	1	71	270.249378107997	NA	1	0	4.5	1	251.664944780001	251.710112782996	"17"	44521.757273358	44456.377149932	1.5	0.1
0.01	1	0.0423318960019969	1	71	270.249378107997	NA	1	0	4.5	1	251.932136757998	251.974468654	"17"	44521.757273358	44456.377149932	1.5	0.1
0.01	1	0.0548077539933729	1	71	270.249378107997	NA	1	0	4.5	1	252.199219148002	252.254026901996	"17"	44521.757273358	44456.377149932	1.5	0.1
0.01	1	0.0357065749994945	1	71	270.249378107997	NA	1	0	4.5	1	252.483040373001	252.518746948001	"17"	44521.757273358	44456.377149932	1.5	0.1
0.01	1	0.112364904998685	1	71	270.249378107997	NA	1	0	4.5	1	252.750301521002	252.862666426001	"17"	44521.757273358	44456.377149932	1.5	0.1
0.01	1	0.0483811789963511	1	71	270.249378107997	NA	1	0	4.5	1	253.100787670999	253.149168849995	"17"	44521.757273358	44456.377149932	1.5	0.1
0.01	1	0.244976913003484	1	71	270.249378107997	NA	1	0	4.5	1	253.384610150999	253.629587064002	"17"	44521.757273358	44456.377149932	1.5	0.1
0.01	1	0.153831217998231	1	71	270.249378107997	NA	1	0	4.5	1	253.868708303002	254.022539521	"17"	44521.757273358	44456.377149932	1.5	0.1
0.01	1	0.128836260999378	1	71	270.249378107997	NA	1	0	4.5	1	254.252693652998	254.381529913997	"17"	44521.757273358	44456.377149932	1.5	0.1
0.01	1	0.0737941400002455	1	71	270.249378107997	NA	1	0	4.5	1	254.619922297999	254.693716438	"17"	44521.757273358	44456.377149932	1.5	0.1
0.01	1	0.101915974002623	1	71	270.249378107997	NA	1	0	4.5	1	254.920501795998	255.02241777	"17"	44521.757273358	44456.377149932	1.5	0.1
0.01	1	0.359306238999125	1	71	270.249378107997	NA	1	0	4.5	1	255.254495191002	255.613801430001	"17"	44521.757273358	44456.377149932	1.5	0.1
0.01	1	0.159542449000583	1	71	270.249378107997	NA	1	0	4.5	1	255.838666691001	255.998209140002	"17"	44521.757273358	44456.377149932	1.5	0.1
0.01	1	0.159207827004138	1	71	270.249378107997	NA	1	0	4.5	1	256.222731937996	256.381939765	"17"	44521.757273358	44456.377149932	1.5	0.1
0.01	1	0.151390303995868	1	71	270.249378107997	NA	1	0	4.5	1	256.606628848	256.758019151996	"17"	44521.757273358	44456.377149932	1.5	0.1
0.01	1	0.150590568002372	1	71	270.249378107997	NA	1	0	4.5	1	256.990582427999	257.141172996002	"17"	44521.757273358	44456.377149932	1.5	0.1
0.01	1	0.128459082996415	1	71	270.249378107997	NA	1	0	4.5	1	257.374627502999	257.503086585995	"17"	44521.757273358	44456.377149932	1.5	0.1
0.01	1	0.0967174309989787	1	71	270.249378107997	NA	1	0	4.5	1	257.725201308	257.821918738999	"17"	44521.757273358	44456.377149932	1.5	0.1
0.01	1	0.201950914000918	1	71	270.249378107997	NA	1	0	4.5	1	258.059124492996	258.261075406997	"17"	44521.757273358	44456.377149932	1.5	0.1
0.01	1	0.145592267996108	1	71	270.249378107997	NA	1	0	4.5	1	258.493244830999	258.638837098995	"17"	44521.757273358	44456.377149932	1.5	0.1
0.01	1	0.1136000339975	1	71	270.249378107997	NA	1	0	4.5	1	258.860567773001	258.974167806999	"17"	44521.757273358	44456.377149932	1.5	0.1
0.01	1	0.0195875790013815	1	71	270.249378107997	NA	1	0	4.5	1	259.211085010997	259.230672589998	"17"	44521.757273358	44456.377149932	1.5	0.1
0.01	1	0.00389335700310767	1	71	270.249378107997	NA	1	0	4.5	1	259.461516525997	259.465409883	"17"	44521.757273358	44456.377149932	1.5	0.1
0.01	1	0.134221676002198	1	71	270.249378107997	NA	1	0	4.5	1	259.695215512998	259.829437189001	"17"	44521.757273358	44456.377149932	1.5	0.1
0.01	1	0.183032103006553	1	71	270.249378107997	NA	1	0	4.5	1	260.062432155995	260.245464259002	"17"	44521.757273358	44456.377149932	1.5	0.1
0.01	1	0.10970385800465	1	71	270.249378107997	NA	1	0	4.5	1	260.479812995996	260.589516854001	"17"	44521.757273358	44456.377149932	1.5	0.1
0.01	1	0.184538596993661	1	71	270.249378107997	NA	1	0	4.5	1	260.813733841002	260.998272437995	"17"	44521.757273358	44456.377149932	1.5	0.1
0.01	1	0.422719557005621	1	71	270.249378107997	NA	1	0	4.5	1	261.231068495996	261.653788053001	"17"	44521.757273358	44456.377149932	1.5	0.1
0.01	1	0.435099249996711	1	71	270.249378107997	NA	1	0	4.5	1	261.882250007999	262.317349257995	"17"	44521.757273358	44456.377149932	1.5	0.1
0.01	1	0.375159415998496	1	71	270.249378107997	NA	1	0	4.5	1	262.550027871002	262.925187287001	"17"	44521.757273358	44456.377149932	1.5	0.1
0.01	1	0.358892458003538	1	71	270.249378107997	NA	1	0	4.5	1	263.151002257997	263.509894716	"17"	44521.757273358	44456.377149932	1.5	0.1
0.01	1	0.419653161996393	1	71	270.249378107997	NA	1	0	4.5	1	263.735358541002	264.155011702998	"17"	44521.757273358	44456.377149932	1.5	0.1
0.01	1	0.322813780003344	1	71	270.249378107997	NA	1	0	4.5	1	264.386348285996	264.709162065999	"17"	44521.757273358	44456.377149932	1.5	0.1
0.01	1	0.363829401998373	1	71	270.249378107997	NA	1	0	4.5	1	264.937485711002	265.301315113	"17"	44521.757273358	44456.377149932	1.5	0.1
0.01	1	0.355969118005305	1	71	270.249378107997	NA	1	0	4.5	1	265.538393420997	265.894362539002	"17"	44521.757273358	44456.377149932	1.5	0.1
0.01	1	0.339395531998889	1	71	270.249378107997	NA	1	0	4.5	1	266.122645292999	266.462040824998	"17"	44521.757273358	44456.377149932	1.5	0.1
0.01	1	0.380945844997768	1	71	270.249378107997	NA	1	0	4.5	1	266.690301338	267.071247182997	"17"	44521.757273358	44456.377149932	1.5	0.1
0.01	1	0.370352985002683	1	71	270.249378107997	NA	1	0	4.5	1	267.307936587997	267.678289572999	"17"	44521.757273358	44456.377149932	1.5	0.1
0.01	1	0.329379637005331	1	71	270.249378107997	NA	1	0	4.5	1	267.909017250997	268.238396888002	"17"	44521.757273358	44456.377149932	1.5	0.1
0.01	1	0.529098906998115	1	71	270.249378107997	NA	1	0	4.5	1	268.476644308001	269.005743214999	"17"	44521.757273358	44456.377149932	1.5	0.1
0.01	1	0.906759949000843	1	71	270.249378107997	NA	1	0	4.5	1	269.227927497996	270.134687446996	"17"	44521.757273358	44456.377149932	1.5	0.1
0.01	1	0.817936769002699	1	96	NA	281.771258258996	0	0.37	4.87	1	272.299731255996	273.117668024999	"18"	44521.757273358	44456.377149932	1.5	0.1
0.01	1	0.0046140549966367	1	96	NA	281.771258258996	0	0.37	4.87	1	273.351586236	273.356200290997	"18"	44521.757273358	44456.377149932	1.5	0.1
0.01	1	0.0038018129998818	1	96	NA	281.771258258996	0	0.37	4.87	1	273.585170535996	273.588972348996	"18"	44521.757273358	44456.377149932	1.5	0.1
0.01	1	0.00423126800160389	1	96	NA	281.771258258996	0	0.37	4.87	1	273.818967722997	273.823198990998	"18"	44521.757273358	44456.377149932	1.5	0.1
0.01	1	0.00383743300335482	1	96	NA	281.771258258996	0	0.37	4.87	1	274.052625837998	274.056463271001	"18"	44521.757273358	44456.377149932	1.5	0.1
0.01	1	0.00459440499980701	1	96	NA	281.771258258996	0	0.37	4.87	1	274.286561451001	274.291155856001	"18"	44521.757273358	44456.377149932	1.5	0.1
0.01	1	0.00357687300129328	1	96	NA	281.771258258996	0	0.37	4.87	1	274.520071455998	274.523648328999	"18"	44521.757273358	44456.377149932	1.5	0.1
0.01	1	0.00388344100065297	1	96	NA	281.771258258996	0	0.37	4.87	1	274.753933847998	274.757817288999	"18"	44521.757273358	44456.377149932	1.5	0.1
0.01	1	0.00403346399980364	1	96	NA	281.771258258996	0	0.37	4.87	1	274.987600112996	274.991633576996	"18"	44521.757273358	44456.377149932	1.5	0.1
0.01	1	0.00345057500089752	1	96	NA	281.771258258996	0	0.37	4.87	1	275.221285817999	275.224736393	"18"	44521.757273358	44456.377149932	1.5	0.1
0.01	1	0.00389997599995695	1	96	NA	281.771258258996	0	0.37	4.87	1	275.455138970996	275.459038946996	"18"	44521.757273358	44456.377149932	1.5	0.1
0.01	1	0.00441656100156251	1	96	NA	281.771258258996	0	0.37	4.87	1	275.688689099996	275.693105660997	"18"	44521.757273358	44456.377149932	1.5	0.1
0.01	1	0.00393024000368314	1	96	NA	281.771258258996	0	0.37	4.87	1	275.922479670997	275.926409911001	"18"	44521.757273358	44456.377149932	1.5	0.1
0.01	1	0.00347319299908122	1	96	NA	281.771258258996	0	0.37	4.87	1	276.156192447997	276.159665640997	"18"	44521.757273358	44456.377149932	1.5	0.1
0.01	1	0.00375562100089155	1	96	NA	281.771258258996	0	0.37	4.87	1	276.389882885996	276.393638506997	"18"	44521.757273358	44456.377149932	1.5	0.1
0.01	1	0.00330198200390441	1	96	NA	281.771258258996	0	0.37	4.87	1	276.623676796997	276.626978779001	"18"	44521.757273358	44456.377149932	1.5	0.1
0.01	1	0.00383857400447596	1	96	NA	281.771258258996	0	0.37	4.87	1	276.857459100996	276.861297675001	"18"	44521.757273358	44456.377149932	1.5	0.1
0.01	1	0.00391969700285699	1	96	NA	281.771258258996	0	0.37	4.87	1	277.091182575998	277.095102273001	"18"	44521.757273358	44456.377149932	1.5	0.1
0.01	1	0.00345135799580021	1	96	NA	281.771258258996	0	0.37	4.87	1	277.324900631	277.328351988996	"18"	44521.757273358	44456.377149932	1.5	0.1
0.01	1	0.00402376700367313	1	96	NA	281.771258258996	0	0.37	4.87	1	277.558589567998	277.562613335002	"18"	44521.757273358	44456.377149932	1.5	0.1
0.01	1	0.0046356349994312	1	96	NA	281.771258258996	0	0.37	4.87	1	277.792299640998	277.796935275997	"18"	44521.757273358	44456.377149932	1.5	0.1
0.01	1	0.00450284399994416	1	96	NA	281.771258258996	0	0.37	4.87	1	278.025974598997	278.030477442997	"18"	44521.757273358	44456.377149932	1.5	0.1
0.01	1	0.0035528830048861	1	96	NA	281.771258258996	0	0.37	4.87	1	278.259752157996	278.263305041	"18"	44521.757273358	44456.377149932	1.5	0.1
0.01	1	0.00346657399495598	1	96	NA	281.771258258996	0	0.37	4.87	1	278.493432397001	278.496898970996	"18"	44521.757273358	44456.377149932	1.5	0.1
0.01	1	0.00445030200353358	1	96	NA	281.771258258996	0	0.37	4.87	1	278.727291908996	278.731742210999	"18"	44521.757273358	44456.377149932	1.5	0.1
0.01	1	0.00378195100347511	1	96	NA	281.771258258996	0	0.37	4.87	1	278.961072287995	278.964854238999	"18"	44521.757273358	44456.377149932	1.5	0.1
0.01	1	0.00400669500231743	1	96	NA	281.771258258996	0	0.37	4.87	1	279.194649705998	279.198656401	"18"	44521.757273358	44456.377149932	1.5	0.1
0.01	1	0.00343728799634846	1	96	NA	281.771258258996	0	0.37	4.87	1	279.428368991001	279.431806278997	"18"	44521.757273358	44456.377149932	1.5	0.1
0.01	1	0.00350973800232168	1	96	NA	281.771258258996	0	0.37	4.87	1	279.662132940997	279.665642679	"18"	44521.757273358	44456.377149932	1.5	0.1
0.01	1	0.00459639199834783	1	96	NA	281.771258258996	0	0.37	4.87	1	279.895887865998	279.900484257996	"18"	44521.757273358	44456.377149932	1.5	0.1
0.01	1	0.00379538499691989	1	96	NA	281.771258258996	0	0.37	4.87	1	280.129605816001	280.133401200997	"18"	44521.757273358	44456.377149932	1.5	0.1
0.01	1	0.00410221100173658	1	96	NA	281.771258258996	0	0.37	4.87	1	280.363252625997	280.367354836999	"18"	44521.757273358	44456.377149932	1.5	0.1
0.01	1	0.00353852999978699	1	96	NA	281.771258258996	0	0.37	4.87	1	280.597016410997	280.600554940997	"18"	44521.757273358	44456.377149932	1.5	0.1
0.01	1	0.00375727400387404	1	96	NA	281.771258258996	0	0.37	4.87	1	280.830778010997	280.834535285001	"18"	44521.757273358	44456.377149932	1.5	0.1
0.01	1	0.0037876439964748	1	96	NA	281.771258258996	0	0.37	4.87	1	281.064558831	281.068346474996	"18"	44521.757273358	44456.377149932	1.5	0.1
0.01	1	0.00387078300263966	1	96	NA	281.771258258996	0	0.37	4.87	1	281.298237206	281.302107989002	"18"	44521.757273358	44456.377149932	1.5	0.1
0.01	1	0.00458639200223843	1	96	NA	281.771258258996	0	0.37	4.87	1	281.532036735996	281.536623127999	"18"	44521.757273358	44456.377149932	1.5	0.1
0.01	1	0.00374638500215951	2	96	NA	281.771258258996	0	0.37	4.87	1	281.765685457998	281.769431843	"18"	44521.757273358	44456.377149932	1.5	0.1
0.01	1	0.00470671500079334	1	91	NA	302.152589126999	0	0.54	5.41	1	283.819100520996	283.823807235996	"19"	44521.757273358	44456.377149932	1.5	0.1
0.01	1	0.00383408099878579	1	91	NA	302.152589126999	0	0.54	5.41	1	284.052891257998	284.056725338996	"19"	44521.757273358	44456.377149932	1.5	0.1
0.01	1	0.002050759998383	1	91	NA	302.152589126999	0	0.54	5.41	1	284.286576168997	284.288626928996	"19"	44521.757273358	44456.377149932	1.5	0.1
0.01	1	0.00385854699561605	1	91	NA	302.152589126999	0	0.54	5.41	1	284.520305646001	284.524164192997	"19"	44521.757273358	44456.377149932	1.5	0.1
0.01	1	0.00459625000075903	1	91	NA	302.152589126999	0	0.54	5.41	1	284.754005165996	284.758601415997	"19"	44521.757273358	44456.377149932	1.5	0.1
0.01	1	0.00383324099675519	1	91	NA	302.152589126999	0	0.54	5.41	1	284.987728118002	284.991561358998	"19"	44521.757273358	44456.377149932	1.5	0.1
0.01	1	0.00379707299725851	1	91	NA	302.152589126999	0	0.54	5.41	1	285.221422647999	285.225219720996	"19"	44521.757273358	44456.377149932	1.5	0.1
0.01	1	0.00374691100296332	1	91	NA	302.152589126999	0	0.54	5.41	1	285.455219917996	285.458966828999	"19"	44521.757273358	44456.377149932	1.5	0.1
0.01	1	0.00409603300067829	1	91	NA	302.152589126999	0	0.54	5.41	1	285.688969802999	285.693065836	"19"	44521.757273358	44456.377149932	1.5	0.1
0.01	1	0.00465294499736046	1	91	NA	302.152589126999	0	0.54	5.41	1	285.922623336002	285.927276281	"19"	44521.757273358	44456.377149932	1.5	0.1
0.01	1	0.00386568599788006	1	91	NA	302.152589126999	0	0.54	5.41	1	286.156412001001	286.160277686999	"19"	44521.757273358	44456.377149932	1.5	0.1
0.01	1	0.00319673600461101	1	91	NA	302.152589126999	0	0.54	5.41	1	286.390102560996	286.393299297	"19"	44521.757273358	44456.377149932	1.5	0.1
0.01	1	0.00331216199992923	1	91	NA	302.152589126999	0	0.54	5.41	1	286.623821595	286.627133757	"19"	44521.757273358	44456.377149932	1.5	0.1
0.01	1	0.00463057000160916	1	91	NA	302.152589126999	0	0.54	5.41	1	286.857570210996	286.862200780997	"19"	44521.757273358	44456.377149932	1.5	0.1
0.01	1	0.00395173599827103	1	91	NA	302.152589126999	0	0.54	5.41	1	287.091241611	287.095193346999	"19"	44521.757273358	44456.377149932	1.5	0.1
0.01	1	0.00353047799580963	1	91	NA	302.152589126999	0	0.54	5.41	1	287.325010301	287.328540778995	"19"	44521.757273358	44456.377149932	1.5	0.1
0.01	1	0.486684422001417	1	91	NA	302.152589126999	0	0.54	5.41	1	287.558683440999	288.045367863	"19"	44521.757273358	44456.377149932	1.5	0.1
0.01	1	0.161998686002335	1	91	NA	302.152589126999	0	0.54	5.41	1	288.276585592997	288.438584279	"19"	44521.757273358	44456.377149932	1.5	0.1
0.01	1	0.209432718998869	1	91	NA	302.152589126999	0	0.54	5.41	1	288.660699061002	288.870131780001	"19"	44521.757273358	44456.377149932	1.5	0.1
0.01	1	0.16031933100021	1	91	NA	302.152589126999	0	0.54	5.41	1	289.094753070996	289.255072401997	"19"	44521.757273358	44456.377149932	1.5	0.1
0.01	1	0.208574226002384	1	91	NA	302.152589126999	0	0.54	5.41	1	289.478678975996	289.687253201999	"19"	44521.757273358	44456.377149932	1.5	0.1
0.01	1	0.173481898003956	1	91	NA	302.152589126999	0	0.54	5.41	1	289.912692592996	290.086174491	"19"	44521.757273358	44456.377149932	1.5	0.1
0.01	1	0.196053902000131	1	91	NA	302.152589126999	0	0.54	5.41	1	290.313376145998	290.509430047998	"19"	44521.757273358	44456.377149932	1.5	0.1
0.01	1	0.170181596993643	1	91	NA	302.152589126999	0	0.54	5.41	1	290.747354047002	290.917535643996	"19"	44521.757273358	44456.377149932	1.5	0.1
0.01	1	0.146672396993381	1	91	NA	302.152589126999	0	0.54	5.41	1	291.148170553002	291.294842949996	"19"	44521.757273358	44456.377149932	1.5	0.1
0.01	1	0.137604513001861	1	91	NA	302.152589126999	0	0.54	5.41	1	291.532119570998	291.669724084	"19"	44521.757273358	44456.377149932	1.5	0.1
0.01	1	0.11459957700572	1	91	NA	302.152589126999	0	0.54	5.41	1	291.899439055996	292.014038633002	"19"	44521.757273358	44456.377149932	1.5	0.1
0.01	1	0.155214739999792	1	91	NA	302.152589126999	0	0.54	5.41	1	292.249927691002	292.405142431002	"19"	44521.757273358	44456.377149932	1.5	0.1
0.01	1	0.14906810499815	1	91	NA	302.152589126999	0	0.54	5.41	1	292.633956026002	292.783024131	"19"	44521.757273358	44456.377149932	1.5	0.1
0.01	1	0.131195203000971	1	91	NA	302.152589126999	0	0.54	5.41	1	293.017899068	293.149094271001	"19"	44521.757273358	44456.377149932	1.5	0.1
0.01	1	0.149831050999637	1	91	NA	302.152589126999	0	0.54	5.41	1	293.385159366	293.534990417	"19"	44521.757273358	44456.377149932	1.5	0.1
0.01	1	0.172499131993391	1	91	NA	302.152589126999	0	0.54	5.41	1	293.769184306002	293.941683437995	"19"	44521.757273358	44456.377149932	1.5	0.1
0.01	1	0.156703436005046	1	91	NA	302.152589126999	0	0.54	5.41	1	294.169804175996	294.326507612001	"19"	44521.757273358	44456.377149932	1.5	0.1
0.01	1	0.132792488002451	1	91	NA	302.152589126999	0	0.54	5.41	1	294.553920327999	294.686712816001	"19"	44521.757273358	44456.377149932	1.5	0.1
0.01	1	0.15621294399898	1	91	NA	302.152589126999	0	0.54	5.41	1	294.921065641	295.077278584999	"19"	44521.757273358	44456.377149932	1.5	0.1
0.01	1	0.116063895999105	1	91	NA	302.152589126999	0	0.54	5.41	1	295.305204641001	295.421268537	"19"	44521.757273358	44456.377149932	1.5	0.1
0.01	1	0.0861961990012787	1	91	NA	302.152589126999	0	0.54	5.41	1	295.655690800995	295.741886999996	"19"	44521.757273358	44456.377149932	1.5	0.1
0.01	1	0.177322548996017	1	91	NA	302.152589126999	0	0.54	5.41	1	295.972814016	296.150136564997	"19"	44521.757273358	44456.377149932	1.5	0.1
0.01	1	0.119916622003075	1	91	NA	302.152589126999	0	0.54	5.41	1	296.373533013997	296.493449636	"19"	44521.757273358	44456.377149932	1.5	0.1
0.01	1	0.186256899003638	1	91	NA	302.152589126999	0	0.54	5.41	1	296.724058537999	296.910315437002	"19"	44521.757273358	44456.377149932	1.5	0.1
0.01	1	0.201155316004588	1	91	NA	302.152589126999	0	0.54	5.41	1	297.141542990998	297.342698307002	"19"	44521.757273358	44456.377149932	1.5	0.1
0.01	1	0.150016917003086	1	91	NA	302.152589126999	0	0.54	5.41	1	297.575542885999	297.725559803002	"19"	44521.757273358	44456.377149932	1.5	0.1
0.01	1	0.11923542200384	1	91	NA	302.152589126999	0	0.54	5.41	1	297.959505057996	298.078740479999	"19"	44521.757273358	44456.377149932	1.5	0.1
0.01	1	0.120207422995009	1	91	NA	302.152589126999	0	0.54	5.41	1	298.310115733002	298.430323155997	"19"	44521.757273358	44456.377149932	1.5	0.1
0.01	1	0.136609221997787	1	91	NA	302.152589126999	0	0.54	5.41	1	298.660779906	298.797389127998	"19"	44521.757273358	44456.377149932	1.5	0.1
0.01	1	0.00458861100196373	1	91	NA	302.152589126999	0	0.54	5.41	1	299.028007317	299.032595928002	"19"	44521.757273358	44456.377149932	1.5	0.1
0.01	1	0.00210698799492093	1	91	NA	302.152589126999	0	0.54	5.41	1	299.261753710001	299.263860697996	"19"	44521.757273358	44456.377149932	1.5	0.1
0.01	1	0.118850301994826	1	91	NA	302.152589126999	0	0.54	5.41	1	299.495451258001	299.614301559996	"19"	44521.757273358	44456.377149932	1.5	0.1
0.01	1	0.11158585800149	1	91	NA	302.152589126999	0	0.54	5.41	1	299.846088938	299.957674796002	"19"	44521.757273358	44456.377149932	1.5	0.1
0.01	1	0.146457103001012	1	91	NA	302.152589126999	0	0.54	5.41	1	300.179943550997	300.326400653998	"19"	44521.757273358	44456.377149932	1.5	0.1
0.01	1	0.13788512100291	1	91	NA	302.152589126999	0	0.54	5.41	1	300.563990240997	300.701875362	"19"	44521.757273358	44456.377149932	1.5	0.1
0.01	1	0.0910214679970522	1	91	NA	302.152589126999	0	0.54	5.41	1	300.931192671	301.022214138997	"19"	44521.757273358	44456.377149932	1.5	0.1
0.01	1	0.0771538999979384	1	91	NA	302.152589126999	0	0.54	5.41	1	301.248391226	301.325545125997	"19"	44521.757273358	44456.377149932	1.5	0.1
