"payoff.level"	"balloon"	"rt"	"resp"	"explode.trial"	"explode.time"	"finish.time"	"exploded"	"trial.total"	"cumulative.total"	"finished"	"trial.start"	"trial.end"	"trial.num"	"secs"	"start.time"	"iti"	"isi"
0.01	1	3.37571214899799	1	64	NA	14.1169291739971	0	0.09	0.09	1	0.0182572880003136	3.3939694369983	"1"	33007.440500416	33005.269730974	1.5	0.1
0.01	1	0.508299086999614	1	64	NA	14.1169291739971	0	0.09	0.09	1	3.77461819299788	4.28291727999749	"1"	33007.440500416	33005.269730974	1.5	0.1
0.01	1	1.06929104400115	1	64	NA	14.1169291739971	0	0.09	0.09	1	4.50912437799707	5.57841542199822	"1"	33007.440500416	33005.269730974	1.5	0.1
0.01	1	1.34247372699974	1	64	NA	14.1169291739971	0	0.09	0.09	1	5.81124351799735	7.1537172449971	"1"	33007.440500416	33005.269730974	1.5	0.1
0.01	1	0.638559438997618	1	64	NA	14.1169291739971	0	0.09	0.09	1	7.38074234799933	8.01930178699695	"1"	33007.440500416	33005.269730974	1.5	0.1
0.01	1	1.02623423800105	1	64	NA	14.1169291739971	0	0.09	0.09	1	8.24879597799736	9.27503021599841	"1"	33007.440500416	33005.269730974	1.5	0.1
0.01	1	0.934102825001901	1	64	NA	14.1169291739971	0	0.09	0.09	1	9.50087248699856	10.4349753120005	"1"	33007.440500416	33005.269730974	1.5	0.1
0.01	1	0.974075666999852	1	64	NA	14.1169291739971	0	0.09	0.09	1	10.669486032999	11.6435616999988	"1"	33007.440500416	33005.269730974	1.5	0.1
0.01	1	0.770367037999677	1	64	NA	14.1169291739971	0	0.09	0.09	1	11.8715617279995	12.6419287659992	"1"	33007.440500416	33005.269730974	1.5	0.1
0.01	1	1.24212245300077	2	64	NA	14.1169291739971	0	0.09	0.09	1	12.8731269079981	14.1152493609989	"1"	33007.440500416	33005.269730974	1.5	0.1
0.01	1	1.79424498299704	1	68	NA	21.9011599149999	0	0.06	0.15	1	16.1620195089999	17.956264491997	"2"	33007.440500416	33005.269730974	1.5	0.1
0.01	1	0.773681365997618	1	68	NA	21.9011599149999	0	0.06	0.15	1	18.1821518830002	18.9558332489978	"2"	33007.440500416	33005.269730974	1.5	0.1
0.01	1	0.683365077999042	1	68	NA	21.9011599149999	0	0.06	0.15	1	19.1838273329995	19.8671924109985	"2"	33007.440500416	33005.269730974	1.5	0.1
0.01	1	0.333526259997598	1	68	NA	21.9011599149999	0	0.06	0.15	1	20.1020174799996	20.4355437399972	"2"	33007.440500416	33005.269730974	1.5	0.1
0.01	1	0.245442010000261	1	68	NA	21.9011599149999	0	0.06	0.15	1	20.6695907299982	20.9150327399984	"2"	33007.440500416	33005.269730974	1.5	0.1
0.01	1	0.379874459998973	1	68	NA	21.9011599149999	0	0.06	0.15	1	21.1370648880002	21.5169393479991	"2"	33007.440500416	33005.269730974	1.5	0.1
0.01	1	0.144561896002415	2	68	NA	21.9011599149999	0	0.06	0.15	1	21.754924558998	21.8994864550004	"2"	33007.440500416	33005.269730974	1.5	0.1
0.01	1	0.613298788000975	1	33	NA	28.6366986879984	0	0.16	0.31	1	23.9418901629979	24.5551889509989	"3"	33007.440500416	33005.269730974	1.5	0.1
0.01	1	0.00387189100001706	1	33	NA	28.6366986879984	0	0.16	0.31	1	24.7933477999977	24.7972196909977	"3"	33007.440500416	33005.269730974	1.5	0.1
0.01	1	0.00455203000092297	1	33	NA	28.6366986879984	0	0.16	0.31	1	25.0269439279982	25.0314959579991	"3"	33007.440500416	33005.269730974	1.5	0.1
0.01	1	0.103264630997728	1	33	NA	28.6366986879984	0	0.16	0.31	1	25.2607318699993	25.363996500997	"3"	33007.440500416	33005.269730974	1.5	0.1
0.01	1	0.00394189700091374	1	33	NA	28.6366986879984	0	0.16	0.31	1	25.5945994199974	25.5985413169983	"3"	33007.440500416	33005.269730974	1.5	0.1
0.01	1	0.0038858549996803	1	33	NA	28.6366986879984	0	0.16	0.31	1	25.8282560999978	25.8321419549975	"3"	33007.440500416	33005.269730974	1.5	0.1
0.01	1	0.110145818998717	1	33	NA	28.6366986879984	0	0.16	0.31	1	26.0620451379982	26.1721909569969	"3"	33007.440500416	33005.269730974	1.5	0.1
0.01	1	0.00383036499988521	1	33	NA	28.6366986879984	0	0.16	0.31	1	26.3959730999995	26.3998034649994	"3"	33007.440500416	33005.269730974	1.5	0.1
0.01	1	0.003937142999348	1	33	NA	28.6366986879984	0	0.16	0.31	1	26.6297216780004	26.6336588209997	"3"	33007.440500416	33005.269730974	1.5	0.1
0.01	1	0.00305243199909455	1	33	NA	28.6366986879984	0	0.16	0.31	1	26.8633351809985	26.8663876129976	"3"	33007.440500416	33005.269730974	1.5	0.1
0.01	1	0.00397359099952155	1	33	NA	28.6366986879984	0	0.16	0.31	1	27.097126659999	27.1011002509986	"3"	33007.440500416	33005.269730974	1.5	0.1
0.01	1	0.00452972499988391	1	33	NA	28.6366986879984	0	0.16	0.31	1	27.3308435979998	27.3353733229997	"3"	33007.440500416	33005.269730974	1.5	0.1
0.01	1	0.136061635002989	1	33	NA	28.6366986879984	0	0.16	0.31	1	27.564562755997	27.700624391	"3"	33007.440500416	33005.269730974	1.5	0.1
0.01	1	0.00346345300204121	1	33	NA	28.6366986879984	0	0.16	0.31	1	27.9319285079982	27.9353919610003	"3"	33007.440500416	33005.269730974	1.5	0.1
0.01	1	0.00464785000076517	1	33	NA	28.6366986879984	0	0.16	0.31	1	28.1655715579982	28.170219407999	"3"	33007.440500416	33005.269730974	1.5	0.1
0.01	1	0.00344705799943767	1	33	NA	28.6366986879984	0	0.16	0.31	1	28.3992890549998	28.4027361129993	"3"	33007.440500416	33005.269730974	1.5	0.1
0.01	1	0.00214305699773831	2	33	NA	28.6366986879984	0	0.16	0.31	1	28.6330183169994	28.6351613739971	"3"	33007.440500416	33005.269730974	1.5	0.1
0.01	1	0.421632827001304	1	105	NA	37.9729981229975	0	0.26	0.57	1	30.6697690529982	31.0914018799995	"4"	33007.440500416	33005.269730974	1.5	0.1
0.01	1	0.00396851599725778	1	105	NA	37.9729981229975	0	0.26	0.57	1	31.3209173830001	31.3248858989973	"4"	33007.440500416	33005.269730974	1.5	0.1
0.01	1	0.00458944999991218	1	105	NA	37.9729981229975	0	0.26	0.57	1	31.5547190830002	31.5593085330001	"4"	33007.440500416	33005.269730974	1.5	0.1
0.01	1	0.0486494310025591	1	105	NA	37.9729981229975	0	0.26	0.57	1	31.7882711629973	31.8369205939998	"4"	33007.440500416	33005.269730974	1.5	0.1
0.01	1	0.00392295900019235	1	105	NA	37.9729981229975	0	0.26	0.57	1	32.0720837179979	32.0760066769981	"4"	33007.440500416	33005.269730974	1.5	0.1
0.01	1	0.0900730660032423	1	105	NA	37.9729981229975	0	0.26	0.57	1	32.305836624997	32.3959096910003	"4"	33007.440500416	33005.269730974	1.5	0.1
0.01	1	0.0033494499984954	1	105	NA	37.9729981229975	0	0.26	0.57	1	32.6231694529997	32.6265189029982	"4"	33007.440500416	33005.269730974	1.5	0.1
0.01	1	0.0997149729992088	1	105	NA	37.9729981229975	0	0.26	0.57	1	32.8567377479994	32.9564527209986	"4"	33007.440500416	33005.269730974	1.5	0.1
0.01	1	0.00376138800129411	1	105	NA	37.9729981229975	0	0.26	0.57	1	33.190742204999	33.1945035930003	"4"	33007.440500416	33005.269730974	1.5	0.1
0.01	1	0.114609488002316	1	105	NA	37.9729981229975	0	0.26	0.57	1	33.4244871979972	33.5390966859995	"4"	33007.440500416	33005.269730974	1.5	0.1
0.01	1	0.00383709100060514	1	105	NA	37.9729981229975	0	0.26	0.57	1	33.7750141979996	33.7788512890002	"4"	33007.440500416	33005.269730974	1.5	0.1
0.01	1	0.106922312999814	1	105	NA	37.9729981229975	0	0.26	0.57	1	34.0087643299994	34.1156866429992	"4"	33007.440500416	33005.269730974	1.5	0.1
0.01	1	0.00326258800123469	1	105	NA	37.9729981229975	0	0.26	0.57	1	34.3427542409991	34.3460168290003	"4"	33007.440500416	33005.269730974	1.5	0.1
0.01	1	0.130850084002304	1	105	NA	37.9729981229975	0	0.26	0.57	1	34.5763269899981	34.7071770740004	"4"	33007.440500416	33005.269730974	1.5	0.1
0.01	1	0.0044362770022417	1	105	NA	37.9729981229975	0	0.26	0.57	1	34.9436178779979	34.9480541550001	"4"	33007.440500416	33005.269730974	1.5	0.1
0.01	1	0.090440325999225	1	105	NA	37.9729981229975	0	0.26	0.57	1	35.1773004229981	35.2677407489973	"4"	33007.440500416	33005.269730974	1.5	0.1
0.01	1	0.00396216499939328	1	105	NA	37.9729981229975	0	0.26	0.57	1	35.494693228	35.4986553929994	"4"	33007.440500416	33005.269730974	1.5	0.1
0.01	1	0.00384491599834291	1	105	NA	37.9729981229975	0	0.26	0.57	1	35.7282364450002	35.7320813609986	"4"	33007.440500416	33005.269730974	1.5	0.1
0.01	1	0.00370345699775498	1	105	NA	37.9729981229975	0	0.26	0.57	1	35.962069358	35.9657728149978	"4"	33007.440500416	33005.269730974	1.5	0.1
0.01	1	0.095619744999567	1	105	NA	37.9729981229975	0	0.26	0.57	1	36.1958001079984	36.2914198529979	"4"	33007.440500416	33005.269730974	1.5	0.1
0.01	1	0.0036060370002815	1	105	NA	37.9729981229975	0	0.26	0.57	1	36.5296723499996	36.5332783869999	"4"	33007.440500416	33005.269730974	1.5	0.1
0.01	1	0.00422426699878997	1	105	NA	37.9729981229975	0	0.26	0.57	1	36.7633663359993	36.7675906029981	"4"	33007.440500416	33005.269730974	1.5	0.1
0.01	1	0.00377376300093601	1	105	NA	37.9729981229975	0	0.26	0.57	1	36.9971979099973	37.0009716729983	"4"	33007.440500416	33005.269730974	1.5	0.1
0.01	1	0.00386953099950915	1	105	NA	37.9729981229975	0	0.26	0.57	1	37.2309548379999	37.2348243689994	"4"	33007.440500416	33005.269730974	1.5	0.1
0.01	1	0.00374578699847916	1	105	NA	37.9729981229975	0	0.26	0.57	1	37.464603037999	37.4683488249975	"4"	33007.440500416	33005.269730974	1.5	0.1
0.01	1	0.00461872500090976	1	105	NA	37.9729981229975	0	0.26	0.57	1	37.6983112729977	37.7029299979986	"4"	33007.440500416	33005.269730974	1.5	0.1
0.01	1	0.0393814300005033	2	105	NA	37.9729981229975	0	0.26	0.57	1	37.9319497779979	37.9713312079984	"4"	33007.440500416	33005.269730974	1.5	0.1
0.01	1	0.00257972899999004	1	73	NA	53.8216875399994	0	0.55	1.12	1	40.0187991450002	40.0213788740002	"5"	33007.440500416	33005.269730974	1.5	0.1
0.01	1	0.0795729459969152	1	73	NA	53.8216875399994	0	0.55	1.12	1	40.2525307920005	40.3321037379974	"5"	33007.440500416	33005.269730974	1.5	0.1
0.01	1	0.00462900699858437	1	73	NA	53.8216875399994	0	0.55	1.12	1	40.5697741229997	40.5744031299982	"5"	33007.440500416	33005.269730974	1.5	0.1
0.01	1	0.00457321999783744	1	73	NA	53.8216875399994	0	0.55	1.12	1	40.8035120929999	40.8080853129977	"5"	33007.440500416	33005.269730974	1.5	0.1
0.01	1	0.0045717799985141	1	73	NA	53.8216875399994	0	0.55	1.12	1	41.0372554329988	41.0418272129973	"5"	33007.440500416	33005.269730974	1.5	0.1
0.01	1	0.109444587000326	1	73	NA	53.8216875399994	0	0.55	1.12	1	41.2710038529985	41.3804484399989	"5"	33007.440500416	33005.269730974	1.5	0.1
0.01	1	0.00390418599999975	1	73	NA	53.8216875399994	0	0.55	1.12	1	41.6049002449981	41.6088044309981	"5"	33007.440500416	33005.269730974	1.5	0.1
0.01	1	0.00398497700007283	1	73	NA	53.8216875399994	0	0.55	1.12	1	41.8385541099997	41.8425390869997	"5"	33007.440500416	33005.269730974	1.5	0.1
0.01	1	0.00390410799809615	1	73	NA	53.8216875399994	0	0.55	1.12	1	42.0722782129997	42.0761823209978	"5"	33007.440500416	33005.269730974	1.5	0.1
0.01	1	0.00391712999771698	1	73	NA	53.8216875399994	0	0.55	1.12	1	42.3059735030001	42.3098906329978	"5"	33007.440500416	33005.269730974	1.5	0.1
0.01	1	0.00396580500091659	1	73	NA	53.8216875399994	0	0.55	1.12	1	42.5397395599975	42.5437053649985	"5"	33007.440500416	33005.269730974	1.5	0.1
0.01	1	0.00404010799684329	1	73	NA	53.8216875399994	0	0.55	1.12	1	42.7734721630004	42.7775122709972	"5"	33007.440500416	33005.269730974	1.5	0.1
0.01	1	0.00416537300043274	1	73	NA	53.8216875399994	0	0.55	1.12	1	43.0071309649975	43.0112963379979	"5"	33007.440500416	33005.269730974	1.5	0.1
0.01	1	0.00462470200000098	1	73	NA	53.8216875399994	0	0.55	1.12	1	43.2409995229973	43.2456242249973	"5"	33007.440500416	33005.269730974	1.5	0.1
0.01	1	0.00455693199910456	1	73	NA	53.8216875399994	0	0.55	1.12	1	43.4746541079985	43.4792110399976	"5"	33007.440500416	33005.269730974	1.5	0.1
0.01	1	0.00381606500013731	1	73	NA	53.8216875399994	0	0.55	1.12	1	43.7085111279994	43.7123271929995	"5"	33007.440500416	33005.269730974	1.5	0.1
0.01	1	0.110422147001373	1	73	NA	53.8216875399994	0	0.55	1.12	1	43.942190542999	44.0526126900004	"5"	33007.440500416	33005.269730974	1.5	0.1
0.01	1	0.00355680100255995	1	73	NA	53.8216875399994	0	0.55	1.12	1	44.2927265199978	44.2962833210004	"5"	33007.440500416	33005.269730974	1.5	0.1
0.01	1	0.00395496499913861	1	73	NA	53.8216875399994	0	0.55	1.12	1	44.5264641699978	44.5304191349969	"5"	33007.440500416	33005.269730974	1.5	0.1
0.01	1	0.107059115998709	1	73	NA	53.8216875399994	0	0.55	1.12	1	44.760207637999	44.8672667539977	"5"	33007.440500416	33005.269730974	1.5	0.1
0.01	1	0.00383240500013926	1	73	NA	53.8216875399994	0	0.55	1.12	1	45.0941009499984	45.0979333549985	"5"	33007.440500416	33005.269730974	1.5	0.1
0.01	1	0.00386613299997407	1	73	NA	53.8216875399994	0	0.55	1.12	1	45.3278358379976	45.3317019709975	"5"	33007.440500416	33005.269730974	1.5	0.1
0.01	1	0.00393443500070134	1	73	NA	53.8216875399994	0	0.55	1.12	1	45.5615312499976	45.5654656849983	"5"	33007.440500416	33005.269730974	1.5	0.1
0.01	1	0.00363013700189185	1	73	NA	53.8216875399994	0	0.55	1.12	1	45.7951282199974	45.7987583569993	"5"	33007.440500416	33005.269730974	1.5	0.1
0.01	1	0.0040395139985776	1	73	NA	53.8216875399994	0	0.55	1.12	1	46.028973602999	46.0330131169976	"5"	33007.440500416	33005.269730974	1.5	0.1
0.01	1	0.00378039099814487	1	73	NA	53.8216875399994	0	0.55	1.12	1	46.2626440179993	46.2664244089974	"5"	33007.440500416	33005.269730974	1.5	0.1
0.01	1	0.00374038099835161	1	73	NA	53.8216875399994	0	0.55	1.12	1	46.4963384399998	46.5000788209982	"5"	33007.440500416	33005.269730974	1.5	0.1
0.01	1	0.00378762299806112	1	73	NA	53.8216875399994	0	0.55	1.12	1	46.7301314180004	46.7339190409984	"5"	33007.440500416	33005.269730974	1.5	0.1
0.01	1	0.10511346599742	1	73	NA	53.8216875399994	0	0.55	1.12	1	46.9639066849995	47.0690201509969	"5"	33007.440500416	33005.269730974	1.5	0.1
0.01	1	0.00201521100098034	1	73	NA	53.8216875399994	0	0.55	1.12	1	47.2978398259984	47.2998550369994	"5"	33007.440500416	33005.269730974	1.5	0.1
0.01	1	0.12912897300339	1	73	NA	53.8216875399994	0	0.55	1.12	1	47.5314221079971	47.6605510810004	"5"	33007.440500416	33005.269730974	1.5	0.1
0.01	1	0.145905641002173	1	73	NA	53.8216875399994	0	0.55	1.12	1	47.8987388449968	48.044644485999	"5"	33007.440500416	33005.269730974	1.5	0.1
0.01	1	0.00460281499908888	1	73	NA	53.8216875399994	0	0.55	1.12	1	48.282727668	48.2873304829991	"5"	33007.440500416	33005.269730974	1.5	0.1
0.01	1	0.00396832900150912	1	73	NA	53.8216875399994	0	0.55	1.12	1	48.5164859279976	48.5204542569991	"5"	33007.440500416	33005.269730974	1.5	0.1
0.01	1	0.00391907000084757	1	73	NA	53.8216875399994	0	0.55	1.12	1	48.7502737629984	48.7541928329993	"5"	33007.440500416	33005.269730974	1.5	0.1
0.01	1	0.00369625700113829	1	73	NA	53.8216875399994	0	0.55	1.12	1	48.9839254699982	48.9876217269994	"5"	33007.440500416	33005.269730974	1.5	0.1
0.01	1	0.00316342199948849	1	73	NA	53.8216875399994	0	0.55	1.12	1	49.2177352969993	49.2208987189988	"5"	33007.440500416	33005.269730974	1.5	0.1
0.01	1	0.00390230499760946	1	73	NA	53.8216875399994	0	0.55	1.12	1	49.4513922080005	49.4552945129981	"5"	33007.440500416	33005.269730974	1.5	0.1
0.01	1	0.00455671500094468	1	73	NA	53.8216875399994	0	0.55	1.12	1	49.6850742529969	49.6896309679978	"5"	33007.440500416	33005.269730974	1.5	0.1
0.01	1	0.00448469999901135	1	73	NA	53.8216875399994	0	0.55	1.12	1	49.9189547079986	49.9234394079976	"5"	33007.440500416	33005.269730974	1.5	0.1
0.01	1	0.00361794999844278	1	73	NA	53.8216875399994	0	0.55	1.12	1	50.1524888749991	50.1561068249976	"5"	33007.440500416	33005.269730974	1.5	0.1
0.01	1	0.00366048899741145	1	73	NA	53.8216875399994	0	0.55	1.12	1	50.3862257330002	50.3898862219976	"5"	33007.440500416	33005.269730974	1.5	0.1
0.01	1	0.00303239799904986	1	73	NA	53.8216875399994	0	0.55	1.12	1	50.6200165429982	50.6230489409973	"5"	33007.440500416	33005.269730974	1.5	0.1
0.01	1	0.00395153700083029	1	73	NA	53.8216875399994	0	0.55	1.12	1	50.8537399499983	50.8576914869991	"5"	33007.440500416	33005.269730974	1.5	0.1
0.01	1	0.00328686799912248	1	73	NA	53.8216875399994	0	0.55	1.12	1	51.0875085730004	51.0907954409995	"5"	33007.440500416	33005.269730974	1.5	0.1
0.01	1	0.00386437300039688	1	73	NA	53.8216875399994	0	0.55	1.12	1	51.3212131099972	51.3250774829976	"5"	33007.440500416	33005.269730974	1.5	0.1
0.01	1	0.00206002699997043	1	73	NA	53.8216875399994	0	0.55	1.12	1	51.5548611249978	51.5569211519978	"5"	33007.440500416	33005.269730974	1.5	0.1
0.01	1	0.00326864199814736	1	73	NA	53.8216875399994	0	0.55	1.12	1	51.788627558999	51.7918962009971	"5"	33007.440500416	33005.269730974	1.5	0.1
0.01	1	0.0039756740006851	1	73	NA	53.8216875399994	0	0.55	1.12	1	52.0223684929988	52.0263441669995	"5"	33007.440500416	33005.269730974	1.5	0.1
0.01	1	0.00340179300110321	1	73	NA	53.8216875399994	0	0.55	1.12	1	52.2561692479976	52.2595710409987	"5"	33007.440500416	33005.269730974	1.5	0.1
0.01	1	0.00347283199880621	1	73	NA	53.8216875399994	0	0.55	1.12	1	52.4898811649982	52.493353996997	"5"	33007.440500416	33005.269730974	1.5	0.1
0.01	1	0.00447161200281698	1	73	NA	53.8216875399994	0	0.55	1.12	1	52.7236028009975	52.7280744130003	"5"	33007.440500416	33005.269730974	1.5	0.1
0.01	1	0.00371045800056891	1	73	NA	53.8216875399994	0	0.55	1.12	1	52.9572041029969	52.9609145609975	"5"	33007.440500416	33005.269730974	1.5	0.1
0.01	1	0.00433632699787267	1	73	NA	53.8216875399994	0	0.55	1.12	1	53.1910000009993	53.1953363279972	"5"	33007.440500416	33005.269730974	1.5	0.1
0.01	1	0.00377358200057643	1	73	NA	53.8216875399994	0	0.55	1.12	1	53.4247865629986	53.4285601449992	"5"	33007.440500416	33005.269730974	1.5	0.1
0.01	1	0.161645921001764	2	73	NA	53.8216875399994	0	0.55	1.12	1	53.6584596299981	53.8201055509999	"5"	33007.440500416	33005.269730974	1.5	0.1
0.01	1	0.00429543300197111	1	45	66.2494331599992	NA	1	0	1.12	1	55.8454298199977	55.8497252529996	"6"	33007.440500416	33005.269730974	1.5	0.1
0.01	1	0.00383539299946278	1	45	66.2494331599992	NA	1	0	1.12	1	56.0792457280004	56.0830811209999	"6"	33007.440500416	33005.269730974	1.5	0.1
0.01	1	0.00199604000226827	1	45	66.2494331599992	NA	1	0	1.12	1	56.3127713679969	56.3147674079992	"6"	33007.440500416	33005.269730974	1.5	0.1
0.01	1	0.00386972200067248	1	45	66.2494331599992	NA	1	0	1.12	1	56.546579034999	56.5504487569997	"6"	33007.440500416	33005.269730974	1.5	0.1
0.01	1	0.00389552799970261	1	45	66.2494331599992	NA	1	0	1.12	1	56.7804634629974	56.7843589909971	"6"	33007.440500416	33005.269730974	1.5	0.1
0.01	1	0.00380998200125759	1	45	66.2494331599992	NA	1	0	1.12	1	57.0140749329985	57.0178849149997	"6"	33007.440500416	33005.269730974	1.5	0.1
0.01	1	0.00319060599940713	1	45	66.2494331599992	NA	1	0	1.12	1	57.2478013809996	57.250991986999	"6"	33007.440500416	33005.269730974	1.5	0.1
0.01	1	0.00455999699988752	1	45	66.2494331599992	NA	1	0	1.12	1	57.4816003729975	57.4861603699974	"6"	33007.440500416	33005.269730974	1.5	0.1
0.01	1	0.00369866799883312	1	45	66.2494331599992	NA	1	0	1.12	1	57.7153526729999	57.7190513409987	"6"	33007.440500416	33005.269730974	1.5	0.1
0.01	1	0.00353986299887765	1	45	66.2494331599992	NA	1	0	1.12	1	57.9490227200004	57.9525625829992	"6"	33007.440500416	33005.269730974	1.5	0.1
0.01	1	0.00377913700140198	1	45	66.2494331599992	NA	1	0	1.12	1	58.1826549999969	58.1864341369983	"6"	33007.440500416	33005.269730974	1.5	0.1
0.01	1	0.00248215199826518	1	45	66.2494331599992	NA	1	0	1.12	1	58.4165500790004	58.4190322309987	"6"	33007.440500416	33005.269730974	1.5	0.1
0.01	1	0.00374654600091162	1	45	66.2494331599992	NA	1	0	1.12	1	58.6501523449988	58.6538988909997	"6"	33007.440500416	33005.269730974	1.5	0.1
0.01	1	0.00380061000032583	1	45	66.2494331599992	NA	1	0	1.12	1	58.8838737449987	58.887674354999	"6"	33007.440500416	33005.269730974	1.5	0.1
0.01	1	0.00373427000158699	1	45	66.2494331599992	NA	1	0	1.12	1	59.1176541229979	59.1213883929995	"6"	33007.440500416	33005.269730974	1.5	0.1
0.01	1	0.00372687900016899	1	45	66.2494331599992	NA	1	0	1.12	1	59.3513811679986	59.3551080469988	"6"	33007.440500416	33005.269730974	1.5	0.1
0.01	1	0.00363076299981913	1	45	66.2494331599992	NA	1	0	1.12	1	59.5850660979995	59.5886968609993	"6"	33007.440500416	33005.269730974	1.5	0.1
0.01	1	0.00326146400038851	1	45	66.2494331599992	NA	1	0	1.12	1	59.8188395129982	59.8221009769986	"6"	33007.440500416	33005.269730974	1.5	0.1
0.01	1	0.00398623099681572	1	45	66.2494331599992	NA	1	0	1.12	1	60.0525119800004	60.0564982109972	"6"	33007.440500416	33005.269730974	1.5	0.1
0.01	1	0.00380417400083388	1	45	66.2494331599992	NA	1	0	1.12	1	60.286240702997	60.2900448769979	"6"	33007.440500416	33005.269730974	1.5	0.1
0.01	1	0.00452528700043331	1	45	66.2494331599992	NA	1	0	1.12	1	60.5199478229988	60.5244731099992	"6"	33007.440500416	33005.269730974	1.5	0.1
0.01	1	0.00368403999891598	1	45	66.2494331599992	NA	1	0	1.12	1	60.7537543229992	60.7574383629981	"6"	33007.440500416	33005.269730974	1.5	0.1
0.01	1	0.00422315700052422	1	45	66.2494331599992	NA	1	0	1.12	1	60.9874345609969	60.9916577179974	"6"	33007.440500416	33005.269730974	1.5	0.1
0.01	1	0.00391053000203101	1	45	66.2494331599992	NA	1	0	1.12	1	61.2211937929969	61.225104322999	"6"	33007.440500416	33005.269730974	1.5	0.1
0.01	1	0.00394047400186537	1	45	66.2494331599992	NA	1	0	1.12	1	61.4548842529985	61.4588247270003	"6"	33007.440500416	33005.269730974	1.5	0.1
0.01	1	0.00336736900135293	1	45	66.2494331599992	NA	1	0	1.12	1	61.6885895979976	61.691956966999	"6"	33007.440500416	33005.269730974	1.5	0.1
0.01	1	0.00398077100180672	1	45	66.2494331599992	NA	1	0	1.12	1	61.9223528679977	61.9263336389995	"6"	33007.440500416	33005.269730974	1.5	0.1
0.01	1	0.00462776499989559	1	45	66.2494331599992	NA	1	0	1.12	1	62.1560909229993	62.1607186879992	"6"	33007.440500416	33005.269730974	1.5	0.1
0.01	1	0.00375947500288021	1	45	66.2494331599992	NA	1	0	1.12	1	62.3898999979974	62.3936594730003	"6"	33007.440500416	33005.269730974	1.5	0.1
0.01	1	0.00432637500125566	1	45	66.2494331599992	NA	1	0	1.12	1	62.6236387449972	62.6279651199984	"6"	33007.440500416	33005.269730974	1.5	0.1
0.01	1	0.00449522000053548	1	45	66.2494331599992	NA	1	0	1.12	1	62.857341652998	62.8618368729985	"6"	33007.440500416	33005.269730974	1.5	0.1
0.01	1	0.0036437719973037	1	45	66.2494331599992	NA	1	0	1.12	1	63.091047463	63.0946912349973	"6"	33007.440500416	33005.269730974	1.5	0.1
0.01	1	0.00388046000080067	1	45	66.2494331599992	NA	1	0	1.12	1	63.3247171049989	63.3285975649997	"6"	33007.440500416	33005.269730974	1.5	0.1
0.01	1	0.00400165500104777	1	45	66.2494331599992	NA	1	0	1.12	1	63.5585113799971	63.5625130349981	"6"	33007.440500416	33005.269730974	1.5	0.1
0.01	1	0.00395682599992142	1	45	66.2494331599992	NA	1	0	1.12	1	63.7921546049984	63.7961114309983	"6"	33007.440500416	33005.269730974	1.5	0.1
0.01	1	0.00345556600223063	1	45	66.2494331599992	NA	1	0	1.12	1	64.0258567729979	64.0293123390002	"6"	33007.440500416	33005.269730974	1.5	0.1
0.01	1	0.00447174200235168	1	45	66.2494331599992	NA	1	0	1.12	1	64.2596326209969	64.2641043629992	"6"	33007.440500416	33005.269730974	1.5	0.1
0.01	1	0.00390840299951378	1	45	66.2494331599992	NA	1	0	1.12	1	64.4932723279999	64.4971807309994	"6"	33007.440500416	33005.269730974	1.5	0.1
0.01	1	0.00385727899993071	1	45	66.2494331599992	NA	1	0	1.12	1	64.7270984280003	64.7309557070002	"6"	33007.440500416	33005.269730974	1.5	0.1
0.01	1	0.00387145099739428	1	45	66.2494331599992	NA	1	0	1.12	1	64.9607002299999	64.9645716809973	"6"	33007.440500416	33005.269730974	1.5	0.1
0.01	1	0.0035644029994728	1	45	66.2494331599992	NA	1	0	1.12	1	65.1944947299999	65.1980591329993	"6"	33007.440500416	33005.269730974	1.5	0.1
0.01	1	0.00451801700182841	1	45	66.2494331599992	NA	1	0	1.12	1	65.4284611279982	65.432979145	"6"	33007.440500416	33005.269730974	1.5	0.1
0.01	1	0.00428167099744314	1	45	66.2494331599992	NA	1	0	1.12	1	65.6619891390001	65.6662708099975	"6"	33007.440500416	33005.269730974	1.5	0.1
0.01	1	0.00372360899928026	1	45	66.2494331599992	NA	1	0	1.12	1	65.8957128799993	65.8994364889986	"6"	33007.440500416	33005.269730974	1.5	0.1
0.01	1	0.00330133199895499	1	45	66.2494331599992	NA	1	0	1.12	1	66.1294855029992	66.1327868349981	"6"	33007.440500416	33005.269730974	1.5	0.1
0.01	1	0.321483858999272	1	10	70.8237289479985	NA	1	0	1.12	1	68.2831432899984	68.6046271489977	"7"	33007.440500416	33005.269730974	1.5	0.1
0.01	1	0.00384295199910412	1	10	70.8237289479985	NA	1	0	1.12	1	68.834055932999	68.8378988849981	"7"	33007.440500416	33005.269730974	1.5	0.1
0.01	1	0.00454931999774999	1	10	70.8237289479985	NA	1	0	1.12	1	69.0677349729995	69.0722842929972	"7"	33007.440500416	33005.269730974	1.5	0.1
0.01	1	0.00334876799752237	1	10	70.8237289479985	NA	1	0	1.12	1	69.3015246249997	69.3048733929973	"7"	33007.440500416	33005.269730974	1.5	0.1
0.01	1	0.00372583200078225	1	10	70.8237289479985	NA	1	0	1.12	1	69.5351881149982	69.5389139469989	"7"	33007.440500416	33005.269730974	1.5	0.1
0.01	1	0.00398271100129932	1	10	70.8237289479985	NA	1	0	1.12	1	69.7688504999969	69.7728332109982	"7"	33007.440500416	33005.269730974	1.5	0.1
0.01	1	0.0045615299968631	1	10	70.8237289479985	NA	1	0	1.12	1	70.002778348	70.0073398779969	"7"	33007.440500416	33005.269730974	1.5	0.1
0.01	1	0.00222592700083624	1	10	70.8237289479985	NA	1	0	1.12	1	70.2364420449994	70.2386679720003	"7"	33007.440500416	33005.269730974	1.5	0.1
0.01	1	0.00205933399774949	1	10	70.8237289479985	NA	1	0	1.12	1	70.4700227079993	70.4720820419971	"7"	33007.440500416	33005.269730974	1.5	0.1
0.01	1	0.00328373199954513	1	10	70.8237289479985	NA	1	0	1.12	1	70.703806862999	70.7070905949986	"7"	33007.440500416	33005.269730974	1.5	0.1
0.01	1	0.329328194002301	1	37	NA	74.382233422999	0	0.05	1.17	1	72.8741285129981	73.2034567070004	"8"	33007.440500416	33005.269730974	1.5	0.1
0.01	1	0.00367712400111486	1	37	NA	74.382233422999	0	0.05	1.17	1	73.4417093249976	73.4453864489988	"8"	33007.440500416	33005.269730974	1.5	0.1
0.01	1	0.00393709400304942	1	37	NA	74.382233422999	0	0.05	1.17	1	73.6754861249974	73.6794232190005	"8"	33007.440500416	33005.269730974	1.5	0.1
0.01	1	0.00385371700031101	1	37	NA	74.382233422999	0	0.05	1.17	1	73.9093028079988	73.9131565249991	"8"	33007.440500416	33005.269730974	1.5	0.1
0.01	1	0.00349327799995081	1	37	NA	74.382233422999	0	0.05	1.17	1	74.1429101629983	74.1464034409983	"8"	33007.440500416	33005.269730974	1.5	0.1
0.01	1	0.00386310999965644	2	37	NA	74.382233422999	0	0.05	1.17	1	74.3765662529986	74.3804293629983	"8"	33007.440500416	33005.269730974	1.5	0.1
0.01	1	0.00382103899755748	1	108	NA	78.9899637449998	0	0.11	1.28	1	76.4134220779997	76.4172431169973	"9"	33007.440500416	33005.269730974	1.5	0.1
0.01	1	0.00378984900089563	1	108	NA	78.9899637449998	0	0.11	1.28	1	76.6470804399978	76.6508702889987	"9"	33007.440500416	33005.269730974	1.5	0.1
0.01	1	0.00371186200209195	1	108	NA	78.9899637449998	0	0.11	1.28	1	76.8808203829976	76.8845322449997	"9"	33007.440500416	33005.269730974	1.5	0.1
0.01	1	0.00385518099938054	1	108	NA	78.9899637449998	0	0.11	1.28	1	77.1145709379998	77.1184261189992	"9"	33007.440500416	33005.269730974	1.5	0.1
0.01	1	0.00452685200070846	1	108	NA	78.9899637449998	0	0.11	1.28	1	77.3482799579979	77.3528068099986	"9"	33007.440500416	33005.269730974	1.5	0.1
0.01	1	0.00387618400054635	1	108	NA	78.9899637449998	0	0.11	1.28	1	77.582058224998	77.5859344089986	"9"	33007.440500416	33005.269730974	1.5	0.1
0.01	1	0.00231828200048767	1	108	NA	78.9899637449998	0	0.11	1.28	1	77.8158262809993	77.8181445629998	"9"	33007.440500416	33005.269730974	1.5	0.1
0.01	1	0.00249102100133314	1	108	NA	78.9899637449998	0	0.11	1.28	1	78.0494679109979	78.0519589319993	"9"	33007.440500416	33005.269730974	1.5	0.1
0.01	1	0.00386248799986788	1	108	NA	78.9899637449998	0	0.11	1.28	1	78.2832364850001	78.287098973	"9"	33007.440500416	33005.269730974	1.5	0.1
0.01	1	0.00382828299916582	1	108	NA	78.9899637449998	0	0.11	1.28	1	78.5169380099978	78.520766292997	"9"	33007.440500416	33005.269730974	1.5	0.1
0.01	1	0.00454100299975835	1	108	NA	78.9899637449998	0	0.11	1.28	1	78.7507106619996	78.7552516649994	"9"	33007.440500416	33005.269730974	1.5	0.1
0.01	1	0.00370808799925726	2	108	NA	78.9899637449998	0	0.11	1.28	1	78.9844277049997	78.9881357929989	"9"	33007.440500416	33005.269730974	1.5	0.1
0.01	1	0.102696009998908	1	18	85.2311824129974	NA	1	0	1.28	1	81.0378987080003	81.1405947179992	"10"	33007.440500416	33005.269730974	1.5	0.1
0.01	1	0.00394593300006818	1	18	85.2311824129974	NA	1	0	1.28	1	81.3718022779976	81.3757482109977	"10"	33007.440500416	33005.269730974	1.5	0.1
0.01	1	0.00457957999969949	1	18	85.2311824129974	NA	1	0	1.28	1	81.6054633979984	81.6100429779981	"10"	33007.440500416	33005.269730974	1.5	0.1
0.01	1	0.00387973400211195	1	18	85.2311824129974	NA	1	0	1.28	1	81.8392442029981	81.8431239370002	"10"	33007.440500416	33005.269730974	1.5	0.1
0.01	1	0.00343651000002865	1	18	85.2311824129974	NA	1	0	1.28	1	82.0729210449972	82.0763575549972	"10"	33007.440500416	33005.269730974	1.5	0.1
0.01	1	0.00387318800130743	1	18	85.2311824129974	NA	1	0	1.28	1	82.3065924349976	82.3104656229989	"10"	33007.440500416	33005.269730974	1.5	0.1
0.01	1	0.0045631949978997	1	18	85.2311824129974	NA	1	0	1.28	1	82.5403598279991	82.544923022997	"10"	33007.440500416	33005.269730974	1.5	0.1
0.01	1	0.00370839500101283	1	18	85.2311824129974	NA	1	0	1.28	1	82.7740792379991	82.7777876330001	"10"	33007.440500416	33005.269730974	1.5	0.1
0.01	1	0.00348377400223399	1	18	85.2311824129974	NA	1	0	1.28	1	83.0077384129982	83.0112221870004	"10"	33007.440500416	33005.269730974	1.5	0.1
0.01	1	0.00339810299919918	1	18	85.2311824129974	NA	1	0	1.28	1	83.2415507199985	83.2449488229977	"10"	33007.440500416	33005.269730974	1.5	0.1
0.01	1	0.00376881999909529	1	18	85.2311824129974	NA	1	0	1.28	1	83.4752513329986	83.4790201529977	"10"	33007.440500416	33005.269730974	1.5	0.1
0.01	1	0.0038591330012423	1	18	85.2311824129974	NA	1	0	1.28	1	83.7090420799977	83.712901212999	"10"	33007.440500416	33005.269730974	1.5	0.1
0.01	1	0.00427856299938867	1	18	85.2311824129974	NA	1	0	1.28	1	83.9427344249998	83.9470129879992	"10"	33007.440500416	33005.269730974	1.5	0.1
0.01	1	0.00342125599854626	1	18	85.2311824129974	NA	1	0	1.28	1	84.1764855129986	84.1799067689972	"10"	33007.440500416	33005.269730974	1.5	0.1
0.01	1	0.00369450600192067	1	18	85.2311824129974	NA	1	0	1.28	1	84.4101128849979	84.4138073909999	"10"	33007.440500416	33005.269730974	1.5	0.1
0.01	1	0.00432034999903408	1	18	85.2311824129974	NA	1	0	1.28	1	84.6439629999986	84.6482833499977	"10"	33007.440500416	33005.269730974	1.5	0.1
0.01	1	0.00381238499903702	1	18	85.2311824129974	NA	1	0	1.28	1	84.8776837799996	84.8814961649987	"10"	33007.440500416	33005.269730974	1.5	0.1
0.01	1	0.00369010100257583	1	18	85.2311824129974	NA	1	0	1.28	1	85.1113285279971	85.1150186289997	"10"	33007.440500416	33005.269730974	1.5	0.1
0.01	1	0.00380355299785151	1	2	87.6186935929982	NA	1	0	1.28	1	87.2650914299993	87.2688949829972	"11"	33007.440500416	33005.269730974	1.5	0.1
0.01	1	0.00378022099903319	1	2	87.6186935929982	NA	1	0	1.28	1	87.4987083999986	87.5024886209976	"11"	33007.440500416	33005.269730974	1.5	0.1
0.01	1	0.214829951000866	1	107	NA	91.2771767909981	0	0.06	1.34	1	89.6523933629978	89.8672233139987	"12"	33007.440500416	33005.269730974	1.5	0.1
0.01	1	0.00375240900029894	1	107	NA	91.2771767909981	0	0.06	1.34	1	90.1031593579974	90.1069117669977	"12"	33007.440500416	33005.269730974	1.5	0.1
0.01	1	0.00372990100004245	1	107	NA	91.2771767909981	0	0.06	1.34	1	90.3368994999983	90.3406294009983	"12"	33007.440500416	33005.269730974	1.5	0.1
0.01	1	0.00329944999975851	1	107	NA	91.2771767909981	0	0.06	1.34	1	90.5705312049977	90.5738306549974	"12"	33007.440500416	33005.269730974	1.5	0.1
0.01	1	0.00348510299954796	1	107	NA	91.2771767909981	0	0.06	1.34	1	90.8043340900003	90.8078191929999	"12"	33007.440500416	33005.269730974	1.5	0.1
0.01	1	0.0038708329993824	1	107	NA	91.2771767909981	0	0.06	1.34	1	91.0379776779992	91.0418485109985	"12"	33007.440500416	33005.269730974	1.5	0.1
0.01	1	0.00368202900062897	2	107	NA	91.2771767909981	0	0.06	1.34	1	91.2716868899988	91.2753689189994	"12"	33007.440500416	33005.269730974	1.5	0.1
0.01	1	0.487227409998013	1	119	NA	98.2567473879972	0	0.19	1.53	1	93.3251641749994	93.8123915849974	"13"	33007.440500416	33005.269730974	1.5	0.1
0.01	1	0.00458824999805074	1	119	NA	98.2567473879972	0	0.19	1.53	1	94.043185298	94.0477735479981	"13"	33007.440500416	33005.269730974	1.5	0.1
0.01	1	0.00399086099787382	1	119	NA	98.2567473879972	0	0.19	1.53	1	94.2768483479995	94.2808392089973	"13"	33007.440500416	33005.269730974	1.5	0.1
0.01	1	0.00452989699988393	1	119	NA	98.2567473879972	0	0.19	1.53	1	94.5104971729997	94.5150270699996	"13"	33007.440500416	33005.269730974	1.5	0.1
0.01	1	0.00457662500048173	1	119	NA	98.2567473879972	0	0.19	1.53	1	94.7442113379984	94.7487879629989	"13"	33007.440500416	33005.269730974	1.5	0.1
0.01	1	0.00392201199792908	1	119	NA	98.2567473879972	0	0.19	1.53	1	94.9779239529998	94.9818459649978	"13"	33007.440500416	33005.269730974	1.5	0.1
0.01	1	0.00363018999996711	1	119	NA	98.2567473879972	0	0.19	1.53	1	95.2117558829996	95.2153860729995	"13"	33007.440500416	33005.269730974	1.5	0.1
0.01	1	0.00330635499994969	1	119	NA	98.2567473879972	0	0.19	1.53	1	95.4454067599981	95.4487131149981	"13"	33007.440500416	33005.269730974	1.5	0.1
0.01	1	0.00384776899954886	1	119	NA	98.2567473879972	0	0.19	1.53	1	95.6790993699979	95.6829471389974	"13"	33007.440500416	33005.269730974	1.5	0.1
0.01	1	0.00354183200033731	1	119	NA	98.2567473879972	0	0.19	1.53	1	95.9127817849985	95.9163236169989	"13"	33007.440500416	33005.269730974	1.5	0.1
0.01	1	0.00397242699909839	1	119	NA	98.2567473879972	0	0.19	1.53	1	96.1465941099996	96.1505665369987	"13"	33007.440500416	33005.269730974	1.5	0.1
0.01	1	0.00334975499936263	1	119	NA	98.2567473879972	0	0.19	1.53	1	96.3803027180002	96.3836524729995	"13"	33007.440500416	33005.269730974	1.5	0.1
0.01	1	0.00381053700039047	1	119	NA	98.2567473879972	0	0.19	1.53	1	96.6140733799984	96.6178839169988	"13"	33007.440500416	33005.269730974	1.5	0.1
0.01	1	0.00330360200314317	1	119	NA	98.2567473879972	0	0.19	1.53	1	96.8478632089973	96.8511668110004	"13"	33007.440500416	33005.269730974	1.5	0.1
0.01	1	0.00350312099908479	1	119	NA	98.2567473879972	0	0.19	1.53	1	97.0815407099981	97.0850438309972	"13"	33007.440500416	33005.269730974	1.5	0.1
0.01	1	0.00384698299967567	1	119	NA	98.2567473879972	0	0.19	1.53	1	97.3151654379981	97.3190124209978	"13"	33007.440500416	33005.269730974	1.5	0.1
0.01	1	0.00372631299978821	1	119	NA	98.2567473879972	0	0.19	1.53	1	97.5489092979988	97.5526356109985	"13"	33007.440500416	33005.269730974	1.5	0.1
0.01	1	0.00455276000138838	1	119	NA	98.2567473879972	0	0.19	1.53	1	97.7826475129987	97.7872002730001	"13"	33007.440500416	33005.269730974	1.5	0.1
0.01	1	0.00451712499852874	1	119	NA	98.2567473879972	0	0.19	1.53	1	98.0164066479992	98.0209237729978	"13"	33007.440500416	33005.269730974	1.5	0.1
0.01	1	0.00460925699735526	2	119	NA	98.2567473879972	0	0.19	1.53	1	98.2502154329995	98.2548246899969	"13"	33007.440500416	33005.269730974	1.5	0.1
0.01	1	0.467607377999229	1	71	NA	111.061392057996	0	0.44	1.97	1	100.303594128	100.771201505999	"14"	33007.440500416	33005.269730974	1.5	0.1
0.01	1	0.00375389299733797	1	71	NA	111.061392057996	0	0.44	1.97	1	101.00471741	101.008471302997	"14"	33007.440500416	33005.269730974	1.5	0.1
0.01	1	0.00356326100154547	1	71	NA	111.061392057996	0	0.44	1.97	1	101.238549348	101.242112609001	"14"	33007.440500416	33005.269730974	1.5	0.1
0.01	1	0.00386800300475443	1	71	NA	111.061392057996	0	0.44	1.97	1	101.472205807997	101.476073811002	"14"	33007.440500416	33005.269730974	1.5	0.1
0.01	1	0.00375335299759172	1	71	NA	111.061392057996	0	0.44	1.97	1	101.705936087998	101.709689440995	"14"	33007.440500416	33005.269730974	1.5	0.1
0.01	1	0.00385490799817489	1	71	NA	111.061392057996	0	0.44	1.97	1	101.939643173002	101.943498081	"14"	33007.440500416	33005.269730974	1.5	0.1
0.01	1	0.00366395300079603	1	71	NA	111.061392057996	0	0.44	1.97	1	102.173417900001	102.177081853002	"14"	33007.440500416	33005.269730974	1.5	0.1
0.01	1	0.00386981300107436	1	71	NA	111.061392057996	0	0.44	1.97	1	102.407074359999	102.410944173	"14"	33007.440500416	33005.269730974	1.5	0.1
0.01	1	0.00326574000064284	1	71	NA	111.061392057996	0	0.44	1.97	1	102.640913298997	102.644179038998	"14"	33007.440500416	33005.269730974	1.5	0.1
0.01	1	0.00394484100252157	1	71	NA	111.061392057996	0	0.44	1.97	1	102.874584499998	102.878529341	"14"	33007.440500416	33005.269730974	1.5	0.1
0.01	1	0.00376767600391759	1	71	NA	111.061392057996	0	0.44	1.97	1	103.108330232997	103.112097909001	"14"	33007.440500416	33005.269730974	1.5	0.1
0.01	1	0.00394073400093475	1	71	NA	111.061392057996	0	0.44	1.97	1	103.341998902997	103.345939636998	"14"	33007.440500416	33005.269730974	1.5	0.1
0.01	1	0.00449360499624163	1	71	NA	111.061392057996	0	0.44	1.97	1	103.575954208001	103.580447812998	"14"	33007.440500416	33005.269730974	1.5	0.1
0.01	1	0.00330896999366814	1	71	NA	111.061392057996	0	0.44	1.97	1	103.809464925002	103.812773894995	"14"	33007.440500416	33005.269730974	1.5	0.1
0.01	1	0.0037475990029634	1	71	NA	111.061392057996	0	0.44	1.97	1	104.043210939995	104.046958538998	"14"	33007.440500416	33005.269730974	1.5	0.1
0.01	1	0.0037455769997905	1	71	NA	111.061392057996	0	0.44	1.97	1	104.276854690001	104.280600267	"14"	33007.440500416	33005.269730974	1.5	0.1
0.01	1	0.00457661499967799	1	71	NA	111.061392057996	0	0.44	1.97	1	104.510766443	104.515343057999	"14"	33007.440500416	33005.269730974	1.5	0.1
0.01	1	0.00380833300005179	1	71	NA	111.061392057996	0	0.44	1.97	1	104.744447299996	104.748255632996	"14"	33007.440500416	33005.269730974	1.5	0.1
0.01	1	0.00332908099517226	1	71	NA	111.061392057996	0	0.44	1.97	1	104.978129348001	104.981458428996	"14"	33007.440500416	33005.269730974	1.5	0.1
0.01	1	0.00358032900112448	1	71	NA	111.061392057996	0	0.44	1.97	1	105.21170466	105.215284989001	"14"	33007.440500416	33005.269730974	1.5	0.1
0.01	1	0.0039545330000692	1	71	NA	111.061392057996	0	0.44	1.97	1	105.445517919998	105.449472452998	"14"	33007.440500416	33005.269730974	1.5	0.1
0.01	1	0.0044492849992821	1	71	NA	111.061392057996	0	0.44	1.97	1	105.679265167997	105.683714452996	"14"	33007.440500416	33005.269730974	1.5	0.1
0.01	1	0.00313359600113472	1	71	NA	111.061392057996	0	0.44	1.97	1	105.912927096997	105.916060692998	"14"	33007.440500416	33005.269730974	1.5	0.1
0.01	1	0.00395546999789076	1	71	NA	111.061392057996	0	0.44	1.97	1	106.146706623	106.150662092998	"14"	33007.440500416	33005.269730974	1.5	0.1
0.01	1	0.00390598599915393	1	71	NA	111.061392057996	0	0.44	1.97	1	106.380461422999	106.384367408999	"14"	33007.440500416	33005.269730974	1.5	0.1
0.01	1	0.00387487600528402	1	71	NA	111.061392057996	0	0.44	1.97	1	106.614186302995	106.618061179001	"14"	33007.440500416	33005.269730974	1.5	0.1
0.01	1	0.00381026299874065	1	71	NA	111.061392057996	0	0.44	1.97	1	106.847989858001	106.851800121	"14"	33007.440500416	33005.269730974	1.5	0.1
0.01	1	0.00325136000174098	1	71	NA	111.061392057996	0	0.44	1.97	1	107.081645640999	107.084897001001	"14"	33007.440500416	33005.269730974	1.5	0.1
0.01	1	0.00348804199893493	1	71	NA	111.061392057996	0	0.44	1.97	1	107.315431754996	107.318919796995	"14"	33007.440500416	33005.269730974	1.5	0.1
0.01	1	0.00392946400097571	1	71	NA	111.061392057996	0	0.44	1.97	1	107.549193513001	107.553122977002	"14"	33007.440500416	33005.269730974	1.5	0.1
0.01	1	0.00398504500481067	1	71	NA	111.061392057996	0	0.44	1.97	1	107.782801487996	107.786786533001	"14"	33007.440500416	33005.269730974	1.5	0.1
0.01	1	0.00380963300267467	1	71	NA	111.061392057996	0	0.44	1.97	1	108.016528397999	108.020338031001	"14"	33007.440500416	33005.269730974	1.5	0.1
0.01	1	0.00345951000053901	1	71	NA	111.061392057996	0	0.44	1.97	1	108.250279292999	108.253738803	"14"	33007.440500416	33005.269730974	1.5	0.1
0.01	1	0.00382589799846755	1	71	NA	111.061392057996	0	0.44	1.97	1	108.484046002999	108.487871900998	"14"	33007.440500416	33005.269730974	1.5	0.1
0.01	1	0.00453975700656883	1	71	NA	111.061392057996	0	0.44	1.97	1	108.717810467995	108.722350225002	"14"	33007.440500416	33005.269730974	1.5	0.1
0.01	1	0.00444994700228563	1	71	NA	111.061392057996	0	0.44	1.97	1	108.951486772999	108.955936720002	"14"	33007.440500416	33005.269730974	1.5	0.1
0.01	1	0.00369792299898108	1	71	NA	111.061392057996	0	0.44	1.97	1	109.185168947999	109.188866870998	"14"	33007.440500416	33005.269730974	1.5	0.1
0.01	1	0.00350609599991003	1	71	NA	111.061392057996	0	0.44	1.97	1	109.418992702998	109.422498798998	"14"	33007.440500416	33005.269730974	1.5	0.1
0.01	1	0.00344717100233538	1	71	NA	111.061392057996	0	0.44	1.97	1	109.652696169996	109.656143340999	"14"	33007.440500416	33005.269730974	1.5	0.1
0.01	1	0.00453972999821417	1	71	NA	111.061392057996	0	0.44	1.97	1	109.886487157997	109.891026887995	"14"	33007.440500416	33005.269730974	1.5	0.1
0.01	1	0.00379977600096026	1	71	NA	111.061392057996	0	0.44	1.97	1	110.120074802999	110.123874579	"14"	33007.440500416	33005.269730974	1.5	0.1
0.01	1	0.00322106599924155	1	71	NA	111.061392057996	0	0.44	1.97	1	110.353863884997	110.357084950996	"14"	33007.440500416	33005.269730974	1.5	0.1
0.01	1	0.00377860799926566	1	71	NA	111.061392057996	0	0.44	1.97	1	110.587550002998	110.591328610997	"14"	33007.440500416	33005.269730974	1.5	0.1
0.01	1	0.00380770899937488	1	71	NA	111.061392057996	0	0.44	1.97	1	110.821339027996	110.825146736996	"14"	33007.440500416	33005.269730974	1.5	0.1
0.01	1	0.00453887999901781	2	71	NA	111.061392057996	0	0.44	1.97	1	111.054930372997	111.059469252996	"14"	33007.440500416	33005.269730974	1.5	0.1
0.01	1	0.240265053995245	1	32	120.692019517996	NA	1	0	1.97	1	113.091681228001	113.331946281996	"15"	33007.440500416	33005.269730974	1.5	0.1
0.01	1	0.00393940699723316	1	32	120.692019517996	NA	1	0	1.97	1	113.559177799998	113.563117206995	"15"	33007.440500416	33005.269730974	1.5	0.1
0.01	1	0.00393837599403923	1	32	120.692019517996	NA	1	0	1.97	1	113.792935173002	113.796873548996	"15"	33007.440500416	33005.269730974	1.5	0.1
0.01	1	0.00330160999874352	1	32	120.692019517996	NA	1	0	1.97	1	114.026713743002	114.030015353001	"15"	33007.440500416	33005.269730974	1.5	0.1
0.01	1	0.00387851200503064	1	32	120.692019517996	NA	1	0	1.97	1	114.260397502996	114.264276015001	"15"	33007.440500416	33005.269730974	1.5	0.1
0.01	1	0.00461599499976728	1	32	120.692019517996	NA	1	0	1.97	1	114.494093527999	114.498709522999	"15"	33007.440500416	33005.269730974	1.5	0.1
0.01	1	0.00385265699878801	1	32	120.692019517996	NA	1	0	1.97	1	114.727876239998	114.731728896997	"15"	33007.440500416	33005.269730974	1.5	0.1
0.01	1	0.00444824999431148	1	32	120.692019517996	NA	1	0	1.97	1	114.961560248001	114.966008497995	"15"	33007.440500416	33005.269730974	1.5	0.1
0.01	1	0.00341503600066062	1	32	120.692019517996	NA	1	0	1.97	1	115.195335542998	115.198750578998	"15"	33007.440500416	33005.269730974	1.5	0.1
0.01	1	0.00334292199841002	1	32	120.692019517996	NA	1	0	1.97	1	115.428962893002	115.432305815	"15"	33007.440500416	33005.269730974	1.5	0.1
0.01	1	0.0038815110019641	1	32	120.692019517996	NA	1	0	1.97	1	115.66283361	115.666715121002	"15"	33007.440500416	33005.269730974	1.5	0.1
0.01	1	0.00386934500420466	1	32	120.692019517996	NA	1	0	1.97	1	115.896427019998	115.900296365002	"15"	33007.440500416	33005.269730974	1.5	0.1
0.01	1	0.00365106700337492	1	32	120.692019517996	NA	1	0	1.97	1	116.130174247995	116.133825314999	"15"	33007.440500416	33005.269730974	1.5	0.1
0.01	1	0.00327139999717474	1	32	120.692019517996	NA	1	0	1.97	1	116.363949101	116.367220500997	"15"	33007.440500416	33005.269730974	1.5	0.1
0.01	1	0.00377517900051316	1	32	120.692019517996	NA	1	0	1.97	1	116.597604207996	116.601379386997	"15"	33007.440500416	33005.269730974	1.5	0.1
0.01	1	0.00455541699921014	1	32	120.692019517996	NA	1	0	1.97	1	116.831388843002	116.835944260001	"15"	33007.440500416	33005.269730974	1.5	0.1
0.01	1	0.00387736099946778	1	32	120.692019517996	NA	1	0	1.97	1	117.065082737998	117.068960098997	"15"	33007.440500416	33005.269730974	1.5	0.1
0.01	1	0.00403298300079769	1	32	120.692019517996	NA	1	0	1.97	1	117.298866499998	117.302899482998	"15"	33007.440500416	33005.269730974	1.5	0.1
0.01	1	0.00356997099879663	1	32	120.692019517996	NA	1	0	1.97	1	117.532607637997	117.536177608996	"15"	33007.440500416	33005.269730974	1.5	0.1
0.01	1	0.00386449199868366	1	32	120.692019517996	NA	1	0	1.97	1	117.766249482996	117.770113974995	"15"	33007.440500416	33005.269730974	1.5	0.1
0.01	1	0.00393320900184335	1	32	120.692019517996	NA	1	0	1.97	1	117.999974067996	118.003907276998	"15"	33007.440500416	33005.269730974	1.5	0.1
0.01	1	0.003923248994397	1	32	120.692019517996	NA	1	0	1.97	1	118.233705130002	118.237628378996	"15"	33007.440500416	33005.269730974	1.5	0.1
0.01	1	0.00327978600398637	1	32	120.692019517996	NA	1	0	1.97	1	118.467392128998	118.470671915002	"15"	33007.440500416	33005.269730974	1.5	0.1
0.01	1	0.00350974499451695	1	32	120.692019517996	NA	1	0	1.97	1	118.701372398002	118.704882142996	"15"	33007.440500416	33005.269730974	1.5	0.1
0.01	1	0.00396821400499903	1	32	120.692019517996	NA	1	0	1.97	1	118.934958242997	118.938926457002	"15"	33007.440500416	33005.269730974	1.5	0.1
0.01	1	0.0039236489974428	1	32	120.692019517996	NA	1	0	1.97	1	119.168666009999	119.172589658996	"15"	33007.440500416	33005.269730974	1.5	0.1
0.01	1	0.0045356519985944	1	32	120.692019517996	NA	1	0	1.97	1	119.402485467999	119.407021119998	"15"	33007.440500416	33005.269730974	1.5	0.1
0.01	1	0.00201371000002837	1	32	120.692019517996	NA	1	0	1.97	1	119.636152488001	119.638166198001	"15"	33007.440500416	33005.269730974	1.5	0.1
0.01	1	0.00355315000342671	1	32	120.692019517996	NA	1	0	1.97	1	119.869863862998	119.873417013001	"15"	33007.440500416	33005.269730974	1.5	0.1
0.01	1	0.00374622800154611	1	32	120.692019517996	NA	1	0	1.97	1	120.103647282998	120.107393511	"15"	33007.440500416	33005.269730974	1.5	0.1
0.01	1	0.00454071499552811	1	32	120.692019517996	NA	1	0	1.97	1	120.337319203001	120.341859917997	"15"	33007.440500416	33005.269730974	1.5	0.1
0.01	1	0.00327571700472618	1	32	120.692019517996	NA	1	0	1.97	1	120.570933877996	120.574209595001	"15"	33007.440500416	33005.269730974	1.5	0.1
0.01	1	0.0223847029992612	1	7	124.26275962	NA	1	0	1.97	1	122.724638987998	122.747023690998	"16"	33007.440500416	33005.269730974	1.5	0.1
0.01	1	0.0038079169971752	1	7	124.26275962	NA	1	0	1.97	1	122.975091028002	122.978898944999	"16"	33007.440500416	33005.269730974	1.5	0.1
0.01	1	0.0039588180006831	1	7	124.26275962	NA	1	0	1.97	1	123.208723405001	123.212682223002	"16"	33007.440500416	33005.269730974	1.5	0.1
0.01	1	0.00282093499845359	1	7	124.26275962	NA	1	0	1.97	1	123.442524007001	123.445344942	"16"	33007.440500416	33005.269730974	1.5	0.1
0.01	1	0.00242803799483227	1	7	124.26275962	NA	1	0	1.97	1	123.676202603001	123.678630640996	"16"	33007.440500416	33005.269730974	1.5	0.1
0.01	1	0.00396098099736264	1	7	124.26275962	NA	1	0	1.97	1	123.909985189999	123.913946170996	"16"	33007.440500416	33005.269730974	1.5	0.1
0.01	1	0.00377191400184529	1	7	124.26275962	NA	1	0	1.97	1	124.143670923	124.147442837002	"16"	33007.440500416	33005.269730974	1.5	0.1
0.01	1	0.00399341899901628	1	49	NA	130.742917744999	0	0.19	2.16	1	126.297343679998	126.301337098997	"17"	33007.440500416	33005.269730974	1.5	0.1
0.01	1	0.0038236809996306	1	49	NA	130.742917744999	0	0.19	2.16	1	126.530997207996	126.534820888995	"17"	33007.440500416	33005.269730974	1.5	0.1
0.01	1	0.00329039799544262	1	49	NA	130.742917744999	0	0.19	2.16	1	126.764705607002	126.767996004997	"17"	33007.440500416	33005.269730974	1.5	0.1
0.01	1	0.00379473000066355	1	49	NA	130.742917744999	0	0.19	2.16	1	126.998465672998	127.002260402998	"17"	33007.440500416	33005.269730974	1.5	0.1
0.01	1	0.00458708000223851	1	49	NA	130.742917744999	0	0.19	2.16	1	127.232157037997	127.236744117999	"17"	33007.440500416	33005.269730974	1.5	0.1
0.01	1	0.00455883500399068	1	49	NA	130.742917744999	0	0.19	2.16	1	127.465878957995	127.470437792999	"17"	33007.440500416	33005.269730974	1.5	0.1
0.01	1	0.00383701299870154	1	49	NA	130.742917744999	0	0.19	2.16	1	127.699717198	127.703554210999	"17"	33007.440500416	33005.269730974	1.5	0.1
0.01	1	0.00334622800437501	1	49	NA	130.742917744999	0	0.19	2.16	1	127.933360392995	127.936706621	"17"	33007.440500416	33005.269730974	1.5	0.1
0.01	1	0.00344690299971262	1	49	NA	130.742917744999	0	0.19	2.16	1	128.167033797999	128.170480700999	"17"	33007.440500416	33005.269730974	1.5	0.1
0.01	1	0.00384429499536054	1	49	NA	130.742917744999	0	0.19	2.16	1	128.400788488001	128.404632782996	"17"	33007.440500416	33005.269730974	1.5	0.1
0.01	1	0.00445909900008701	1	49	NA	130.742917744999	0	0.19	2.16	1	128.634582449002	128.639041548002	"17"	33007.440500416	33005.269730974	1.5	0.1
0.01	1	0.00395795400254428	1	49	NA	130.742917744999	0	0.19	2.16	1	128.868426842997	128.872384797	"17"	33007.440500416	33005.269730974	1.5	0.1
0.01	1	0.0035161329942639	1	49	NA	130.742917744999	0	0.19	2.16	1	129.101973590001	129.105489722995	"17"	33007.440500416	33005.269730974	1.5	0.1
0.01	1	0.00379986299958546	1	49	NA	130.742917744999	0	0.19	2.16	1	129.335732878	129.339532741	"17"	33007.440500416	33005.269730974	1.5	0.1
0.01	1	0.00389887599885697	1	49	NA	130.742917744999	0	0.19	2.16	1	129.569539323002	129.573438199001	"17"	33007.440500416	33005.269730974	1.5	0.1
0.01	1	0.00426842299930286	1	49	NA	130.742917744999	0	0.19	2.16	1	129.803246102001	129.807514525	"17"	33007.440500416	33005.269730974	1.5	0.1
0.01	1	0.00454855000134557	1	49	NA	130.742917744999	0	0.19	2.16	1	130.036985928	130.041534478001	"17"	33007.440500416	33005.269730974	1.5	0.1
0.01	1	0.00363997599924915	1	49	NA	130.742917744999	0	0.19	2.16	1	130.270578633001	130.274218609	"17"	33007.440500416	33005.269730974	1.5	0.1
0.01	1	0.00367715299944393	1	49	NA	130.742917744999	0	0.19	2.16	1	130.504338390001	130.508015543001	"17"	33007.440500416	33005.269730974	1.5	0.1
0.01	1	0.00314587399770971	2	49	NA	130.742917744999	0	0.19	2.16	1	130.738040585002	130.741186458999	"17"	33007.440500416	33005.269730974	1.5	0.1
0.01	1	0.556686807001824	1	17	137.185311667996	NA	1	0	2.16	1	132.774817652997	133.331504459999	"18"	33007.440500416	33005.269730974	1.5	0.1
0.01	1	0.00369228400086286	1	17	137.185311667996	NA	1	0	2.16	1	133.559543863001	133.563236147002	"18"	33007.440500416	33005.269730974	1.5	0.1
0.01	1	0.00397072800114984	1	17	137.185311667996	NA	1	0	2.16	1	133.793300904999	133.797271633	"18"	33007.440500416	33005.269730974	1.5	0.1
0.01	1	0.00388310499693034	1	17	137.185311667996	NA	1	0	2.16	1	134.026891648002	134.030774752999	"18"	33007.440500416	33005.269730974	1.5	0.1
0.01	1	0.00373804900300456	1	17	137.185311667996	NA	1	0	2.16	1	134.260715877997	134.264453927	"18"	33007.440500416	33005.269730974	1.5	0.1
0.01	1	0.00395474000106333	1	17	137.185311667996	NA	1	0	2.16	1	134.494479612997	134.498434352998	"18"	33007.440500416	33005.269730974	1.5	0.1
0.01	1	0.00369409999984782	1	17	137.185311667996	NA	1	0	2.16	1	134.728130282998	134.731824382998	"18"	33007.440500416	33005.269730974	1.5	0.1
0.01	1	0.00233760199625976	1	17	137.185311667996	NA	1	0	2.16	1	134.961819155	134.964156756996	"18"	33007.440500416	33005.269730974	1.5	0.1
0.01	1	0.00335225600429112	1	17	137.185311667996	NA	1	0	2.16	1	135.195546954998	135.198899211002	"18"	33007.440500416	33005.269730974	1.5	0.1
0.01	1	0.003821190999588	1	17	137.185311667996	NA	1	0	2.16	1	135.429322009997	135.433143200997	"18"	33007.440500416	33005.269730974	1.5	0.1
0.01	1	0.00364362599793822	1	17	137.185311667996	NA	1	0	2.16	1	135.663136154999	135.666779780997	"18"	33007.440500416	33005.269730974	1.5	0.1
0.01	1	0.00339763399824733	1	17	137.185311667996	NA	1	0	2.16	1	135.896735373	135.900133006999	"18"	33007.440500416	33005.269730974	1.5	0.1
0.01	1	0.00330073599616298	1	17	137.185311667996	NA	1	0	2.16	1	136.130483133002	136.133783868998	"18"	33007.440500416	33005.269730974	1.5	0.1
0.01	1	0.00390284700552002	1	17	137.185311667996	NA	1	0	2.16	1	136.364193977995	136.368096825001	"18"	33007.440500416	33005.269730974	1.5	0.1
0.01	1	0.0037489039968932	1	17	137.185311667996	NA	1	0	2.16	1	136.597896283001	136.601645186998	"18"	33007.440500416	33005.269730974	1.5	0.1
0.01	1	0.00382532300136518	1	17	137.185311667996	NA	1	0	2.16	1	136.831746519998	136.835571842999	"18"	33007.440500416	33005.269730974	1.5	0.1
0.01	1	0.00375933900068048	1	17	137.185311667996	NA	1	0	2.16	1	137.065393458	137.069152797001	"18"	33007.440500416	33005.269730974	1.5	0.1
0.01	1	0.0327388160003466	1	20	NA	143.590033689998	0	0.12	2.28	1	139.219037018	139.251775834	"19"	33007.440500416	33005.269730974	1.5	0.1
0.01	1	0.00461482199898455	1	20	NA	143.590033689998	0	0.12	2.28	1	139.486154998001	139.49076982	"19"	33007.440500416	33005.269730974	1.5	0.1
0.01	1	0.00454161499510519	1	20	NA	143.590033689998	0	0.12	2.28	1	139.719915398	139.724457012995	"19"	33007.440500416	33005.269730974	1.5	0.1
0.01	1	0.00388046100124484	1	20	NA	143.590033689998	0	0.12	2.28	1	139.953609608001	139.957490069002	"19"	33007.440500416	33005.269730974	1.5	0.1
0.01	1	0.00362573099846486	1	20	NA	143.590033689998	0	0.12	2.28	1	140.18730039	140.190926120998	"19"	33007.440500416	33005.269730974	1.5	0.1
0.01	1	0.00476771999819903	1	20	NA	143.590033689998	0	0.12	2.28	1	140.421047567997	140.425815287996	"19"	33007.440500416	33005.269730974	1.5	0.1
0.01	1	0.00383400300052017	1	20	NA	143.590033689998	0	0.12	2.28	1	140.65479212	140.658626123	"19"	33007.440500416	33005.269730974	1.5	0.1
0.01	1	0.00401783800043631	1	20	NA	143.590033689998	0	0.12	2.28	1	140.888460933002	140.892478771002	"19"	33007.440500416	33005.269730974	1.5	0.1
0.01	1	0.00386968000384513	1	20	NA	143.590033689998	0	0.12	2.28	1	141.122132722998	141.126002403002	"19"	33007.440500416	33005.269730974	1.5	0.1
0.01	1	0.00326139399840031	1	20	NA	143.590033689998	0	0.12	2.28	1	141.355919354999	141.359180748997	"19"	33007.440500416	33005.269730974	1.5	0.1
0.01	1	0.00377996899624122	1	20	NA	143.590033689998	0	0.12	2.28	1	141.58963513	141.593415098996	"19"	33007.440500416	33005.269730974	1.5	0.1
0.01	1	0.00199730099848239	1	20	NA	143.590033689998	0	0.12	2.28	1	141.823449908999	141.825447209998	"19"	33007.440500416	33005.269730974	1.5	0.1
0.01	1	1.53131737500371	2	20	NA	143.590033689998	0	0.12	2.28	1	142.057179847998	143.588497223001	"19"	33007.440500416	33005.269730974	1.5	0.1
0.01	1	0.00339227199583547	1	21	150.441584434997	NA	1	0	2.28	1	145.646567041	145.649959312996	"20"	33007.440500416	33005.269730974	1.5	0.1
0.01	1	0.00381119499797933	1	21	150.441584434997	NA	1	0	2.28	1	145.880204288002	145.884015483	"20"	33007.440500416	33005.269730974	1.5	0.1
0.01	1	0.00375239300046815	1	21	150.441584434997	NA	1	0	2.28	1	146.113946638001	146.117699031001	"20"	33007.440500416	33005.269730974	1.5	0.1
0.01	1	0.00436286599870073	1	21	150.441584434997	NA	1	0	2.28	1	146.347737212	146.352100077998	"20"	33007.440500416	33005.269730974	1.5	0.1
0.01	1	0.00456312199821696	1	21	150.441584434997	NA	1	0	2.28	1	146.581449982998	146.586013104996	"20"	33007.440500416	33005.269730974	1.5	0.1
0.01	1	0.00365125999815064	1	21	150.441584434997	NA	1	0	2.28	1	146.815090772998	146.818742032996	"20"	33007.440500416	33005.269730974	1.5	0.1
0.01	1	0.00383916900318582	1	21	150.441584434997	NA	1	0	2.28	1	147.048915989999	147.052755159002	"20"	33007.440500416	33005.269730974	1.5	0.1
0.01	1	0.00463219499943079	1	21	150.441584434997	NA	1	0	2.28	1	147.282633293002	147.287265488001	"20"	33007.440500416	33005.269730974	1.5	0.1
0.01	1	0.00338006799574941	1	21	150.441584434997	NA	1	0	2.28	1	147.516345353	147.519725420996	"20"	33007.440500416	33005.269730974	1.5	0.1
0.01	1	0.00376752100419253	1	21	150.441584434997	NA	1	0	2.28	1	147.749982557998	147.753750079002	"20"	33007.440500416	33005.269730974	1.5	0.1
0.01	1	0.00396435499715153	1	21	150.441584434997	NA	1	0	2.28	1	147.983857269999	147.987821624996	"20"	33007.440500416	33005.269730974	1.5	0.1
0.01	1	0.00384075100009795	1	21	150.441584434997	NA	1	0	2.28	1	148.217448710002	148.221289461002	"20"	33007.440500416	33005.269730974	1.5	0.1
0.01	1	0.00442507499974454	1	21	150.441584434997	NA	1	0	2.28	1	148.451294064998	148.455719139998	"20"	33007.440500416	33005.269730974	1.5	0.1
0.01	1	0.00333174799743574	1	21	150.441584434997	NA	1	0	2.28	1	148.684846273001	148.688178020999	"20"	33007.440500416	33005.269730974	1.5	0.1
0.01	1	0.00329592000343837	1	21	150.441584434997	NA	1	0	2.28	1	148.918720592996	148.922016512999	"20"	33007.440500416	33005.269730974	1.5	0.1
0.01	1	0.00456932499946561	1	21	150.441584434997	NA	1	0	2.28	1	149.152329378001	149.156898703	"20"	33007.440500416	33005.269730974	1.5	0.1
0.01	1	0.00388455099891871	1	21	150.441584434997	NA	1	0	2.28	1	149.386039128	149.389923678998	"20"	33007.440500416	33005.269730974	1.5	0.1
0.01	1	0.00319221799873048	1	21	150.441584434997	NA	1	0	2.28	1	149.619882912997	149.623075130996	"20"	33007.440500416	33005.269730974	1.5	0.1
0.01	1	0.00338877800095361	1	21	150.441584434997	NA	1	0	2.28	1	149.853609212998	149.856997990999	"20"	33007.440500416	33005.269730974	1.5	0.1
0.01	1	0.00214777200017124	1	21	150.441584434997	NA	1	0	2.28	1	150.087335897002	150.089483669002	"20"	33007.440500416	33005.269730974	1.5	0.1
0.01	1	0.00379565700131934	1	21	150.441584434997	NA	1	0	2.28	1	150.32107563	150.324871287001	"20"	33007.440500416	33005.269730974	1.5	0.1
0.01	1	0.00458318999881158	1	26	NA	159.492101538995	0	0.18	2.46	1	152.491392893	152.495976082999	"21"	33007.440500416	33005.269730974	1.5	0.1
0.01	1	0.00371965500380611	1	26	NA	159.492101538995	0	0.18	2.46	1	152.725095537997	152.728815193001	"21"	33007.440500416	33005.269730974	1.5	0.1
0.01	1	0.00354168700141599	1	26	NA	159.492101538995	0	0.18	2.46	1	152.958765389998	152.962307076999	"21"	33007.440500416	33005.269730974	1.5	0.1
0.01	1	0.0038392590067815	1	26	NA	159.492101538995	0	0.18	2.46	1	153.192473007995	153.196312267002	"21"	33007.440500416	33005.269730974	1.5	0.1
0.01	1	0.00383727400185307	1	26	NA	159.492101538995	0	0.18	2.46	1	153.426276062997	153.430113336999	"21"	33007.440500416	33005.269730974	1.5	0.1
0.01	1	0.00383477199648041	1	26	NA	159.492101538995	0	0.18	2.46	1	153.659904705	153.663739476997	"21"	33007.440500416	33005.269730974	1.5	0.1
0.01	1	0.00369895299809286	1	26	NA	159.492101538995	0	0.18	2.46	1	153.89367799	153.897376942998	"21"	33007.440500416	33005.269730974	1.5	0.1
0.01	1	0.00405275999946753	1	26	NA	159.492101538995	0	0.18	2.46	1	154.127444182999	154.131496942999	"21"	33007.440500416	33005.269730974	1.5	0.1
0.01	1	0.00415260199952172	1	26	NA	159.492101538995	0	0.18	2.46	1	154.361097475998	154.365250077997	"21"	33007.440500416	33005.269730974	1.5	0.1
0.01	1	0.00371396099944832	1	26	NA	159.492101538995	0	0.18	2.46	1	154.594893648002	154.598607609001	"21"	33007.440500416	33005.269730974	1.5	0.1
0.01	1	0.00327154600381618	1	26	NA	159.492101538995	0	0.18	2.46	1	154.828592894995	154.831864440999	"21"	33007.440500416	33005.269730974	1.5	0.1
0.01	1	0.00377619000209961	1	26	NA	159.492101538995	0	0.18	2.46	1	155.062281862996	155.066058052998	"21"	33007.440500416	33005.269730974	1.5	0.1
0.01	1	0.00397331199928885	1	26	NA	159.492101538995	0	0.18	2.46	1	155.296084083002	155.300057395001	"21"	33007.440500416	33005.269730974	1.5	0.1
0.01	1	0.00375321500177961	1	26	NA	159.492101538995	0	0.18	2.46	1	155.529834498	155.533587713002	"21"	33007.440500416	33005.269730974	1.5	0.1
0.01	1	0.00434942200081423	1	26	NA	159.492101538995	0	0.18	2.46	1	155.763555782996	155.767905204997	"21"	33007.440500416	33005.269730974	1.5	0.1
0.01	1	2.78334941899811	1	26	NA	159.492101538995	0	0.18	2.46	1	155.997197200002	158.780546619	"21"	33007.440500416	33005.269730974	1.5	0.1
0.01	1	0.0038385760053643	1	26	NA	159.492101538995	0	0.18	2.46	1	159.019013224995	159.022851801001	"21"	33007.440500416	33005.269730974	1.5	0.1
0.01	1	0.00390986199636245	1	26	NA	159.492101538995	0	0.18	2.46	1	159.252738384999	159.256648246996	"21"	33007.440500416	33005.269730974	1.5	0.1
0.01	1	0.00384358600422274	2	26	NA	159.492101538995	0	0.18	2.46	1	159.486452372996	159.490295959	"21"	33007.440500416	33005.269730974	1.5	0.1
0.01	1	0.00436867099779192	1	97	191.610170112999	NA	1	0	2.46	1	161.539920542	161.544289212998	"22"	33007.440500416	33005.269730974	1.5	0.1
0.01	1	0.0025319810010842	1	97	191.610170112999	NA	1	0	2.46	1	161.773677438996	161.776209419997	"22"	33007.440500416	33005.269730974	1.5	0.1
0.01	1	0.00208947699866258	1	97	191.610170112999	NA	1	0	2.46	1	162.007372591997	162.009462068996	"22"	33007.440500416	33005.269730974	1.5	0.1
0.01	1	0.00397804800013546	1	97	191.610170112999	NA	1	0	2.46	1	162.241067034996	162.245045082997	"22"	33007.440500416	33005.269730974	1.5	0.1
0.01	1	0.0038893199962331	1	97	191.610170112999	NA	1	0	2.46	1	162.474723053001	162.478612372997	"22"	33007.440500416	33005.269730974	1.5	0.1
0.01	1	0.00416890899941791	1	97	191.610170112999	NA	1	0	2.46	1	162.708583632	162.712752541	"22"	33007.440500416	33005.269730974	1.5	0.1
0.01	1	0.00332106399582699	1	97	191.610170112999	NA	1	0	2.46	1	162.942217239	162.945538302996	"22"	33007.440500416	33005.269730974	1.5	0.1
0.01	1	0.00365421299648006	1	97	191.610170112999	NA	1	0	2.46	1	163.175975287999	163.179629500995	"22"	33007.440500416	33005.269730974	1.5	0.1
0.01	1	0.00396591199387331	1	97	191.610170112999	NA	1	0	2.46	1	163.409737345002	163.413703256996	"22"	33007.440500416	33005.269730974	1.5	0.1
0.01	1	0.00454853200062644	1	97	191.610170112999	NA	1	0	2.46	1	163.643408332999	163.647956864999	"22"	33007.440500416	33005.269730974	1.5	0.1
0.01	1	0.00330126400513109	1	97	191.610170112999	NA	1	0	2.46	1	163.877204898996	163.880506163001	"22"	33007.440500416	33005.269730974	1.5	0.1
0.01	1	0.00347216299996944	1	97	191.610170112999	NA	1	0	2.46	1	164.110865829996	164.114337992996	"22"	33007.440500416	33005.269730974	1.5	0.1
0.01	1	0.00390632000198821	1	97	191.610170112999	NA	1	0	2.46	1	164.344631272998	164.348537592999	"22"	33007.440500416	33005.269730974	1.5	0.1
0.01	1	0.00342258599994238	1	97	191.610170112999	NA	1	0	2.46	1	164.578314265	164.581736851	"22"	33007.440500416	33005.269730974	1.5	0.1
0.01	1	0.00396181600081036	1	97	191.610170112999	NA	1	0	2.46	1	164.812089723	164.816051539001	"22"	33007.440500416	33005.269730974	1.5	0.1
0.01	1	3.86269132199959	1	97	191.610170112999	NA	1	0	2.46	1	165.045735539996	168.908426861995	"22"	33007.440500416	33005.269730974	1.5	0.1
0.01	1	0.00385717400058638	1	97	191.610170112999	NA	1	0	2.46	1	169.135923272999	169.139780447	"22"	33007.440500416	33005.269730974	1.5	0.1
0.01	1	0.00392615299642785	1	97	191.610170112999	NA	1	0	2.46	1	169.369789749999	169.373715902995	"22"	33007.440500416	33005.269730974	1.5	0.1
0.01	1	0.00453399500111118	1	97	191.610170112999	NA	1	0	2.46	1	169.603467977995	169.608001972996	"22"	33007.440500416	33005.269730974	1.5	0.1
0.01	1	0.00222509400191484	1	97	191.610170112999	NA	1	0	2.46	1	169.837141745	169.839366839002	"22"	33007.440500416	33005.269730974	1.5	0.1
0.01	1	0.00202581899793586	1	97	191.610170112999	NA	1	0	2.46	1	170.070822368001	170.072848186999	"22"	33007.440500416	33005.269730974	1.5	0.1
0.01	1	0.00458856999466661	1	97	191.610170112999	NA	1	0	2.46	1	170.304779998001	170.309368567996	"22"	33007.440500416	33005.269730974	1.5	0.1
0.01	1	0.00392363100399962	1	97	191.610170112999	NA	1	0	2.46	1	170.538426709998	170.542350341002	"22"	33007.440500416	33005.269730974	1.5	0.1
0.01	1	0.00336682600027416	1	97	191.610170112999	NA	1	0	2.46	1	170.772147670996	170.775514496996	"22"	33007.440500416	33005.269730974	1.5	0.1
0.01	1	0.00365394099935656	1	97	191.610170112999	NA	1	0	2.46	1	171.005900057997	171.009553998996	"22"	33007.440500416	33005.269730974	1.5	0.1
0.01	1	0.00395791499613551	1	97	191.610170112999	NA	1	0	2.46	1	171.239506260001	171.243464174997	"22"	33007.440500416	33005.269730974	1.5	0.1
0.01	1	0.0045833819967811	1	97	191.610170112999	NA	1	0	2.46	1	171.473192558002	171.477775939999	"22"	33007.440500416	33005.269730974	1.5	0.1
0.01	1	0.00346872299996903	1	97	191.610170112999	NA	1	0	2.46	1	171.707048269996	171.710516992996	"22"	33007.440500416	33005.269730974	1.5	0.1
0.01	1	0.00348049099557102	1	97	191.610170112999	NA	1	0	2.46	1	171.940728988	171.944209478996	"22"	33007.440500416	33005.269730974	1.5	0.1
0.01	1	0.00441713200416416	1	97	191.610170112999	NA	1	0	2.46	1	172.174420107996	172.178837240001	"22"	33007.440500416	33005.269730974	1.5	0.1
0.01	1	0.00381414799630875	1	97	191.610170112999	NA	1	0	2.46	1	172.408263173002	172.412077320998	"22"	33007.440500416	33005.269730974	1.5	0.1
0.01	1	0.00334075799764832	1	97	191.610170112999	NA	1	0	2.46	1	172.641977431002	172.645318188999	"22"	33007.440500416	33005.269730974	1.5	0.1
0.01	1	0.00334640999790281	1	97	191.610170112999	NA	1	0	2.46	1	172.875591795	172.878938204998	"22"	33007.440500416	33005.269730974	1.5	0.1
0.01	1	0.00395687700074632	1	97	191.610170112999	NA	1	0	2.46	1	173.109374568001	173.113331445002	"22"	33007.440500416	33005.269730974	1.5	0.1
0.01	1	0.00384388299426064	1	97	191.610170112999	NA	1	0	2.46	1	173.343017110001	173.346860992995	"22"	33007.440500416	33005.269730974	1.5	0.1
0.01	1	0.00393524300307035	1	97	191.610170112999	NA	1	0	2.46	1	173.576801437997	173.580736681	"22"	33007.440500416	33005.269730974	1.5	0.1
0.01	1	0.00461570199695416	1	97	191.610170112999	NA	1	0	2.46	1	173.810546322999	173.815162024996	"22"	33007.440500416	33005.269730974	1.5	0.1
0.01	1	0.00372936899657361	1	97	191.610170112999	NA	1	0	2.46	1	174.044244569999	174.047973938996	"22"	33007.440500416	33005.269730974	1.5	0.1
0.01	1	1.03131636200123	1	97	191.610170112999	NA	1	0	2.46	1	174.277951064996	175.309267426997	"22"	33007.440500416	33005.269730974	1.5	0.1
0.01	1	0.00383193499874324	1	97	191.610170112999	NA	1	0	2.46	1	175.546783549999	175.550615484997	"22"	33007.440500416	33005.269730974	1.5	0.1
0.01	1	0.00389508499938529	1	97	191.610170112999	NA	1	0	2.46	1	175.780551137996	175.784446222995	"22"	33007.440500416	33005.269730974	1.5	0.1
0.01	1	0.00331480800377904	1	97	191.610170112999	NA	1	0	2.46	1	176.014270848998	176.017585657002	"22"	33007.440500416	33005.269730974	1.5	0.1
0.01	1	0.00210456700006034	1	97	191.610170112999	NA	1	0	2.46	1	176.247997130999	176.250101697999	"22"	33007.440500416	33005.269730974	1.5	0.1
0.01	1	0.00398905500333058	1	97	191.610170112999	NA	1	0	2.46	1	176.481721317996	176.485710372999	"22"	33007.440500416	33005.269730974	1.5	0.1
0.01	1	0.00373102699813899	1	97	191.610170112999	NA	1	0	2.46	1	176.715406610001	176.719137636999	"22"	33007.440500416	33005.269730974	1.5	0.1
0.01	1	0.00389946799987229	1	97	191.610170112999	NA	1	0	2.46	1	176.949192044998	176.953091512998	"22"	33007.440500416	33005.269730974	1.5	0.1
0.01	1	0.00397995299863396	1	97	191.610170112999	NA	1	0	2.46	1	177.182828818	177.186808770999	"22"	33007.440500416	33005.269730974	1.5	0.1
0.01	1	0.00343774700013455	1	97	191.610170112999	NA	1	0	2.46	1	177.416636109996	177.420073856996	"22"	33007.440500416	33005.269730974	1.5	0.1
0.01	1	0.00394737200258533	1	97	191.610170112999	NA	1	0	2.46	1	177.650205714996	177.654153086998	"22"	33007.440500416	33005.269730974	1.5	0.1
0.01	1	0.00457143500534585	1	97	191.610170112999	NA	1	0	2.46	1	177.884121647996	177.888693083001	"22"	33007.440500416	33005.269730974	1.5	0.1
0.01	1	0.00380213800235651	1	97	191.610170112999	NA	1	0	2.46	1	178.117775313	178.121577451002	"22"	33007.440500416	33005.269730974	1.5	0.1
0.01	1	0.00330440000107046	1	97	191.610170112999	NA	1	0	2.46	1	178.351461902999	178.354766303	"22"	33007.440500416	33005.269730974	1.5	0.1
0.01	1	0.00381228899641428	1	97	191.610170112999	NA	1	0	2.46	1	178.5853322	178.589144488997	"22"	33007.440500416	33005.269730974	1.5	0.1
0.01	1	0.00404214699665317	1	97	191.610170112999	NA	1	0	2.46	1	178.818940740002	178.822982886999	"22"	33007.440500416	33005.269730974	1.5	0.1
0.01	1	0.00387531000160379	1	97	191.610170112999	NA	1	0	2.46	1	179.052711832996	179.056587142997	"22"	33007.440500416	33005.269730974	1.5	0.1
0.01	1	0.00458023499959381	1	97	191.610170112999	NA	1	0	2.46	1	179.286426672999	179.291006907999	"22"	33007.440500416	33005.269730974	1.5	0.1
0.01	1	0.0039710790006211	1	97	191.610170112999	NA	1	0	2.46	1	179.520194018001	179.524165097002	"22"	33007.440500416	33005.269730974	1.5	0.1
0.01	1	0.00388938900141511	1	97	191.610170112999	NA	1	0	2.46	1	179.753807427998	179.757696817	"22"	33007.440500416	33005.269730974	1.5	0.1
0.01	1	0.00365788800263545	1	97	191.610170112999	NA	1	0	2.46	1	179.987519494996	179.991177382999	"22"	33007.440500416	33005.269730974	1.5	0.1
0.01	1	0.00369318899902282	1	97	191.610170112999	NA	1	0	2.46	1	180.221283089999	180.224976278998	"22"	33007.440500416	33005.269730974	1.5	0.1
0.01	1	0.00341709699569037	1	97	191.610170112999	NA	1	0	2.46	1	180.455042550002	180.458459646998	"22"	33007.440500416	33005.269730974	1.5	0.1
0.01	1	0.00331910599925322	1	97	191.610170112999	NA	1	0	2.46	1	180.688860140999	180.692179246998	"22"	33007.440500416	33005.269730974	1.5	0.1
0.01	1	0.00328016599814873	1	97	191.610170112999	NA	1	0	2.46	1	180.922528751002	180.925808917	"22"	33007.440500416	33005.269730974	1.5	0.1
0.01	1	0.00387649299955228	1	97	191.610170112999	NA	1	0	2.46	1	181.156255598002	181.160132091001	"22"	33007.440500416	33005.269730974	1.5	0.1
0.01	1	0.00383658699865919	1	97	191.610170112999	NA	1	0	2.46	1	181.390016189998	181.393852776997	"22"	33007.440500416	33005.269730974	1.5	0.1
0.01	1	0.00381128799926955	1	97	191.610170112999	NA	1	0	2.46	1	181.623681943001	181.627493231001	"22"	33007.440500416	33005.269730974	1.5	0.1
0.01	1	0.00351403999957256	1	97	191.610170112999	NA	1	0	2.46	1	181.857306943002	181.860820983002	"22"	33007.440500416	33005.269730974	1.5	0.1
0.01	1	0.00460897500306601	1	97	191.610170112999	NA	1	0	2.46	1	182.091234702999	182.095843678002	"22"	33007.440500416	33005.269730974	1.5	0.1
0.01	1	0.00374185500550084	1	97	191.610170112999	NA	1	0	2.46	1	182.324872167996	182.328614023001	"22"	33007.440500416	33005.269730974	1.5	0.1
0.01	1	0.00323897000635043	1	97	191.610170112999	NA	1	0	2.46	1	182.558605992996	182.561844963002	"22"	33007.440500416	33005.269730974	1.5	0.1
0.01	1	0.00454692199855344	1	97	191.610170112999	NA	1	0	2.46	1	182.792329558	182.796876479999	"22"	33007.440500416	33005.269730974	1.5	0.1
0.01	1	0.00368396900012158	1	97	191.610170112999	NA	1	0	2.46	1	183.025992879997	183.029676848997	"22"	33007.440500416	33005.269730974	1.5	0.1
0.01	1	0.00400577299296856	1	97	191.610170112999	NA	1	0	2.46	1	183.259806140002	183.263811912995	"22"	33007.440500416	33005.269730974	1.5	0.1
0.01	1	2.62260305299424	1	97	191.610170112999	NA	1	0	2.46	1	183.493501223002	186.116104275996	"22"	33007.440500416	33005.269730974	1.5	0.1
0.01	1	0.0037589499988826	1	97	191.610170112999	NA	1	0	2.46	1	186.348274982996	186.352033932995	"22"	33007.440500416	33005.269730974	1.5	0.1
0.01	1	0.00427590199979022	1	97	191.610170112999	NA	1	0	2.46	1	186.581960827996	186.586236729996	"22"	33007.440500416	33005.269730974	1.5	0.1
0.01	1	0.00330090000352357	1	97	191.610170112999	NA	1	0	2.46	1	186.815767552998	186.819068453002	"22"	33007.440500416	33005.269730974	1.5	0.1
0.01	1	0.00367434300278546	1	97	191.610170112999	NA	1	0	2.46	1	187.049393649995	187.053067992998	"22"	33007.440500416	33005.269730974	1.5	0.1
0.01	1	0.00385253499553073	1	97	191.610170112999	NA	1	0	2.46	1	187.283197590001	187.287050124996	"22"	33007.440500416	33005.269730974	1.5	0.1
0.01	1	0.0036260340057197	1	97	191.610170112999	NA	1	0	2.46	1	187.516968884996	187.520594919002	"22"	33007.440500416	33005.269730974	1.5	0.1
0.01	1	0.00394885599962436	1	97	191.610170112999	NA	1	0	2.46	1	187.750669145	187.754618000999	"22"	33007.440500416	33005.269730974	1.5	0.1
0.01	1	0.00350697800604394	1	97	191.610170112999	NA	1	0	2.46	1	187.984349092996	187.987856071002	"22"	33007.440500416	33005.269730974	1.5	0.1
0.01	1	0.00385745699895779	1	97	191.610170112999	NA	1	0	2.46	1	188.218111929997	188.221969386996	"22"	33007.440500416	33005.269730974	1.5	0.1
0.01	1	0.00397739900654415	1	97	191.610170112999	NA	1	0	2.46	1	188.451866219995	188.455843619002	"22"	33007.440500416	33005.269730974	1.5	0.1
0.01	1	0.00371995799650904	1	97	191.610170112999	NA	1	0	2.46	1	188.685478472999	188.689198430995	"22"	33007.440500416	33005.269730974	1.5	0.1
0.01	1	0.00430684100138023	1	97	191.610170112999	NA	1	0	2.46	1	188.919331158995	188.923637999997	"22"	33007.440500416	33005.269730974	1.5	0.1
0.01	1	0.00399418000597507	1	97	191.610170112999	NA	1	0	2.46	1	189.153122522996	189.157116703002	"22"	33007.440500416	33005.269730974	1.5	0.1
0.01	1	0.00384364699857542	1	97	191.610170112999	NA	1	0	2.46	1	189.386756438002	189.390600085	"22"	33007.440500416	33005.269730974	1.5	0.1
0.01	1	0.00392319099773886	1	97	191.610170112999	NA	1	0	2.46	1	189.620492008002	189.624415198999	"22"	33007.440500416	33005.269730974	1.5	0.1
0.01	1	0.00451782700110925	1	97	191.610170112999	NA	1	0	2.46	1	189.854300802999	189.85881863	"22"	33007.440500416	33005.269730974	1.5	0.1
0.01	1	0.00322060599864926	1	97	191.610170112999	NA	1	0	2.46	1	190.087866990998	190.091087596997	"22"	33007.440500416	33005.269730974	1.5	0.1
0.01	1	0.00461661000008462	1	97	191.610170112999	NA	1	0	2.46	1	190.321715458002	190.326332068002	"22"	33007.440500416	33005.269730974	1.5	0.1
0.01	1	0.00437621500168461	1	97	191.610170112999	NA	1	0	2.46	1	190.555436737999	190.559812953001	"22"	33007.440500416	33005.269730974	1.5	0.1
0.01	1	0.00461321199691156	1	97	191.610170112999	NA	1	0	2.46	1	190.789182593002	190.793795804999	"22"	33007.440500416	33005.269730974	1.5	0.1
0.01	1	0.00372972100012703	1	97	191.610170112999	NA	1	0	2.46	1	191.022860189998	191.026589910998	"22"	33007.440500416	33005.269730974	1.5	0.1
0.01	1	0.00334661899978528	1	97	191.610170112999	NA	1	0	2.46	1	191.256511518	191.259858137	"22"	33007.440500416	33005.269730974	1.5	0.1
0.01	1	0.00457989999995334	1	97	191.610170112999	NA	1	0	2.46	1	191.490321633002	191.494901533002	"22"	33007.440500416	33005.269730974	1.5	0.1
0.01	1	0.0396350790033466	1	118	NA	212.502854638002	0	0.72	3.18	1	193.660568814998	193.700203894001	"23"	33007.440500416	33005.269730974	1.5	0.1
0.01	1	0.00391034300264437	1	118	NA	212.502854638002	0	0.72	3.18	1	193.927775077998	193.931685421001	"23"	33007.440500416	33005.269730974	1.5	0.1
0.01	1	0.00436204300058307	1	118	NA	212.502854638002	0	0.72	3.18	1	194.161442914996	194.165804957996	"23"	33007.440500416	33005.269730974	1.5	0.1
0.01	1	0.00388731899874983	1	118	NA	212.502854638002	0	0.72	3.18	1	194.395189419996	194.399076738995	"23"	33007.440500416	33005.269730974	1.5	0.1
0.01	1	0.0033798470030888	1	118	NA	212.502854638002	0	0.72	3.18	1	194.628936439996	194.632316286999	"23"	33007.440500416	33005.269730974	1.5	0.1
0.01	1	0.00381663299776847	1	118	NA	212.502854638002	0	0.72	3.18	1	194.862522407999	194.866339040997	"23"	33007.440500416	33005.269730974	1.5	0.1
0.01	1	0.0037933769999654	1	118	NA	212.502854638002	0	0.72	3.18	1	195.096336517996	195.100129894996	"23"	33007.440500416	33005.269730974	1.5	0.1
0.01	1	0.00398186899838038	1	118	NA	212.502854638002	0	0.72	3.18	1	195.330016739998	195.333998608996	"23"	33007.440500416	33005.269730974	1.5	0.1
0.01	1	0.0034976659953827	1	118	NA	212.502854638002	0	0.72	3.18	1	195.563800913002	195.567298578997	"23"	33007.440500416	33005.269730974	1.5	0.1
0.01	1	0.00379602199973306	1	118	NA	212.502854638002	0	0.72	3.18	1	195.797531385	195.801327407	"23"	33007.440500416	33005.269730974	1.5	0.1
0.01	1	0.00376933300140081	1	118	NA	212.502854638002	0	0.72	3.18	1	196.031181907998	196.034951240999	"23"	33007.440500416	33005.269730974	1.5	0.1
0.01	1	0.00384110100276303	1	118	NA	212.502854638002	0	0.72	3.18	1	196.264985997997	196.268827099	"23"	33007.440500416	33005.269730974	1.5	0.1
0.01	1	0.0043736000006902	1	118	NA	212.502854638002	0	0.72	3.18	1	196.498657857996	196.503031457996	"23"	33007.440500416	33005.269730974	1.5	0.1
0.01	1	0.00369862799561815	1	118	NA	212.502854638002	0	0.72	3.18	1	196.732404063001	196.736102690997	"23"	33007.440500416	33005.269730974	1.5	0.1
0.01	1	0.00394410000444623	1	118	NA	212.502854638002	0	0.72	3.18	1	196.966100944996	196.970045045	"23"	33007.440500416	33005.269730974	1.5	0.1
0.01	1	0.00455665699701058	1	118	NA	212.502854638002	0	0.72	3.18	1	197.199879422998	197.204436079996	"23"	33007.440500416	33005.269730974	1.5	0.1
0.01	1	0.00368006800272269	1	118	NA	212.502854638002	0	0.72	3.18	1	197.433583112997	197.437263181	"23"	33007.440500416	33005.269730974	1.5	0.1
0.01	1	0.0033440100014559	1	118	NA	212.502854638002	0	0.72	3.18	1	197.667321602999	197.670665613001	"23"	33007.440500416	33005.269730974	1.5	0.1
0.01	1	0.00379538800189039	1	118	NA	212.502854638002	0	0.72	3.18	1	197.900999864996	197.904795252998	"23"	33007.440500416	33005.269730974	1.5	0.1
0.01	1	0.00460339199344162	1	118	NA	212.502854638002	0	0.72	3.18	1	198.134701318002	198.139304709995	"23"	33007.440500416	33005.269730974	1.5	0.1
0.01	1	0.00367841299885185	1	118	NA	212.502854638002	0	0.72	3.18	1	198.368533669996	198.372212082995	"23"	33007.440500416	33005.269730974	1.5	0.1
0.01	1	0.00455666000198107	1	118	NA	212.502854638002	0	0.72	3.18	1	198.602246207996	198.606802867998	"23"	33007.440500416	33005.269730974	1.5	0.1
0.01	1	0.00325086600059876	1	118	NA	212.502854638002	0	0.72	3.18	1	198.835978384999	198.839229251	"23"	33007.440500416	33005.269730974	1.5	0.1
0.01	1	0.00364796799840406	1	118	NA	212.502854638002	0	0.72	3.18	1	199.069712503002	199.073360471	"23"	33007.440500416	33005.269730974	1.5	0.1
0.01	1	0.00384452900470933	1	118	NA	212.502854638002	0	0.72	3.18	1	199.303420907996	199.307265437001	"23"	33007.440500416	33005.269730974	1.5	0.1
0.01	1	0.00390371100365883	1	118	NA	212.502854638002	0	0.72	3.18	1	199.537131627996	199.541035339	"23"	33007.440500416	33005.269730974	1.5	0.1
0.01	1	0.00352980499883415	1	118	NA	212.502854638002	0	0.72	3.18	1	199.770804010001	199.774333814999	"23"	33007.440500416	33005.269730974	1.5	0.1
0.01	1	0.00460658500378486	1	118	NA	212.502854638002	0	0.72	3.18	1	200.004589647997	200.009196233001	"23"	33007.440500416	33005.269730974	1.5	0.1
0.01	1	0.00365965899982257	1	118	NA	212.502854638002	0	0.72	3.18	1	200.238234857996	200.241894516996	"23"	33007.440500416	33005.269730974	1.5	0.1
0.01	1	0.00383153100119671	1	118	NA	212.502854638002	0	0.72	3.18	1	200.472052419998	200.475883951	"23"	33007.440500416	33005.269730974	1.5	0.1
0.01	1	0.00346267400163924	1	118	NA	212.502854638002	0	0.72	3.18	1	200.705823752996	200.709286426998	"23"	33007.440500416	33005.269730974	1.5	0.1
0.01	1	0.00331005400221329	1	118	NA	212.502854638002	0	0.72	3.18	1	200.939470862995	200.942780916997	"23"	33007.440500416	33005.269730974	1.5	0.1
0.01	1	0.00352010200003861	1	118	NA	212.502854638002	0	0.72	3.18	1	201.173222632995	201.176742734995	"23"	33007.440500416	33005.269730974	1.5	0.1
0.01	1	0.00367015200026799	1	118	NA	212.502854638002	0	0.72	3.18	1	201.406892203002	201.410562355002	"23"	33007.440500416	33005.269730974	1.5	0.1
0.01	1	0.00391531400237	1	118	NA	212.502854638002	0	0.72	3.18	1	201.640651944999	201.644567259002	"23"	33007.440500416	33005.269730974	1.5	0.1
0.01	1	0.00453713499882724	1	118	NA	212.502854638002	0	0.72	3.18	1	201.874360423	201.878897557999	"23"	33007.440500416	33005.269730974	1.5	0.1
0.01	1	0.00331163399823708	1	118	NA	212.502854638002	0	0.72	3.18	1	202.108145053	202.111456686998	"23"	33007.440500416	33005.269730974	1.5	0.1
0.01	1	0.00377184399985708	1	118	NA	212.502854638002	0	0.72	3.18	1	202.341821582999	202.345593426999	"23"	33007.440500416	33005.269730974	1.5	0.1
0.01	1	0.00382694700238062	1	118	NA	212.502854638002	0	0.72	3.18	1	202.575613789999	202.579440737001	"23"	33007.440500416	33005.269730974	1.5	0.1
0.01	1	0.00438248900172766	1	118	NA	212.502854638002	0	0.72	3.18	1	202.809402789	202.813785278002	"23"	33007.440500416	33005.269730974	1.5	0.1
0.01	1	0.00330485199810937	1	118	NA	212.502854638002	0	0.72	3.18	1	203.043034238999	203.046339090997	"23"	33007.440500416	33005.269730974	1.5	0.1
0.01	1	0.00460166700213449	1	118	NA	212.502854638002	0	0.72	3.18	1	203.276738962999	203.281340630001	"23"	33007.440500416	33005.269730974	1.5	0.1
0.01	1	0.00346893000096316	1	118	NA	212.502854638002	0	0.72	3.18	1	203.510467115	203.513936045001	"23"	33007.440500416	33005.269730974	1.5	0.1
0.01	1	0.00379838699882384	1	118	NA	212.502854638002	0	0.72	3.18	1	203.744196648	203.747995034999	"23"	33007.440500416	33005.269730974	1.5	0.1
0.01	1	0.00385521400312427	1	118	NA	212.502854638002	0	0.72	3.18	1	203.977860912997	203.981716127	"23"	33007.440500416	33005.269730974	1.5	0.1
0.01	1	0.00321894200169481	1	118	NA	212.502854638002	0	0.72	3.18	1	204.211676183	204.214895125002	"23"	33007.440500416	33005.269730974	1.5	0.1
0.01	1	0.00363907299470156	1	118	NA	212.502854638002	0	0.72	3.18	1	204.445374318002	204.449013390997	"23"	33007.440500416	33005.269730974	1.5	0.1
0.01	1	0.00385970799834467	1	118	NA	212.502854638002	0	0.72	3.18	1	204.679075222997	204.682934930996	"23"	33007.440500416	33005.269730974	1.5	0.1
0.01	1	0.00374513099814067	1	118	NA	212.502854638002	0	0.72	3.18	1	204.912792879997	204.916538010995	"23"	33007.440500416	33005.269730974	1.5	0.1
0.01	1	0.00383688799774973	1	118	NA	212.502854638002	0	0.72	3.18	1	205.146486342997	205.150323230995	"23"	33007.440500416	33005.269730974	1.5	0.1
0.01	1	0.00332268999773078	1	118	NA	212.502854638002	0	0.72	3.18	1	205.380252719002	205.383575409	"23"	33007.440500416	33005.269730974	1.5	0.1
0.01	1	0.0032730899984017	1	118	NA	212.502854638002	0	0.72	3.18	1	205.614041236997	205.617314326995	"23"	33007.440500416	33005.269730974	1.5	0.1
0.01	1	0.00387295799737331	1	118	NA	212.502854638002	0	0.72	3.18	1	205.847733302999	205.851606260996	"23"	33007.440500416	33005.269730974	1.5	0.1
0.01	1	0.00424060299701523	1	118	NA	212.502854638002	0	0.72	3.18	1	206.081462382001	206.085702984998	"23"	33007.440500416	33005.269730974	1.5	0.1
0.01	1	0.00382622100005392	1	118	NA	212.502854638002	0	0.72	3.18	1	206.315219667998	206.319045888999	"23"	33007.440500416	33005.269730974	1.5	0.1
0.01	1	0.00397605300531723	1	118	NA	212.502854638002	0	0.72	3.18	1	206.548903417995	206.552879471001	"23"	33007.440500416	33005.269730974	1.5	0.1
0.01	1	0.00348787000257289	1	118	NA	212.502854638002	0	0.72	3.18	1	206.782639333	206.786127203002	"23"	33007.440500416	33005.269730974	1.5	0.1
0.01	1	0.0037669180019293	1	118	NA	212.502854638002	0	0.72	3.18	1	207.016398552998	207.020165471	"23"	33007.440500416	33005.269730974	1.5	0.1
0.01	1	0.00366892100282712	1	118	NA	212.502854638002	0	0.72	3.18	1	207.250043869997	207.253712791	"23"	33007.440500416	33005.269730974	1.5	0.1
0.01	1	0.00399182200635551	1	118	NA	212.502854638002	0	0.72	3.18	1	207.483830912995	207.487822735002	"23"	33007.440500416	33005.269730974	1.5	0.1
0.01	1	0.00459161499748006	1	118	NA	212.502854638002	0	0.72	3.18	1	207.717737627998	207.722329242995	"23"	33007.440500416	33005.269730974	1.5	0.1
0.01	1	0.00363344499783125	1	118	NA	212.502854638002	0	0.72	3.18	1	207.951293328002	207.954926773	"23"	33007.440500416	33005.269730974	1.5	0.1
0.01	1	0.00371982700016815	1	118	NA	212.502854638002	0	0.72	3.18	1	208.184998057997	208.188717884997	"23"	33007.440500416	33005.269730974	1.5	0.1
0.01	1	0.00394812600279693	1	118	NA	212.502854638002	0	0.72	3.18	1	208.418677632999	208.422625759002	"23"	33007.440500416	33005.269730974	1.5	0.1
0.01	1	0.00330583000322804	1	118	NA	212.502854638002	0	0.72	3.18	1	208.652446204997	208.655752035	"23"	33007.440500416	33005.269730974	1.5	0.1
0.01	1	0.00359637699875748	1	118	NA	212.502854638002	0	0.72	3.18	1	208.88618664	208.889783016999	"23"	33007.440500416	33005.269730974	1.5	0.1
0.01	1	0.00389533299312461	1	118	NA	212.502854638002	0	0.72	3.18	1	209.119838180002	209.123733512995	"23"	33007.440500416	33005.269730974	1.5	0.1
0.01	1	0.00389067899959628	1	118	NA	212.502854638002	0	0.72	3.18	1	209.353726780002	209.357617459002	"23"	33007.440500416	33005.269730974	1.5	0.1
0.01	1	0.00330412200128194	1	118	NA	212.502854638002	0	0.72	3.18	1	209.587349350997	209.590653472998	"23"	33007.440500416	33005.269730974	1.5	0.1
0.01	1	0.00311346799571766	1	118	NA	212.502854638002	0	0.72	3.18	1	209.821158515002	209.824271982998	"23"	33007.440500416	33005.269730974	1.5	0.1
0.01	1	0.00325317600072594	1	118	NA	212.502854638002	0	0.72	3.18	1	210.054782802999	210.058035979	"23"	33007.440500416	33005.269730974	1.5	0.1
0.01	1	1.91572107600223	1	118	NA	212.502854638002	0	0.72	3.18	1	210.288568129999	212.204289206002	"23"	33007.440500416	33005.269730974	1.5	0.1
0.01	1	0.0591280730004655	2	118	NA	212.502854638002	0	0.72	3.18	1	212.442186129996	212.501314202997	"23"	33007.440500416	33005.269730974	1.5	0.1
0.01	1	0.00383506799698807	1	100	NA	235.586724552999	0	0.900000000000001	4.08	1	214.545656933002	214.549492000999	"24"	33007.440500416	33005.269730974	1.5	0.1
0.01	1	0.00371479100431316	1	100	NA	235.586724552999	0	0.900000000000001	4.08	1	214.779331347996	214.783046139	"24"	33007.440500416	33005.269730974	1.5	0.1
0.01	1	0.0035009249986615	1	100	NA	235.586724552999	0	0.900000000000001	4.08	1	215.013061718	215.016562642999	"24"	33007.440500416	33005.269730974	1.5	0.1
0.01	1	0.00365333499939879	1	100	NA	235.586724552999	0	0.900000000000001	4.08	1	215.246879547998	215.250532882998	"24"	33007.440500416	33005.269730974	1.5	0.1
0.01	1	0.0037537140015047	1	100	NA	235.586724552999	0	0.900000000000001	4.08	1	215.480662562997	215.484416276999	"24"	33007.440500416	33005.269730974	1.5	0.1
0.01	1	0.00396366300265072	1	100	NA	235.586724552999	0	0.900000000000001	4.08	1	215.714336989997	215.718300652999	"24"	33007.440500416	33005.269730974	1.5	0.1
0.01	1	0.00363921100506559	1	100	NA	235.586724552999	0	0.900000000000001	4.08	1	215.948048249997	215.951687461002	"24"	33007.440500416	33005.269730974	1.5	0.1
0.01	1	0.00364119000005303	1	100	NA	235.586724552999	0	0.900000000000001	4.08	1	216.181711533001	216.185352723001	"24"	33007.440500416	33005.269730974	1.5	0.1
0.01	1	0.0038520449961652	1	100	NA	235.586724552999	0	0.900000000000001	4.08	1	216.415463788002	216.419315832998	"24"	33007.440500416	33005.269730974	1.5	0.1
0.01	1	0.0045977670015418	1	100	NA	235.586724552999	0	0.900000000000001	4.08	1	216.649327117997	216.653924884999	"24"	33007.440500416	33005.269730974	1.5	0.1
0.01	1	0.00367440999980317	1	100	NA	235.586724552999	0	0.900000000000001	4.08	1	216.882934363002	216.886608773002	"24"	33007.440500416	33005.269730974	1.5	0.1
0.01	1	0.00457628200092586	1	100	NA	235.586724552999	0	0.900000000000001	4.08	1	217.116754147999	217.12133043	"24"	33007.440500416	33005.269730974	1.5	0.1
0.01	1	0.00324404799903277	1	100	NA	235.586724552999	0	0.900000000000001	4.08	1	217.350422845	217.353666892999	"24"	33007.440500416	33005.269730974	1.5	0.1
0.01	1	0.00333457200031262	1	100	NA	235.586724552999	0	0.900000000000001	4.08	1	217.584185324999	217.587519896999	"24"	33007.440500416	33005.269730974	1.5	0.1
0.01	1	0.00452676599525148	1	100	NA	235.586724552999	0	0.900000000000001	4.08	1	217.817862152002	217.822388917997	"24"	33007.440500416	33005.269730974	1.5	0.1
0.01	1	0.00376452100317692	1	100	NA	235.586724552999	0	0.900000000000001	4.08	1	218.051664429997	218.055428951	"24"	33007.440500416	33005.269730974	1.5	0.1
0.01	1	0.0033371379977325	1	100	NA	235.586724552999	0	0.900000000000001	4.08	1	218.285329342998	218.288666480996	"24"	33007.440500416	33005.269730974	1.5	0.1
0.01	1	0.00351984499866376	1	100	NA	235.586724552999	0	0.900000000000001	4.08	1	218.519043258002	218.522563103001	"24"	33007.440500416	33005.269730974	1.5	0.1
0.01	1	0.00366355499863857	1	100	NA	235.586724552999	0	0.900000000000001	4.08	1	218.752671580001	218.756335135	"24"	33007.440500416	33005.269730974	1.5	0.1
0.01	1	0.00368034699931741	1	100	NA	235.586724552999	0	0.900000000000001	4.08	1	218.986440238001	218.990120585	"24"	33007.440500416	33005.269730974	1.5	0.1
0.01	1	0.00385910499608144	1	100	NA	235.586724552999	0	0.900000000000001	4.08	1	219.220186540002	219.224045644998	"24"	33007.440500416	33005.269730974	1.5	0.1
0.01	1	0.00340632299776189	1	100	NA	235.586724552999	0	0.900000000000001	4.08	1	219.45399967	219.457405992998	"24"	33007.440500416	33005.269730974	1.5	0.1
0.01	1	0.00373069399938686	1	100	NA	235.586724552999	0	0.900000000000001	4.08	1	219.687668903	219.691399596999	"24"	33007.440500416	33005.269730974	1.5	0.1
0.01	1	0.00449894299526932	1	100	NA	235.586724552999	0	0.900000000000001	4.08	1	219.921484315	219.925983257996	"24"	33007.440500416	33005.269730974	1.5	0.1
0.01	1	0.00373153900000034	1	100	NA	235.586724552999	0	0.900000000000001	4.08	1	220.155152949996	220.158884488996	"24"	33007.440500416	33005.269730974	1.5	0.1
0.01	1	0.00294792200293159	1	100	NA	235.586724552999	0	0.900000000000001	4.08	1	220.388809602995	220.391757524998	"24"	33007.440500416	33005.269730974	1.5	0.1
0.01	1	0.00370696300524287	1	100	NA	235.586724552999	0	0.900000000000001	4.08	1	220.622504557996	220.626211521001	"24"	33007.440500416	33005.269730974	1.5	0.1
0.01	1	0.00367218100291211	1	100	NA	235.586724552999	0	0.900000000000001	4.08	1	220.856319329996	220.859991510999	"24"	33007.440500416	33005.269730974	1.5	0.1
0.01	1	0.00338645299780183	1	100	NA	235.586724552999	0	0.900000000000001	4.08	1	221.089993967998	221.093380420996	"24"	33007.440500416	33005.269730974	1.5	0.1
0.01	1	0.00323802999628242	1	100	NA	235.586724552999	0	0.900000000000001	4.08	1	221.323733843001	221.326971872997	"24"	33007.440500416	33005.269730974	1.5	0.1
0.01	1	0.00379084599990165	1	100	NA	235.586724552999	0	0.900000000000001	4.08	1	221.557438804997	221.561229650997	"24"	33007.440500416	33005.269730974	1.5	0.1
0.01	1	0.00390648399479687	1	100	NA	235.586724552999	0	0.900000000000001	4.08	1	221.791248113001	221.795154596995	"24"	33007.440500416	33005.269730974	1.5	0.1
0.01	1	0.00395019499410409	1	100	NA	235.586724552999	0	0.900000000000001	4.08	1	222.024918350002	222.028868544996	"24"	33007.440500416	33005.269730974	1.5	0.1
0.01	1	0.00394601599691669	1	100	NA	235.586724552999	0	0.900000000000001	4.08	1	222.258648699	222.262594714997	"24"	33007.440500416	33005.269730974	1.5	0.1
0.01	1	0.00376857900118921	1	100	NA	235.586724552999	0	0.900000000000001	4.08	1	222.492432857998	222.496201436999	"24"	33007.440500416	33005.269730974	1.5	0.1
0.01	1	0.00250948000029894	1	100	NA	235.586724552999	0	0.900000000000001	4.08	1	222.726085118997	222.728594598997	"24"	33007.440500416	33005.269730974	1.5	0.1
0.01	1	0.00215012999979081	1	100	NA	235.586724552999	0	0.900000000000001	4.08	1	222.959731098996	222.961881228995	"24"	33007.440500416	33005.269730974	1.5	0.1
0.01	1	0.00393671799974982	1	100	NA	235.586724552999	0	0.900000000000001	4.08	1	223.193515575	223.197452293	"24"	33007.440500416	33005.269730974	1.5	0.1
0.01	1	0.00462997699651169	1	100	NA	235.586724552999	0	0.900000000000001	4.08	1	223.427299043	223.431929019996	"24"	33007.440500416	33005.269730974	1.5	0.1
0.01	1	0.00386681900272379	1	100	NA	235.586724552999	0	0.900000000000001	4.08	1	223.660988337997	223.664855157	"24"	33007.440500416	33005.269730974	1.5	0.1
0.01	1	0.00346827899920754	1	100	NA	235.586724552999	0	0.900000000000001	4.08	1	223.894809868001	223.898278147	"24"	33007.440500416	33005.269730974	1.5	0.1
0.01	1	0.00374707899754867	1	100	NA	235.586724552999	0	0.900000000000001	4.08	1	224.128476907998	224.132223986995	"24"	33007.440500416	33005.269730974	1.5	0.1
0.01	1	0.00392840100539615	1	100	NA	235.586724552999	0	0.900000000000001	4.08	1	224.362135497995	224.366063899	"24"	33007.440500416	33005.269730974	1.5	0.1
0.01	1	0.00388950000342447	1	100	NA	235.586724552999	0	0.900000000000001	4.08	1	224.595976722998	224.599866223001	"24"	33007.440500416	33005.269730974	1.5	0.1
0.01	1	0.00388964200101327	1	100	NA	235.586724552999	0	0.900000000000001	4.08	1	224.829650644995	224.833540286996	"24"	33007.440500416	33005.269730974	1.5	0.1
0.01	1	0.00339164899924072	1	100	NA	235.586724552999	0	0.900000000000001	4.08	1	225.063364029997	225.066755678996	"24"	33007.440500416	33005.269730974	1.5	0.1
0.01	1	0.00396955099859042	1	100	NA	235.586724552999	0	0.900000000000001	4.08	1	225.297027158002	225.300996709	"24"	33007.440500416	33005.269730974	1.5	0.1
0.01	1	0.00370159099838929	1	100	NA	235.586724552999	0	0.900000000000001	4.08	1	225.530791289999	225.534492880997	"24"	33007.440500416	33005.269730974	1.5	0.1
0.01	1	0.0038477359994431	1	100	NA	235.586724552999	0	0.900000000000001	4.08	1	225.764621922997	225.768469658997	"24"	33007.440500416	33005.269730974	1.5	0.1
0.01	1	0.0038954379997449	1	100	NA	235.586724552999	0	0.900000000000001	4.08	1	225.998264182996	226.002159620995	"24"	33007.440500416	33005.269730974	1.5	0.1
0.01	1	0.00369649299682351	1	100	NA	235.586724552999	0	0.900000000000001	4.08	1	226.232009468	226.235705960997	"24"	33007.440500416	33005.269730974	1.5	0.1
0.01	1	0.00388007899891818	1	100	NA	235.586724552999	0	0.900000000000001	4.08	1	226.46572176	226.469601838999	"24"	33007.440500416	33005.269730974	1.5	0.1
0.01	1	0.00456163000490051	1	100	NA	235.586724552999	0	0.900000000000001	4.08	1	226.699594427995	226.704156058	"24"	33007.440500416	33005.269730974	1.5	0.1
0.01	1	0.00461052500031656	1	100	NA	235.586724552999	0	0.900000000000001	4.08	1	226.933210162995	226.937820687996	"24"	33007.440500416	33005.269730974	1.5	0.1
0.01	1	0.00376080899877707	1	100	NA	235.586724552999	0	0.900000000000001	4.08	1	227.166878309999	227.170639118998	"24"	33007.440500416	33005.269730974	1.5	0.1
0.01	1	0.00343851099751191	1	100	NA	235.586724552999	0	0.900000000000001	4.08	1	227.400696408	227.404134918997	"24"	33007.440500416	33005.269730974	1.5	0.1
0.01	1	0.00373765599942999	1	100	NA	235.586724552999	0	0.900000000000001	4.08	1	227.634412773001	227.638150429	"24"	33007.440500416	33005.269730974	1.5	0.1
0.01	1	0.00388321700302185	1	100	NA	235.586724552999	0	0.900000000000001	4.08	1	227.868034279996	227.871917496999	"24"	33007.440500416	33005.269730974	1.5	0.1
0.01	1	0.00391719299659599	1	100	NA	235.586724552999	0	0.900000000000001	4.08	1	228.101690578002	228.105607770998	"24"	33007.440500416	33005.269730974	1.5	0.1
0.01	1	0.00355545499769505	1	100	NA	235.586724552999	0	0.900000000000001	4.08	1	228.335535267997	228.339090722995	"24"	33007.440500416	33005.269730974	1.5	0.1
0.01	1	0.00325449000229128	1	100	NA	235.586724552999	0	0.900000000000001	4.08	1	228.569326684996	228.572581174998	"24"	33007.440500416	33005.269730974	1.5	0.1
0.01	1	0.00448398000298766	1	100	NA	235.586724552999	0	0.900000000000001	4.08	1	228.802949857996	228.807433837999	"24"	33007.440500416	33005.269730974	1.5	0.1
0.01	1	0.0046080499960226	1	100	NA	235.586724552999	0	0.900000000000001	4.08	1	229.036767353002	229.041375402998	"24"	33007.440500416	33005.269730974	1.5	0.1
0.01	1	0.00328359400009504	1	100	NA	235.586724552999	0	0.900000000000001	4.08	1	229.270497157002	229.273780751002	"24"	33007.440500416	33005.269730974	1.5	0.1
0.01	1	0.00368987600086257	1	100	NA	235.586724552999	0	0.900000000000001	4.08	1	229.504189602998	229.507879478999	"24"	33007.440500416	33005.269730974	1.5	0.1
0.01	1	0.00453062399901683	1	100	NA	235.586724552999	0	0.900000000000001	4.08	1	229.737961538998	229.742492162997	"24"	33007.440500416	33005.269730974	1.5	0.1
0.01	1	0.00390730499930214	1	100	NA	235.586724552999	0	0.900000000000001	4.08	1	229.971665487999	229.975572792999	"24"	33007.440500416	33005.269730974	1.5	0.1
0.01	1	0.00452338199829683	1	100	NA	235.586724552999	0	0.900000000000001	4.08	1	230.205465347997	230.209988729996	"24"	33007.440500416	33005.269730974	1.5	0.1
0.01	1	0.00320369400287746	1	100	NA	235.586724552999	0	0.900000000000001	4.08	1	230.439080508997	230.442284203	"24"	33007.440500416	33005.269730974	1.5	0.1
0.01	1	0.00370844799908809	1	100	NA	235.586724552999	0	0.900000000000001	4.08	1	230.672789804998	230.676498252997	"24"	33007.440500416	33005.269730974	1.5	0.1
0.01	1	0.0035820320044877	1	100	NA	235.586724552999	0	0.900000000000001	4.08	1	230.906526272996	230.910108305001	"24"	33007.440500416	33005.269730974	1.5	0.1
0.01	1	0.00355018000118434	1	100	NA	235.586724552999	0	0.900000000000001	4.08	1	231.140316722998	231.143866902999	"24"	33007.440500416	33005.269730974	1.5	0.1
0.01	1	0.00396571400051471	1	100	NA	235.586724552999	0	0.900000000000001	4.08	1	231.373974093	231.377939807	"24"	33007.440500416	33005.269730974	1.5	0.1
0.01	1	0.00367655100126285	1	100	NA	235.586724552999	0	0.900000000000001	4.08	1	231.607751	231.611427551001	"24"	33007.440500416	33005.269730974	1.5	0.1
0.01	1	0.00379811799939489	1	100	NA	235.586724552999	0	0.900000000000001	4.08	1	231.841518812998	231.845316930998	"24"	33007.440500416	33005.269730974	1.5	0.1
0.01	1	0.00374295700021321	1	100	NA	235.586724552999	0	0.900000000000001	4.08	1	232.075125738	232.078868695	"24"	33007.440500416	33005.269730974	1.5	0.1
0.01	1	0.00421708300564205	1	100	NA	235.586724552999	0	0.900000000000001	4.08	1	232.308952621996	232.313169705001	"24"	33007.440500416	33005.269730974	1.5	0.1
0.01	1	0.00391128100454807	1	100	NA	235.586724552999	0	0.900000000000001	4.08	1	232.542692909996	232.546604191	"24"	33007.440500416	33005.269730974	1.5	0.1
0.01	1	0.00370490200293716	1	100	NA	235.586724552999	0	0.900000000000001	4.08	1	232.776325502997	232.780030405	"24"	33007.440500416	33005.269730974	1.5	0.1
0.01	1	0.00412824099475984	1	100	NA	235.586724552999	0	0.900000000000001	4.08	1	233.010016420001	233.014144660996	"24"	33007.440500416	33005.269730974	1.5	0.1
0.01	1	0.00388816100166878	1	100	NA	235.586724552999	0	0.900000000000001	4.08	1	233.243720939998	233.247609100999	"24"	33007.440500416	33005.269730974	1.5	0.1
0.01	1	0.00372573400090914	1	100	NA	235.586724552999	0	0.900000000000001	4.08	1	233.477496992997	233.481222726998	"24"	33007.440500416	33005.269730974	1.5	0.1
0.01	1	0.00431545700121205	1	100	NA	235.586724552999	0	0.900000000000001	4.08	1	233.711301608	233.715617065001	"24"	33007.440500416	33005.269730974	1.5	0.1
0.01	1	0.00373109900101554	1	100	NA	235.586724552999	0	0.900000000000001	4.08	1	233.945014820001	233.948745919002	"24"	33007.440500416	33005.269730974	1.5	0.1
0.01	1	0.00389961300243158	1	100	NA	235.586724552999	0	0.900000000000001	4.08	1	234.178726028	234.182625641002	"24"	33007.440500416	33005.269730974	1.5	0.1
0.01	1	0.00379887499730103	1	100	NA	235.586724552999	0	0.900000000000001	4.08	1	234.412350358001	234.416149232999	"24"	33007.440500416	33005.269730974	1.5	0.1
0.01	1	0.00391313200088916	1	100	NA	235.586724552999	0	0.900000000000001	4.08	1	234.646182303	234.650095435001	"24"	33007.440500416	33005.269730974	1.5	0.1
0.01	1	0.00396750700019766	1	100	NA	235.586724552999	0	0.900000000000001	4.08	1	234.879890699998	234.883858206998	"24"	33007.440500416	33005.269730974	1.5	0.1
0.01	1	0.00384503299574135	1	100	NA	235.586724552999	0	0.900000000000001	4.08	1	235.11358945	235.117434482996	"24"	33007.440500416	33005.269730974	1.5	0.1
0.01	1	0.0039628559970879	1	100	NA	235.586724552999	0	0.900000000000001	4.08	1	235.347342523	235.351305378997	"24"	33007.440500416	33005.269730974	1.5	0.1
0.01	1	0.00387731500086375	2	100	NA	235.586724552999	0	0.900000000000001	4.08	1	235.581016818	235.584894133	"24"	33007.440500416	33005.269730974	1.5	0.1
0.01	1	0.691079921998607	2	46	NA	238.327126476997	0	0	4.08	1	237.63446135	238.325541271999	"25"	33007.440500416	33005.269730974	1.5	0.1
0.01	1	0.00387702800071565	1	102	NA	261.598058624	0	0.900000000000001	4.98	1	240.372408514999	240.376285543	"26"	33007.440500416	33005.269730974	1.5	0.1
0.01	1	0.00460819999716477	1	102	NA	261.598058624	0	0.900000000000001	4.98	1	240.606178348	240.610786547997	"26"	33007.440500416	33005.269730974	1.5	0.1
0.01	1	0.00386634400638286	1	102	NA	261.598058624	0	0.900000000000001	4.98	1	240.839916422996	240.843782767002	"26"	33007.440500416	33005.269730974	1.5	0.1
0.01	1	0.00373328600107925	1	102	NA	261.598058624	0	0.900000000000001	4.98	1	241.073645973	241.077379259001	"26"	33007.440500416	33005.269730974	1.5	0.1
0.01	1	0.00403893300244818	1	102	NA	261.598058624	0	0.900000000000001	4.98	1	241.307319249998	241.311358183	"26"	33007.440500416	33005.269730974	1.5	0.1
0.01	1	0.00458926199644338	1	102	NA	261.598058624	0	0.900000000000001	4.98	1	241.541117878001	241.545707139998	"26"	33007.440500416	33005.269730974	1.5	0.1
0.01	1	0.00379454700305359	1	102	NA	261.598058624	0	0.900000000000001	4.98	1	241.774797427996	241.778591974999	"26"	33007.440500416	33005.269730974	1.5	0.1
0.01	1	0.00395309799932875	1	102	NA	261.598058624	0	0.900000000000001	4.98	1	242.008433312996	242.012386410996	"26"	33007.440500416	33005.269730974	1.5	0.1
0.01	1	0.0036827850053669	1	102	NA	261.598058624	0	0.900000000000001	4.98	1	242.242292777995	242.245975563001	"26"	33007.440500416	33005.269730974	1.5	0.1
0.01	1	0.0038299259977066	1	102	NA	261.598058624	0	0.900000000000001	4.98	1	242.476042484999	242.479872410997	"26"	33007.440500416	33005.269730974	1.5	0.1
0.01	1	0.00385226700018393	1	102	NA	261.598058624	0	0.900000000000001	4.98	1	242.70978963	242.713641897	"26"	33007.440500416	33005.269730974	1.5	0.1
0.01	1	0.00378867700055707	1	102	NA	261.598058624	0	0.900000000000001	4.98	1	242.943435008001	242.947223685002	"26"	33007.440500416	33005.269730974	1.5	0.1
0.01	1	0.0033189419991686	1	102	NA	261.598058624	0	0.900000000000001	4.98	1	243.177104204999	243.180423146998	"26"	33007.440500416	33005.269730974	1.5	0.1
0.01	1	0.00328741600242211	1	102	NA	261.598058624	0	0.900000000000001	4.98	1	243.410914678996	243.414202094998	"26"	33007.440500416	33005.269730974	1.5	0.1
0.01	1	0.00382471700140741	1	102	NA	261.598058624	0	0.900000000000001	4.98	1	243.644702709997	243.648527426998	"26"	33007.440500416	33005.269730974	1.5	0.1
