"payoff.level"	"balloon"	"rt"	"resp"	"explode.trial"	"explode.time"	"finish.time"	"exploded"	"trial.total"	"cumulative.total"	"finished"	"trial.start"	"trial.end"	"trial.num"	"secs"	"start.time"	"iti"	"isi"
0.01	1	4.58984626	1	64	19.62014456	NA	1	0	0	1	0.015622527000005	4.60546878700001	"1"	565.224725506	559.648510462	1.5	0.1
0.01	1	0.0470927509999797	1	64	19.62014456	NA	1	0	0	1	4.95734762800001	5.00444037899999	"1"	565.224725506	559.648510462	1.5	0.1
0.01	1	0.00392739700001243	1	64	19.62014456	NA	1	0	0	1	5.24107776	5.24500515700001	"1"	565.224725506	559.648510462	1.5	0.1
0.01	1	0.00332448800000407	1	64	19.62014456	NA	1	0	0	1	5.474853795	5.47817828300001	"1"	565.224725506	559.648510462	1.5	0.1
0.01	1	0.00328245599999377	1	64	19.62014456	NA	1	0	0	1	5.708586991	5.711869447	"1"	565.224725506	559.648510462	1.5	0.1
0.01	1	0.00225415700001008	1	64	19.62014456	NA	1	0	0	1	5.94226519399999	5.944519351	"1"	565.224725506	559.648510462	1.5	0.1
0.01	1	0.0034104020000143	1	64	19.62014456	NA	1	0	0	1	6.17594577899999	6.179356181	"1"	565.224725506	559.648510462	1.5	0.1
0.01	1	0.00383254999999849	1	64	19.62014456	NA	1	0	0	1	6.40971946499999	6.41355201499999	"1"	565.224725506	559.648510462	1.5	0.1
0.01	1	0.00219416699999897	1	64	19.62014456	NA	1	0	0	1	6.64351324	6.645707407	"1"	565.224725506	559.648510462	1.5	0.1
0.01	1	0.00331881599998951	1	64	19.62014456	NA	1	0	0	1	6.87708985899999	6.88040867499998	"1"	565.224725506	559.648510462	1.5	0.1
0.01	1	0.00209113100001446	1	64	19.62014456	NA	1	0	0	1	7.11090797399999	7.112999105	"1"	565.224725506	559.648510462	1.5	0.1
0.01	1	0.00411958300000492	1	64	19.62014456	NA	1	0	0	1	7.344599152	7.34871873500001	"1"	565.224725506	559.648510462	1.5	0.1
0.01	1	0.00445306200001028	1	64	19.62014456	NA	1	0	0	1	7.578496895	7.58294995700001	"1"	565.224725506	559.648510462	1.5	0.1
0.01	1	0.00367478699999424	1	64	19.62014456	NA	1	0	0	1	7.812068302	7.81574308899999	"1"	565.224725506	559.648510462	1.5	0.1
0.01	1	0.00272313800002166	1	64	19.62014456	NA	1	0	0	1	8.04579333499998	8.04851647300001	"1"	565.224725506	559.648510462	1.5	0.1
0.01	1	0.00331039800002486	1	64	19.62014456	NA	1	0	0	1	8.27952796899999	8.28283836700001	"1"	565.224725506	559.648510462	1.5	0.1
0.01	1	0.00376199499999075	1	64	19.62014456	NA	1	0	0	1	8.51325459200001	8.517016587	"1"	565.224725506	559.648510462	1.5	0.1
0.01	1	0.00379403799999523	1	64	19.62014456	NA	1	0	0	1	8.746974835	8.750768873	"1"	565.224725506	559.648510462	1.5	0.1
0.01	1	0.00396832499998823	1	64	19.62014456	NA	1	0	0	1	8.98071059200001	8.984678917	"1"	565.224725506	559.648510462	1.5	0.1
0.01	1	0.00331591200000503	1	64	19.62014456	NA	1	0	0	1	9.21448783099999	9.21780374299999	"1"	565.224725506	559.648510462	1.5	0.1
0.01	1	0.00326096399999187	1	64	19.62014456	NA	1	0	0	1	9.44812153699999	9.45138250099998	"1"	565.224725506	559.648510462	1.5	0.1
0.01	1	0.00379710500001806	1	64	19.62014456	NA	1	0	0	1	9.68190340999999	9.68570051500001	"1"	565.224725506	559.648510462	1.5	0.1
0.01	1	0.00392721500000448	1	64	19.62014456	NA	1	0	0	1	9.91557019999999	9.919497415	"1"	565.224725506	559.648510462	1.5	0.1
0.01	1	0.00206309200001442	1	64	19.62014456	NA	1	0	0	1	10.14935483	10.151417922	"1"	565.224725506	559.648510462	1.5	0.1
0.01	1	0.00207249500002149	1	64	19.62014456	NA	1	0	0	1	10.38299868	10.385071175	"1"	565.224725506	559.648510462	1.5	0.1
0.01	1	0.00219741600000134	1	64	19.62014456	NA	1	0	0	1	10.61683163	10.619029046	"1"	565.224725506	559.648510462	1.5	0.1
0.01	1	0.00390137299999083	1	64	19.62014456	NA	1	0	0	1	10.850438682	10.854340055	"1"	565.224725506	559.648510462	1.5	0.1
0.01	1	0.00407882700000073	1	64	19.62014456	NA	1	0	0	1	11.084196072	11.088274899	"1"	565.224725506	559.648510462	1.5	0.1
0.01	1	0.00409229799998911	1	64	19.62014456	NA	1	0	0	1	11.317978667	11.322070965	"1"	565.224725506	559.648510462	1.5	0.1
0.01	1	0.00365268499999161	1	64	19.62014456	NA	1	0	0	1	11.551672672	11.555325357	"1"	565.224725506	559.648510462	1.5	0.1
0.01	1	0.00495552000000998	1	64	19.62014456	NA	1	0	0	1	11.785362995	11.790318515	"1"	565.224725506	559.648510462	1.5	0.1
0.01	1	0.0038921110000274	1	64	19.62014456	NA	1	0	0	1	12.01908922	12.022981331	"1"	565.224725506	559.648510462	1.5	0.1
0.01	1	0.00420407099997533	1	64	19.62014456	NA	1	0	0	1	12.252910261	12.257114332	"1"	565.224725506	559.648510462	1.5	0.1
0.01	1	0.00422395599997571	1	64	19.62014456	NA	1	0	0	1	12.486545271	12.490769227	"1"	565.224725506	559.648510462	1.5	0.1
0.01	1	0.0036572719999981	1	64	19.62014456	NA	1	0	0	1	12.720334665	12.723991937	"1"	565.224725506	559.648510462	1.5	0.1
0.01	1	0.0039257740000096	1	64	19.62014456	NA	1	0	0	1	12.953986975	12.957912749	"1"	565.224725506	559.648510462	1.5	0.1
0.01	1	0.00373829700001238	1	64	19.62014456	NA	1	0	0	1	13.18783204	13.191570337	"1"	565.224725506	559.648510462	1.5	0.1
0.01	1	0.00464498200000207	1	64	19.62014456	NA	1	0	0	1	13.42156291	13.426207892	"1"	565.224725506	559.648510462	1.5	0.1
0.01	1	0.00327205799999319	1	64	19.62014456	NA	1	0	0	1	13.655130305	13.658402363	"1"	565.224725506	559.648510462	1.5	0.1
0.01	1	0.00332416599999874	1	64	19.62014456	NA	1	0	0	1	13.888887087	13.892211253	"1"	565.224725506	559.648510462	1.5	0.1
0.01	1	0.00400301600001285	1	64	19.62014456	NA	1	0	0	1	14.122707967	14.126710983	"1"	565.224725506	559.648510462	1.5	0.1
0.01	1	0.00386101300000519	1	64	19.62014456	NA	1	0	0	1	14.3564569	14.360317913	"1"	565.224725506	559.648510462	1.5	0.1
0.01	1	0.00460744200000818	1	64	19.62014456	NA	1	0	0	1	14.59025316	14.594860602	"1"	565.224725506	559.648510462	1.5	0.1
0.01	1	0.00398763300000837	1	64	19.62014456	NA	1	0	0	1	14.823920892	14.827908525	"1"	565.224725506	559.648510462	1.5	0.1
0.01	1	0.00356968299999494	1	64	19.62014456	NA	1	0	0	1	15.057552372	15.061122055	"1"	565.224725506	559.648510462	1.5	0.1
0.01	1	0.00390702300001067	1	64	19.62014456	NA	1	0	0	1	15.29135341	15.295260433	"1"	565.224725506	559.648510462	1.5	0.1
0.01	1	0.00401622299997939	1	64	19.62014456	NA	1	0	0	1	15.525097092	15.529113315	"1"	565.224725506	559.648510462	1.5	0.1
0.01	1	0.00456872700002009	1	64	19.62014456	NA	1	0	0	1	15.75879263	15.763361357	"1"	565.224725506	559.648510462	1.5	0.1
0.01	1	0.00395564999999465	1	64	19.62014456	NA	1	0	0	1	15.992521195	15.996476845	"1"	565.224725506	559.648510462	1.5	0.1
0.01	1	0.00370603400000391	1	64	19.62014456	NA	1	0	0	1	16.226142765	16.229848799	"1"	565.224725506	559.648510462	1.5	0.1
0.01	1	0.00380357800000297	1	64	19.62014456	NA	1	0	0	1	16.459960025	16.463763603	"1"	565.224725506	559.648510462	1.5	0.1
0.01	1	0.00230506599999103	1	64	19.62014456	NA	1	0	0	1	16.69369821	16.696003276	"1"	565.224725506	559.648510462	1.5	0.1
0.01	1	0.00204657599999791	1	64	19.62014456	NA	1	0	0	1	16.927369042	16.929415618	"1"	565.224725506	559.648510462	1.5	0.1
0.01	1	0.0036192880000101	1	64	19.62014456	NA	1	0	0	1	17.161090745	17.164710033	"1"	565.224725506	559.648510462	1.5	0.1
0.01	1	0.00399720199999365	1	64	19.62014456	NA	1	0	0	1	17.394886725	17.398883927	"1"	565.224725506	559.648510462	1.5	0.1
0.01	1	0.00376038100000642	1	64	19.62014456	NA	1	0	0	1	17.628623062	17.632383443	"1"	565.224725506	559.648510462	1.5	0.1
0.01	1	0.00451750499999548	1	64	19.62014456	NA	1	0	0	1	17.862304857	17.866822362	"1"	565.224725506	559.648510462	1.5	0.1
0.01	1	0.00384898000001499	1	64	19.62014456	NA	1	0	0	1	18.096110975	18.099959955	"1"	565.224725506	559.648510462	1.5	0.1
0.01	1	0.00381324200000677	1	64	19.62014456	NA	1	0	0	1	18.329671037	18.333484279	"1"	565.224725506	559.648510462	1.5	0.1
0.01	1	0.00387675400000376	1	64	19.62014456	NA	1	0	0	1	18.563460655	18.567337409	"1"	565.224725506	559.648510462	1.5	0.1
0.01	1	0.00376805999999874	1	64	19.62014456	NA	1	0	0	1	18.797195485	18.800963545	"1"	565.224725506	559.648510462	1.5	0.1
0.01	1	0.00362741399999322	1	64	19.62014456	NA	1	0	0	1	19.030954315	19.034581729	"1"	565.224725506	559.648510462	1.5	0.1
0.01	1	0.00389285099998915	1	64	19.62014456	NA	1	0	0	1	19.264622382	19.268515233	"1"	565.224725506	559.648510462	1.5	0.1
0.01	1	0.00367641500000104	1	64	19.62014456	NA	1	0	0	1	19.49839803	19.502074445	"1"	565.224725506	559.648510462	1.5	0.1
0.01	1	0.00391242300000272	1	102	NA	33.422300294	0	0.48	0.48	1	21.668691882	21.672604305	"2"	565.224725506	559.648510462	1.5	0.1
0.01	1	0.110080549000003	1	102	NA	33.422300294	0	0.48	0.48	1	21.902422742	22.012503291	"2"	565.224725506	559.648510462	1.5	0.1
0.01	1	0.00384826500001623	1	102	NA	33.422300294	0	0.48	0.48	1	22.23635885	22.240207115	"2"	565.224725506	559.648510462	1.5	0.1
0.01	1	0.00394522299998812	1	102	NA	33.422300294	0	0.48	0.48	1	22.47005632	22.474001543	"2"	565.224725506	559.648510462	1.5	0.1
0.01	1	0.00341871300000207	1	102	NA	33.422300294	0	0.48	0.48	1	22.70371843	22.707137143	"2"	565.224725506	559.648510462	1.5	0.1
0.01	1	0.00411985300002016	1	102	NA	33.422300294	0	0.48	0.48	1	22.937470452	22.941590305	"2"	565.224725506	559.648510462	1.5	0.1
0.01	1	0.00401668599999994	1	102	NA	33.422300294	0	0.48	0.48	1	23.171231627	23.175248313	"2"	565.224725506	559.648510462	1.5	0.1
0.01	1	0.00383711400002085	1	102	NA	33.422300294	0	0.48	0.48	1	23.404919287	23.408756401	"2"	565.224725506	559.648510462	1.5	0.1
0.01	1	0.00483388999998624	1	102	NA	33.422300294	0	0.48	0.48	1	23.638766855	23.643600745	"2"	565.224725506	559.648510462	1.5	0.1
0.01	1	0.00470881499998654	1	102	NA	33.422300294	0	0.48	0.48	1	23.872391155	23.87709997	"2"	565.224725506	559.648510462	1.5	0.1
0.01	1	0.00423353900001189	1	102	NA	33.422300294	0	0.48	0.48	1	24.10615853	24.110392069	"2"	565.224725506	559.648510462	1.5	0.1
0.01	1	0.00382086300001561	1	102	NA	33.422300294	0	0.48	0.48	1	24.33979809	24.343618953	"2"	565.224725506	559.648510462	1.5	0.1
0.01	1	0.0038888529999781	1	102	NA	33.422300294	0	0.48	0.48	1	24.573608422	24.577497275	"2"	565.224725506	559.648510462	1.5	0.1
0.01	1	0.00393655700000295	1	102	NA	33.422300294	0	0.48	0.48	1	24.807378732	24.811315289	"2"	565.224725506	559.648510462	1.5	0.1
0.01	1	0.00389677199999028	1	102	NA	33.422300294	0	0.48	0.48	1	25.041066795	25.044963567	"2"	565.224725506	559.648510462	1.5	0.1
0.01	1	0.00408704100001955	1	102	NA	33.422300294	0	0.48	0.48	1	25.274813412	25.278900453	"2"	565.224725506	559.648510462	1.5	0.1
0.01	1	0.00386134300001117	1	102	NA	33.422300294	0	0.48	0.48	1	25.508553082	25.512414425	"2"	565.224725506	559.648510462	1.5	0.1
0.01	1	0.00400717700000541	1	102	NA	33.422300294	0	0.48	0.48	1	25.742167912	25.746175089	"2"	565.224725506	559.648510462	1.5	0.1
0.01	1	0.00337249000000384	1	102	NA	33.422300294	0	0.48	0.48	1	25.976035715	25.979408205	"2"	565.224725506	559.648510462	1.5	0.1
0.01	1	0.00351392499999292	1	102	NA	33.422300294	0	0.48	0.48	1	26.209657732	26.213171657	"2"	565.224725506	559.648510462	1.5	0.1
0.01	1	0.00393038100000354	1	102	NA	33.422300294	0	0.48	0.48	1	26.443436142	26.447366523	"2"	565.224725506	559.648510462	1.5	0.1
0.01	1	0.00395597799999337	1	102	NA	33.422300294	0	0.48	0.48	1	26.677147075	26.681103053	"2"	565.224725506	559.648510462	1.5	0.1
0.01	1	0.00386434999998642	1	102	NA	33.422300294	0	0.48	0.48	1	26.910931425	26.914795775	"2"	565.224725506	559.648510462	1.5	0.1
0.01	1	0.00353153300000031	1	102	NA	33.422300294	0	0.48	0.48	1	27.144588862	27.148120395	"2"	565.224725506	559.648510462	1.5	0.1
0.01	1	0.00400904500000365	1	102	NA	33.422300294	0	0.48	0.48	1	27.378180492	27.382189537	"2"	565.224725506	559.648510462	1.5	0.1
0.01	1	0.00394858900000372	1	102	NA	33.422300294	0	0.48	0.48	1	27.612078592	27.616027181	"2"	565.224725506	559.648510462	1.5	0.1
0.01	1	0.00384042800001794	1	102	NA	33.422300294	0	0.48	0.48	1	27.845803487	27.849643915	"2"	565.224725506	559.648510462	1.5	0.1
0.01	1	0.00461222500001668	1	102	NA	33.422300294	0	0.48	0.48	1	28.079504935	28.08411716	"2"	565.224725506	559.648510462	1.5	0.1
0.01	1	0.00383904500000654	1	102	NA	33.422300294	0	0.48	0.48	1	28.313159552	28.316998597	"2"	565.224725506	559.648510462	1.5	0.1
0.01	1	0.00438455700000873	1	102	NA	33.422300294	0	0.48	0.48	1	28.546988745	28.551373302	"2"	565.224725506	559.648510462	1.5	0.1
0.01	1	0.00382978199999684	1	102	NA	33.422300294	0	0.48	0.48	1	28.780752297	28.784582079	"2"	565.224725506	559.648510462	1.5	0.1
0.01	1	0.00392062799997461	1	102	NA	33.422300294	0	0.48	0.48	1	29.014367767	29.018288395	"2"	565.224725506	559.648510462	1.5	0.1
0.01	1	0.00391760700000532	1	102	NA	33.422300294	0	0.48	0.48	1	29.24810891	29.252026517	"2"	565.224725506	559.648510462	1.5	0.1
0.01	1	0.00460391499998991	1	102	NA	33.422300294	0	0.48	0.48	1	29.481972855	29.48657677	"2"	565.224725506	559.648510462	1.5	0.1
0.01	1	0.00368497100001264	1	102	NA	33.422300294	0	0.48	0.48	1	29.7155756	29.719260571	"2"	565.224725506	559.648510462	1.5	0.1
0.01	1	0.00401523899998324	1	102	NA	33.422300294	0	0.48	0.48	1	29.949235632	29.953250871	"2"	565.224725506	559.648510462	1.5	0.1
0.01	1	0.00401316700001075	1	102	NA	33.422300294	0	0.48	0.48	1	30.18308664	30.187099807	"2"	565.224725506	559.648510462	1.5	0.1
0.01	1	0.00362680599999976	1	102	NA	33.422300294	0	0.48	0.48	1	30.416687205	30.420314011	"2"	565.224725506	559.648510462	1.5	0.1
0.01	1	0.0037138099999936	1	102	NA	33.422300294	0	0.48	0.48	1	30.650423775	30.654137585	"2"	565.224725506	559.648510462	1.5	0.1
0.01	1	0.00429636499998765	1	102	NA	33.422300294	0	0.48	0.48	1	30.88416326	30.888459625	"2"	565.224725506	559.648510462	1.5	0.1
0.01	1	0.00463106999998786	1	102	NA	33.422300294	0	0.48	0.48	1	31.117895895	31.122526965	"2"	565.224725506	559.648510462	1.5	0.1
0.01	1	0.00394644499999686	1	102	NA	33.422300294	0	0.48	0.48	1	31.351650082	31.355596527	"2"	565.224725506	559.648510462	1.5	0.1
0.01	1	0.00359219200001348	1	102	NA	33.422300294	0	0.48	0.48	1	31.585376995	31.588969187	"2"	565.224725506	559.648510462	1.5	0.1
0.01	1	0.00419732399998907	1	102	NA	33.422300294	0	0.48	0.48	1	31.819049701	31.823247025	"2"	565.224725506	559.648510462	1.5	0.1
0.01	1	0.00419233599998847	1	102	NA	33.422300294	0	0.48	0.48	1	32.052840285	32.057032621	"2"	565.224725506	559.648510462	1.5	0.1
0.01	1	0.00392508599998109	1	102	NA	33.422300294	0	0.48	0.48	1	32.286520765	32.290445851	"2"	565.224725506	559.648510462	1.5	0.1
0.01	1	0.00405288099997847	1	102	NA	33.422300294	0	0.48	0.48	1	32.520274572	32.524327453	"2"	565.224725506	559.648510462	1.5	0.1
0.01	1	0.00361854499999481	1	102	NA	33.422300294	0	0.48	0.48	1	32.75394081	32.757559355	"2"	565.224725506	559.648510462	1.5	0.1
0.01	1	0.432779933000006	2	102	NA	33.422300294	0	0.48	0.48	1	32.98775529	33.420535223	"2"	565.224725506	559.648510462	1.5	0.1
0.01	1	0.00449665200000027	1	97	NA	49.59137986	0	0.57	1.05	1	35.4585949	35.463091552	"3"	565.224725506	559.648510462	1.5	0.1
0.01	1	0.00456791700000281	1	97	NA	49.59137986	0	0.57	1.05	1	35.69227693	35.696844847	"3"	565.224725506	559.648510462	1.5	0.1
0.01	1	0.00368160000002149	1	97	NA	49.59137986	0	0.57	1.05	1	35.926028735	35.929710335	"3"	565.224725506	559.648510462	1.5	0.1
0.01	1	0.00412119799997868	1	97	NA	49.59137986	0	0.57	1.05	1	36.159792035	36.163913233	"3"	565.224725506	559.648510462	1.5	0.1
0.01	1	0.003852787999989	1	97	NA	49.59137986	0	0.57	1.05	1	36.393447087	36.397299875	"3"	565.224725506	559.648510462	1.5	0.1
0.01	1	0.00385009000001446	1	97	NA	49.59137986	0	0.57	1.05	1	36.627068005	36.630918095	"3"	565.224725506	559.648510462	1.5	0.1
0.01	1	0.00399953600000913	1	97	NA	49.59137986	0	0.57	1.05	1	36.860998075	36.864997611	"3"	565.224725506	559.648510462	1.5	0.1
0.01	1	0.00389817300001027	1	97	NA	49.59137986	0	0.57	1.05	1	37.094630322	37.098528495	"3"	565.224725506	559.648510462	1.5	0.1
0.01	1	0.00391707299999666	1	97	NA	49.59137986	0	0.57	1.05	1	37.32839376	37.332310833	"3"	565.224725506	559.648510462	1.5	0.1
0.01	1	0.0036533669999983	1	97	NA	49.59137986	0	0.57	1.05	1	37.56206009	37.565713457	"3"	565.224725506	559.648510462	1.5	0.1
0.01	1	0.00401206100002582	1	97	NA	49.59137986	0	0.57	1.05	1	37.795707162	37.799719223	"3"	565.224725506	559.648510462	1.5	0.1
0.01	1	0.00398133799998845	1	97	NA	49.59137986	0	0.57	1.05	1	38.029493855	38.033475193	"3"	565.224725506	559.648510462	1.5	0.1
0.01	1	0.00485550199999807	1	97	NA	49.59137986	0	0.57	1.05	1	38.26337227	38.268227772	"3"	565.224725506	559.648510462	1.5	0.1
0.01	1	0.00488043300001095	1	97	NA	49.59137986	0	0.57	1.05	1	38.497012147	38.50189258	"3"	565.224725506	559.648510462	1.5	0.1
0.01	1	0.00361086200001637	1	97	NA	49.59137986	0	0.57	1.05	1	38.730674855	38.734285717	"3"	565.224725506	559.648510462	1.5	0.1
0.01	1	0.0039102310000203	1	97	NA	49.59137986	0	0.57	1.05	1	38.96445013	38.968360361	"3"	565.224725506	559.648510462	1.5	0.1
0.01	1	0.0045519699999943	1	97	NA	49.59137986	0	0.57	1.05	1	39.19813873	39.2026907	"3"	565.224725506	559.648510462	1.5	0.1
0.01	1	0.0046745969999904	1	97	NA	49.59137986	0	0.57	1.05	1	39.431942805	39.436617402	"3"	565.224725506	559.648510462	1.5	0.1
0.01	1	0.00345100699999534	1	97	NA	49.59137986	0	0.57	1.05	1	39.66565903	39.669110037	"3"	565.224725506	559.648510462	1.5	0.1
0.01	1	0.00333919899998136	1	97	NA	49.59137986	0	0.57	1.05	1	39.899262192	39.902601391	"3"	565.224725506	559.648510462	1.5	0.1
0.01	1	0.00481593500001054	1	97	NA	49.59137986	0	0.57	1.05	1	40.133296465	40.1381124	"3"	565.224725506	559.648510462	1.5	0.1
0.01	1	0.00449088800002073	1	97	NA	49.59137986	0	0.57	1.05	1	40.366825187	40.371316075	"3"	565.224725506	559.648510462	1.5	0.1
0.01	1	0.003374478000012	1	97	NA	49.59137986	0	0.57	1.05	1	40.600683319	40.604057797	"3"	565.224725506	559.648510462	1.5	0.1
0.01	1	0.00383950100001584	1	97	NA	49.59137986	0	0.57	1.05	1	40.83429747	40.838136971	"3"	565.224725506	559.648510462	1.5	0.1
0.01	1	0.00350539699999786	1	97	NA	49.59137986	0	0.57	1.05	1	41.06788482	41.071390217	"3"	565.224725506	559.648510462	1.5	0.1
0.01	1	0.00388213300001894	1	97	NA	49.59137986	0	0.57	1.05	1	41.301714942	41.305597075	"3"	565.224725506	559.648510462	1.5	0.1
0.01	1	0.00382604300000366	1	97	NA	49.59137986	0	0.57	1.05	1	41.53547141	41.539297453	"3"	565.224725506	559.648510462	1.5	0.1
0.01	1	0.00454407500001253	1	97	NA	49.59137986	0	0.57	1.05	1	41.769253135	41.77379721	"3"	565.224725506	559.648510462	1.5	0.1
0.01	1	0.00321649200000707	1	97	NA	49.59137986	0	0.57	1.05	1	42.002912945	42.006129437	"3"	565.224725506	559.648510462	1.5	0.1
0.01	1	0.00380272699999296	1	97	NA	49.59137986	0	0.57	1.05	1	42.236694922	42.240497649	"3"	565.224725506	559.648510462	1.5	0.1
0.01	1	0.00403545699998631	1	97	NA	49.59137986	0	0.57	1.05	1	42.470404712	42.474440169	"3"	565.224725506	559.648510462	1.5	0.1
0.01	1	0.00333682799998769	1	97	NA	49.59137986	0	0.57	1.05	1	42.704242125	42.707578953	"3"	565.224725506	559.648510462	1.5	0.1
0.01	1	0.00453819500000918	1	97	NA	49.59137986	0	0.57	1.05	1	42.937768875	42.94230707	"3"	565.224725506	559.648510462	1.5	0.1
0.01	1	0.00372293399999535	1	97	NA	49.59137986	0	0.57	1.05	1	43.171518115	43.175241049	"3"	565.224725506	559.648510462	1.5	0.1
0.01	1	0.0038201740000261	1	97	NA	49.59137986	0	0.57	1.05	1	43.405240565	43.409060739	"3"	565.224725506	559.648510462	1.5	0.1
0.01	1	0.00400738000001866	1	97	NA	49.59137986	0	0.57	1.05	1	43.638976685	43.642984065	"3"	565.224725506	559.648510462	1.5	0.1
0.01	1	0.00397378100001333	1	97	NA	49.59137986	0	0.57	1.05	1	43.872751232	43.876725013	"3"	565.224725506	559.648510462	1.5	0.1
0.01	1	0.00354100300000937	1	97	NA	49.59137986	0	0.57	1.05	1	44.10652921	44.110070213	"3"	565.224725506	559.648510462	1.5	0.1
0.01	1	0.00338381799997478	1	97	NA	49.59137986	0	0.57	1.05	1	44.340022295	44.343406113	"3"	565.224725506	559.648510462	1.5	0.1
0.01	1	0.00381597000000511	1	97	NA	49.59137986	0	0.57	1.05	1	44.573911867	44.577727837	"3"	565.224725506	559.648510462	1.5	0.1
0.01	1	0.0043984349999846	1	97	NA	49.59137986	0	0.57	1.05	1	44.807600245	44.81199868	"3"	565.224725506	559.648510462	1.5	0.1
0.01	1	0.00395751500002461	1	97	NA	49.59137986	0	0.57	1.05	1	45.04128808	45.045245595	"3"	565.224725506	559.648510462	1.5	0.1
0.01	1	0.00397739100000649	1	97	NA	49.59137986	0	0.57	1.05	1	45.27502671	45.279004101	"3"	565.224725506	559.648510462	1.5	0.1
0.01	1	0.0799005840000007	1	97	NA	49.59137986	0	0.57	1.05	1	45.5086889	45.588589484	"3"	565.224725506	559.648510462	1.5	0.1
0.01	1	0.00393453799998156	1	97	NA	49.59137986	0	0.57	1.05	1	45.825958087	45.829892625	"3"	565.224725506	559.648510462	1.5	0.1
0.01	1	0.00350053600001843	1	97	NA	49.59137986	0	0.57	1.05	1	46.059733887	46.063234423	"3"	565.224725506	559.648510462	1.5	0.1
0.01	1	0.00390138299999876	1	97	NA	49.59137986	0	0.57	1.05	1	46.29345139	46.297352773	"3"	565.224725506	559.648510462	1.5	0.1
0.01	1	0.00386325200000215	1	97	NA	49.59137986	0	0.57	1.05	1	46.527132467	46.530995719	"3"	565.224725506	559.648510462	1.5	0.1
0.01	1	0.00390354300000695	1	97	NA	49.59137986	0	0.57	1.05	1	46.76097405	46.764877593	"3"	565.224725506	559.648510462	1.5	0.1
0.01	1	0.00326676000000248	1	97	NA	49.59137986	0	0.57	1.05	1	46.994589359	46.997856119	"3"	565.224725506	559.648510462	1.5	0.1
0.01	1	0.00329634000001988	1	97	NA	49.59137986	0	0.57	1.05	1	47.228358717	47.231655057	"3"	565.224725506	559.648510462	1.5	0.1
0.01	1	0.00211148799999705	1	97	NA	49.59137986	0	0.57	1.05	1	47.462128207	47.464239695	"3"	565.224725506	559.648510462	1.5	0.1
0.01	1	0.188287177000007	1	97	NA	49.59137986	0	0.57	1.05	1	47.69591079	47.884197967	"3"	565.224725506	559.648510462	1.5	0.1
0.01	1	0.00365844799998172	1	97	NA	49.59137986	0	0.57	1.05	1	48.113139195	48.116797643	"3"	565.224725506	559.648510462	1.5	0.1
0.01	1	0.0043751400000076	1	97	NA	49.59137986	0	0.57	1.05	1	48.346854845	48.351229985	"3"	565.224725506	559.648510462	1.5	0.1
0.01	1	0.0637925430000053	1	97	NA	49.59137986	0	0.57	1.05	1	48.58072291	48.644515453	"3"	565.224725506	559.648510462	1.5	0.1
0.01	1	0.21139084699999	1	97	NA	49.59137986	0	0.57	1.05	1	48.88112224	49.092513087	"3"	565.224725506	559.648510462	1.5	0.1
0.01	1	0.274509102999986	2	97	NA	49.59137986	0	0.57	1.05	1	49.31528849	49.589797593	"3"	565.224725506	559.648510462	1.5	0.1
0.01	1	0.00385052800001517	1	51	NA	63.055554591	0	0.47	1.52	1	51.635761125	51.639611653	"4"	565.224725506	559.648510462	1.5	0.1
0.01	1	0.00370505099999718	1	51	NA	63.055554591	0	0.47	1.52	1	51.869524232	51.873229283	"4"	565.224725506	559.648510462	1.5	0.1
0.01	1	0.0034845670000152	1	51	NA	63.055554591	0	0.47	1.52	1	52.10322827	52.106712837	"4"	565.224725506	559.648510462	1.5	0.1
0.01	1	0.00372486499998104	1	51	NA	63.055554591	0	0.47	1.52	1	52.336893432	52.340618297	"4"	565.224725506	559.648510462	1.5	0.1
0.01	1	0.00486090699999409	1	51	NA	63.055554591	0	0.47	1.52	1	52.57063489	52.575495797	"4"	565.224725506	559.648510462	1.5	0.1
0.01	1	0.00392343100000403	1	51	NA	63.055554591	0	0.47	1.52	1	52.80441857	52.808342001	"4"	565.224725506	559.648510462	1.5	0.1
0.01	1	0.00368735899999706	1	51	NA	63.055554591	0	0.47	1.52	1	53.03812137	53.041808729	"4"	565.224725506	559.648510462	1.5	0.1
0.01	1	0.0039285749999749	1	51	NA	63.055554591	0	0.47	1.52	1	53.27183862	53.275767195	"4"	565.224725506	559.648510462	1.5	0.1
0.01	1	0.00356546900002286	1	51	NA	63.055554591	0	0.47	1.52	1	53.505558972	53.509124441	"4"	565.224725506	559.648510462	1.5	0.1
0.01	1	0.00460284999999772	1	51	NA	63.055554591	0	0.47	1.52	1	53.739392475	53.743995325	"4"	565.224725506	559.648510462	1.5	0.1
0.01	1	0.00458150600002227	1	51	NA	63.055554591	0	0.47	1.52	1	53.973020804	53.97760231	"4"	565.224725506	559.648510462	1.5	0.1
0.01	1	0.0046138449999944	1	51	NA	63.055554591	0	0.47	1.52	1	54.206762035	54.21137588	"4"	565.224725506	559.648510462	1.5	0.1
0.01	1	0.0046172570000067	1	51	NA	63.055554591	0	0.47	1.52	1	54.440611655	54.445228912	"4"	565.224725506	559.648510462	1.5	0.1
0.01	1	0.00340576700000383	1	51	NA	63.055554591	0	0.47	1.52	1	54.674209072	54.677614839	"4"	565.224725506	559.648510462	1.5	0.1
0.01	1	0.00399721799999497	1	51	NA	63.055554591	0	0.47	1.52	1	54.907923775	54.911920993	"4"	565.224725506	559.648510462	1.5	0.1
0.01	1	0.00387666000000308	1	51	NA	63.055554591	0	0.47	1.52	1	55.141547145	55.145423805	"4"	565.224725506	559.648510462	1.5	0.1
0.01	1	0.00401296100000081	1	51	NA	63.055554591	0	0.47	1.52	1	55.37539064	55.379403601	"4"	565.224725506	559.648510462	1.5	0.1
0.01	1	0.00464730199999508	1	51	NA	63.055554591	0	0.47	1.52	1	55.60907458	55.613721882	"4"	565.224725506	559.648510462	1.5	0.1
0.01	1	0.00386498599999641	1	51	NA	63.055554591	0	0.47	1.52	1	55.842771175	55.846636161	"4"	565.224725506	559.648510462	1.5	0.1
0.01	1	0.00389262199999507	1	51	NA	63.055554591	0	0.47	1.52	1	56.076589055	56.080481677	"4"	565.224725506	559.648510462	1.5	0.1
0.01	1	0.0038392180000244	1	51	NA	63.055554591	0	0.47	1.52	1	56.310280115	56.314119333	"4"	565.224725506	559.648510462	1.5	0.1
0.01	1	0.00417309699997759	1	51	NA	63.055554591	0	0.47	1.52	1	56.544050402	56.548223499	"4"	565.224725506	559.648510462	1.5	0.1
0.01	1	0.00343084699997576	1	51	NA	63.055554591	0	0.47	1.52	1	56.77763046	56.781061307	"4"	565.224725506	559.648510462	1.5	0.1
0.01	1	0.00383851600000185	1	51	NA	63.055554591	0	0.47	1.52	1	57.011403465	57.015241981	"4"	565.224725506	559.648510462	1.5	0.1
0.01	1	0.00421426700000893	1	51	NA	63.055554591	0	0.47	1.52	1	57.24516194	57.249376207	"4"	565.224725506	559.648510462	1.5	0.1
0.01	1	0.00404922600000646	1	51	NA	63.055554591	0	0.47	1.52	1	57.478876515	57.482925741	"4"	565.224725506	559.648510462	1.5	0.1
0.01	1	0.00327146999998718	1	51	NA	63.055554591	0	0.47	1.52	1	57.712673373	57.715944843	"4"	565.224725506	559.648510462	1.5	0.1
0.01	1	0.00379862799999842	1	51	NA	63.055554591	0	0.47	1.52	1	57.946265915	57.950064543	"4"	565.224725506	559.648510462	1.5	0.1
0.01	1	0.00391678500000125	1	51	NA	63.055554591	0	0.47	1.52	1	58.180115862	58.184032647	"4"	565.224725506	559.648510462	1.5	0.1
0.01	1	0.00411482499998783	1	51	NA	63.055554591	0	0.47	1.52	1	58.41379042	58.417905245	"4"	565.224725506	559.648510462	1.5	0.1
0.01	1	0.00459074199997644	1	51	NA	63.055554591	0	0.47	1.52	1	58.64762658	58.652217322	"4"	565.224725506	559.648510462	1.5	0.1
0.01	1	0.00455623700000274	1	51	NA	63.055554591	0	0.47	1.52	1	58.881254005	58.885810242	"4"	565.224725506	559.648510462	1.5	0.1
0.01	1	0.00391496099999245	1	51	NA	63.055554591	0	0.47	1.52	1	59.114946892	59.118861853	"4"	565.224725506	559.648510462	1.5	0.1
0.01	1	0.0038226079999788	1	51	NA	63.055554591	0	0.47	1.52	1	59.348707377	59.352529985	"4"	565.224725506	559.648510462	1.5	0.1
0.01	1	0.00459875000001375	1	51	NA	63.055554591	0	0.47	1.52	1	59.58248325	59.587082	"4"	565.224725506	559.648510462	1.5	0.1
0.01	1	0.00459117500000161	1	51	NA	63.055554591	0	0.47	1.52	1	59.816120065	59.82071124	"4"	565.224725506	559.648510462	1.5	0.1
0.01	1	0.00364746299999297	1	51	NA	63.055554591	0	0.47	1.52	1	60.049863862	60.053511325	"4"	565.224725506	559.648510462	1.5	0.1
0.01	1	0.0036975659999996	1	51	NA	63.055554591	0	0.47	1.52	1	60.283595595	60.287293161	"4"	565.224725506	559.648510462	1.5	0.1
0.01	1	0.0048214549999841	1	51	NA	63.055554591	0	0.47	1.52	1	60.517305945	60.5221274	"4"	565.224725506	559.648510462	1.5	0.1
0.01	1	0.00390622500000859	1	51	NA	63.055554591	0	0.47	1.52	1	60.751106422	60.755012647	"4"	565.224725506	559.648510462	1.5	0.1
0.01	1	0.00336154400000055	1	51	NA	63.055554591	0	0.47	1.52	1	60.984746331	60.988107875	"4"	565.224725506	559.648510462	1.5	0.1
0.01	1	0.00326588400000105	1	51	NA	63.055554591	0	0.47	1.52	1	61.218427329	61.221693213	"4"	565.224725506	559.648510462	1.5	0.1
0.01	1	0.00406441999999174	1	51	NA	63.055554591	0	0.47	1.52	1	61.452135505	61.456199925	"4"	565.224725506	559.648510462	1.5	0.1
0.01	1	0.00392122300002029	1	51	NA	63.055554591	0	0.47	1.52	1	61.68598521	61.689906433	"4"	565.224725506	559.648510462	1.5	0.1
0.01	1	0.00479588500002137	1	51	NA	63.055554591	0	0.47	1.52	1	61.919666327	61.924462212	"4"	565.224725506	559.648510462	1.5	0.1
0.01	1	0.00257063500001209	1	51	NA	63.055554591	0	0.47	1.52	1	62.153308297	62.155878932	"4"	565.224725506	559.648510462	1.5	0.1
0.01	1	0.00392798100000391	1	51	NA	63.055554591	0	0.47	1.52	1	62.387138572	62.391066553	"4"	565.224725506	559.648510462	1.5	0.1
0.01	1	0.433008634000004	2	51	NA	63.055554591	0	0.47	1.52	1	62.620844507	63.053853141	"4"	565.224725506	559.648510462	1.5	0.1
0.01	1	0.0252299550000146	1	116	NA	77.81512438	0	0.42	1.94	1	65.108387135	65.13361709	"5"	565.224725506	559.648510462	1.5	0.1
0.01	1	0.00385879899999964	1	116	NA	77.81512438	0	0.42	1.94	1	65.35878253	65.362641329	"5"	565.224725506	559.648510462	1.5	0.1
0.01	1	0.0046319369999992	1	116	NA	77.81512438	0	0.42	1.94	1	65.592553155	65.597185092	"5"	565.224725506	559.648510462	1.5	0.1
0.01	1	0.00421630399998207	1	116	NA	77.81512438	0	0.42	1.94	1	65.826292155	65.830508459	"5"	565.224725506	559.648510462	1.5	0.1
0.01	1	0.00384051199998225	1	116	NA	77.81512438	0	0.42	1.94	1	66.060045155	66.063885667	"5"	565.224725506	559.648510462	1.5	0.1
0.01	1	0.00399878099997864	1	116	NA	77.81512438	0	0.42	1.94	1	66.293766	66.297764781	"5"	565.224725506	559.648510462	1.5	0.1
0.01	1	0.013929294999997	1	116	NA	77.81512438	0	0.42	1.94	1	66.52752094	66.541450235	"5"	565.224725506	559.648510462	1.5	0.1
0.01	1	0.0825317919999975	1	116	NA	77.81512438	0	0.42	1.94	1	66.77778305	66.860314842	"5"	565.224725506	559.648510462	1.5	0.1
0.01	1	0.0224505680000107	1	116	NA	77.81512438	0	0.42	1.94	1	67.095101962	67.11755253	"5"	565.224725506	559.648510462	1.5	0.1
0.01	1	0.116475772000001	1	116	NA	77.81512438	0	0.42	1.94	1	67.34551076	67.461986532	"5"	565.224725506	559.648510462	1.5	0.1
0.01	1	0.0131726090000086	1	116	NA	77.81512438	0	0.42	1.94	1	67.696070925	67.709243534	"5"	565.224725506	559.648510462	1.5	0.1
0.01	1	0.0045964720000029	1	116	NA	77.81512438	0	0.42	1.94	1	67.94654387	67.951140342	"5"	565.224725506	559.648510462	1.5	0.1
0.01	1	0.0574046309999972	1	116	NA	77.81512438	0	0.42	1.94	1	68.180306495	68.237711126	"5"	565.224725506	559.648510462	1.5	0.1
0.01	1	0.116880594999998	1	116	NA	77.81512438	0	0.42	1.94	1	68.463995555	68.58087615	"5"	565.224725506	559.648510462	1.5	0.1
0.01	1	0.0876992469999891	1	116	NA	77.81512438	0	0.42	1.94	1	68.814597865	68.902297112	"5"	565.224725506	559.648510462	1.5	0.1
0.01	1	0.121758851999999	1	116	NA	77.81512438	0	0.42	1.94	1	69.131764133	69.253522985	"5"	565.224725506	559.648510462	1.5	0.1
0.01	1	0.0996209700000179	1	116	NA	77.81512438	0	0.42	1.94	1	69.482600385	69.582221355	"5"	565.224725506	559.648510462	1.5	0.1
0.01	1	0.0858313469999814	1	116	NA	77.81512438	0	0.42	1.94	1	69.816406322	69.902237669	"5"	565.224725506	559.648510462	1.5	0.1
0.01	1	0.096156064000013	1	116	NA	77.81512438	0	0.42	1.94	1	70.13348781	70.229643874	"5"	565.224725506	559.648510462	1.5	0.1
0.01	1	0.0650172429999998	1	116	NA	77.81512438	0	0.42	1.94	1	70.46745736	70.532474603	"5"	565.224725506	559.648510462	1.5	0.1
0.01	1	0.0620748750000075	1	116	NA	77.81512438	0	0.42	1.94	1	70.767922435	70.82999731	"5"	565.224725506	559.648510462	1.5	0.1
0.01	1	0.0488095290000103	1	116	NA	77.81512438	0	0.42	1.94	1	71.06840916	71.117218689	"5"	565.224725506	559.648510462	1.5	0.1
0.01	1	0.0840884769999946	1	116	NA	77.81512438	0	0.42	1.94	1	71.352209835	71.436298312	"5"	565.224725506	559.648510462	1.5	0.1
0.01	1	0.0881805390000068	1	116	NA	77.81512438	0	0.42	1.94	1	71.669405849	71.757586388	"5"	565.224725506	559.648510462	1.5	0.1
0.01	1	0.0986272889999782	1	116	NA	77.81512438	0	0.42	1.94	1	71.986569513	72.085196802	"5"	565.224725506	559.648510462	1.5	0.1
0.01	1	0.0848047039999926	1	116	NA	77.81512438	0	0.42	1.94	1	72.320513587	72.405318291	"5"	565.224725506	559.648510462	1.5	0.1
0.01	1	0.103667406999989	1	116	NA	77.81512438	0	0.42	1.94	1	72.637688187	72.741355594	"5"	565.224725506	559.648510462	1.5	0.1
0.01	1	0.0971610480000038	1	116	NA	77.81512438	0	0.42	1.94	1	72.971583187	73.068744235	"5"	565.224725506	559.648510462	1.5	0.1
0.01	1	0.107818441000006	1	116	NA	77.81512438	0	0.42	1.94	1	73.305481333	73.413299774	"5"	565.224725506	559.648510462	1.5	0.1
0.01	1	0.149745506000016	1	116	NA	77.81512438	0	0.42	1.94	1	73.639404002	73.789149508	"5"	565.224725506	559.648510462	1.5	0.1
0.01	1	0.180903736999994	1	116	NA	77.81512438	0	0.42	1.94	1	74.0234017	74.204305437	"5"	565.224725506	559.648510462	1.5	0.1
0.01	1	0.00455445000000054	1	116	NA	77.81512438	0	0.42	1.94	1	74.440821395	74.445375845	"5"	565.224725506	559.648510462	1.5	0.1
0.01	1	0.0669038300000011	1	116	NA	77.81512438	0	0.42	1.94	1	74.674502895	74.741406725	"5"	565.224725506	559.648510462	1.5	0.1
0.01	1	0.00220150999999191	1	116	NA	77.81512438	0	0.42	1.94	1	74.974979335	74.977180845	"5"	565.224725506	559.648510462	1.5	0.1
0.01	1	0.0765688749999924	1	116	NA	77.81512438	0	0.42	1.94	1	75.208589007	75.285157882	"5"	565.224725506	559.648510462	1.5	0.1
0.01	1	0.0310900839999988	1	116	NA	77.81512438	0	0.42	1.94	1	75.509287195	75.540377279	"5"	565.224725506	559.648510462	1.5	0.1
0.01	1	0.00717674699998838	1	116	NA	77.81512438	0	0.42	1.94	1	75.77632448	75.783501227	"5"	565.224725506	559.648510462	1.5	0.1
0.01	1	0.0980607259999999	1	116	NA	77.81512438	0	0.42	1.94	1	76.010080722	76.108141448	"5"	565.224725506	559.648510462	1.5	0.1
0.01	1	0.0609808090000001	1	116	NA	77.81512438	0	0.42	1.94	1	76.344026335	76.405007144	"5"	565.224725506	559.648510462	1.5	0.1
0.01	1	0.00212344999999914	1	116	NA	77.81512438	0	0.42	1.94	1	76.627693405	76.629816855	"5"	565.224725506	559.648510462	1.5	0.1
0.01	1	0.0306428339999911	1	116	NA	77.81512438	0	0.42	1.94	1	76.861490865	76.892133699	"5"	565.224725506	559.648510462	1.5	0.1
0.01	1	0.164963517999979	1	116	NA	77.81512438	0	0.42	1.94	1	77.128640012	77.29360353	"5"	565.224725506	559.648510462	1.5	0.1
0.01	1	0.284203956999988	2	116	NA	77.81512438	0	0.42	1.94	1	77.529370287	77.813574244	"5"	565.224725506	559.648510462	1.5	0.1
0.01	1	0.306342019999988	1	118	NA	87.887354831	0	0.29	2.23	1	79.866553825	80.172895845	"6"	565.224725506	559.648510462	1.5	0.1
0.01	1	0.00218866299999831	1	118	NA	87.887354831	0	0.29	2.23	1	80.400807601	80.402996264	"6"	565.224725506	559.648510462	1.5	0.1
0.01	1	0.0495635510000056	1	118	NA	87.887354831	0	0.29	2.23	1	80.634558572	80.684122123	"6"	565.224725506	559.648510462	1.5	0.1
0.01	1	0.00394261100001358	1	118	NA	87.887354831	0	0.29	2.23	1	80.918252282	80.922194893	"6"	565.224725506	559.648510462	1.5	0.1
0.01	1	0.00200459100000216	1	118	NA	87.887354831	0	0.29	2.23	1	81.152096134	81.154100725	"6"	565.224725506	559.648510462	1.5	0.1
0.01	1	0.0280452370000148	1	118	NA	87.887354831	0	0.29	2.23	1	81.385835645	81.413880882	"6"	565.224725506	559.648510462	1.5	0.1
0.01	1	0.0657436639999958	1	118	NA	87.887354831	0	0.29	2.23	1	81.636172032	81.701915696	"6"	565.224725506	559.648510462	1.5	0.1
0.01	1	0.0275097330000165	1	118	NA	87.887354831	0	0.29	2.23	1	81.93665186	81.964161593	"6"	565.224725506	559.648510462	1.5	0.1
0.01	1	0.041361720999987	1	118	NA	87.887354831	0	0.29	2.23	1	82.18706777	82.228429491	"6"	565.224725506	559.648510462	1.5	0.1
0.01	1	0.0378975789999743	1	118	NA	87.887354831	0	0.29	2.23	1	82.45424571	82.492143289	"6"	565.224725506	559.648510462	1.5	0.1
0.01	1	0.0194599149999988	1	118	NA	87.887354831	0	0.29	2.23	1	82.721293007	82.740752922	"6"	565.224725506	559.648510462	1.5	0.1
0.01	1	0.00484824500000514	1	118	NA	87.887354831	0	0.29	2.23	1	82.97174016	82.976588405	"6"	565.224725506	559.648510462	1.5	0.1
0.01	1	0.00417465300000686	1	118	NA	87.887354831	0	0.29	2.23	1	83.205391827	83.20956648	"6"	565.224725506	559.648510462	1.5	0.1
0.01	1	0.0229418190000104	1	118	NA	87.887354831	0	0.29	2.23	1	83.439213987	83.462155806	"6"	565.224725506	559.648510462	1.5	0.1
0.01	1	0.0349370750000162	1	118	NA	87.887354831	0	0.29	2.23	1	83.689627275	83.72456435	"6"	565.224725506	559.648510462	1.5	0.1
0.01	1	0.0563485449999916	1	118	NA	87.887354831	0	0.29	2.23	1	83.956773535	84.01312208	"6"	565.224725506	559.648510462	1.5	0.1
0.01	1	0.0521482009999943	1	118	NA	87.887354831	0	0.29	2.23	1	84.240548085	84.292696286	"6"	565.224725506	559.648510462	1.5	0.1
0.01	1	0.0420061829999838	1	118	NA	87.887354831	0	0.29	2.23	1	84.52438906	84.566395243	"6"	565.224725506	559.648510462	1.5	0.1
0.01	1	0.00203811899999096	1	118	NA	87.887354831	0	0.29	2.23	1	84.791512843	84.793550962	"6"	565.224725506	559.648510462	1.5	0.1
0.01	1	0.0206025509999961	1	118	NA	87.887354831	0	0.29	2.23	1	85.02522818	85.045830731	"6"	565.224725506	559.648510462	1.5	0.1
0.01	1	0.0650377489999983	1	118	NA	87.887354831	0	0.29	2.23	1	85.27571655	85.340754299	"6"	565.224725506	559.648510462	1.5	0.1
0.01	1	0.0541081789999964	1	118	NA	87.887354831	0	0.29	2.23	1	85.576107635	85.630215814	"6"	565.224725506	559.648510462	1.5	0.1
0.01	1	0.0581950280000001	1	118	NA	87.887354831	0	0.29	2.23	1	85.859981965	85.918176993	"6"	565.224725506	559.648510462	1.5	0.1
0.01	1	0.0690654850000101	1	118	NA	87.887354831	0	0.29	2.23	1	86.143738832	86.212804317	"6"	565.224725506	559.648510462	1.5	0.1
0.01	1	0.0403128519999996	1	118	NA	87.887354831	0	0.29	2.23	1	86.444230025	86.484542877	"6"	565.224725506	559.648510462	1.5	0.1
0.01	1	0.054131496999986	1	118	NA	87.887354831	0	0.29	2.23	1	86.711402512	86.765534009	"6"	565.224725506	559.648510462	1.5	0.1
0.01	1	0.0493962889999864	1	118	NA	87.887354831	0	0.29	2.23	1	86.995194295	87.044590584	"6"	565.224725506	559.648510462	1.5	0.1
0.01	1	0.0863457309999944	1	118	NA	87.887354831	0	0.29	2.23	1	87.278965712	87.365311443	"6"	565.224725506	559.648510462	1.5	0.1
0.01	1	0.00247054600004049	1	118	NA	87.887354831	0	0.29	2.23	1	87.596138437	87.598608983	"6"	565.224725506	559.648510462	1.5	0.1
0.01	1	0.0557606489999785	NA	118	NA	87.887354831	0	0.29	2.23	1	87.829983443	87.885744092	"6"	565.224725506	559.648510462	1.5	0.1
0.01	1	0.455593985999997	2	87	NA	90.390635702	0	0	2.23	1	89.933478874	90.38907286	"7"	565.224725506	559.648510462	1.5	0.1
0.01	1	0.464304107000032	1	6	94.61092863	NA	1	0	2.23	1	92.437661361	92.901965468	"8"	565.224725506	559.648510462	1.5	0.1
0.01	1	0.0673517920000108	1	6	94.61092863	NA	1	0	2.23	1	93.13888634	93.206238132	"8"	565.224725506	559.648510462	1.5	0.1
0.01	1	0.0930637419999698	1	6	94.61092863	NA	1	0	2.23	1	93.439401545	93.532465287	"8"	565.224725506	559.648510462	1.5	0.1
0.01	1	0.0966073120000033	1	6	94.61092863	NA	1	0	2.23	1	93.756604464	93.853211776	"8"	565.224725506	559.648510462	1.5	0.1
0.01	1	0.0902205350000145	1	6	94.61092863	NA	1	0	2.23	1	94.09037387	94.180594405	"8"	565.224725506	559.648510462	1.5	0.1
0.01	1	0.093665279999982	1	6	94.61092863	NA	1	0	2.23	1	94.4076503	94.50131558	"8"	565.224725506	559.648510462	1.5	0.1
0.01	1	0.0389247709999836	1	106	NA	97.782339387	0	0.03	2.26	1	96.661451702	96.700376473	"9"	565.224725506	559.648510462	1.5	0.1
0.01	1	0.00444408800001383	1	106	NA	97.782339387	0	0.03	2.26	1	96.928543154	96.932987242	"9"	565.224725506	559.648510462	1.5	0.1
0.01	1	0.0109867959999974	1	106	NA	97.782339387	0	0.03	2.26	1	97.162311345	97.173298141	"9"	565.224725506	559.648510462	1.5	0.1
0.01	1	0.368126327000027	2	106	NA	97.782339387	0	0.03	2.26	1	97.412692937	97.780819264	"9"	565.224725506	559.648510462	1.5	0.1
0.01	1	0.339429804000019	1	21	NA	103.90307571	0	0.12	2.38	1	99.816696315	100.156126119	"10"	565.224725506	559.648510462	1.5	0.1
0.01	1	0.085770129000025	1	21	NA	103.90307571	0	0.12	2.38	1	100.384286735	100.470056864	"10"	565.224725506	559.648510462	1.5	0.1
0.01	1	0.167174812999974	1	21	NA	103.90307571	0	0.12	2.38	1	100.701546441	100.868721254	"10"	565.224725506	559.648510462	1.5	0.1
0.01	1	0.0038180509999961	1	21	NA	103.90307571	0	0.12	2.38	1	101.102267202	101.106085253	"10"	565.224725506	559.648510462	1.5	0.1
0.01	1	0.0539519199999745	1	21	NA	103.90307571	0	0.12	2.38	1	101.335957165	101.389909085	"10"	565.224725506	559.648510462	1.5	0.1
0.01	1	0.00394589999996242	1	21	NA	103.90307571	0	0.12	2.38	1	101.619798875	101.623744775	"10"	565.224725506	559.648510462	1.5	0.1
0.01	1	0.0715287149999995	1	21	NA	103.90307571	0	0.12	2.38	1	101.853477335	101.92500605	"10"	565.224725506	559.648510462	1.5	0.1
0.01	1	0.00456372000002148	1	21	NA	103.90307571	0	0.12	2.38	1	102.153997985	102.158561705	"10"	565.224725506	559.648510462	1.5	0.1
0.01	1	0.105725928999959	1	21	NA	103.90307571	0	0.12	2.38	1	102.387723282	102.493449211	"10"	565.224725506	559.648510462	1.5	0.1
0.01	1	0.00225485799995795	1	21	NA	103.90307571	0	0.12	2.38	1	102.721567427	102.723822285	"10"	565.224725506	559.648510462	1.5	0.1
0.01	1	0.0901385570000457	1	21	NA	103.90307571	0	0.12	2.38	1	102.955369477	103.045508034	"10"	565.224725506	559.648510462	1.5	0.1
0.01	1	0.00457916499999556	1	21	NA	103.90307571	0	0.12	2.38	1	103.27251145	103.277090615	"10"	565.224725506	559.648510462	1.5	0.1
0.01	1	0.395287808000035	2	21	NA	103.90307571	0	0.12	2.38	1	103.506263017	103.901550825	"10"	565.224725506	559.648510462	1.5	0.1
0.01	1	0.285236011000052	1	19	111.572270175	NA	1	0	2.38	1	105.926943072	106.212179083	"11"	565.224725506	559.648510462	1.5	0.1
0.01	1	0.0650549800000135	1	19	111.572270175	NA	1	0	2.38	1	106.44458195	106.50963693	"11"	565.224725506	559.648510462	1.5	0.1
0.01	1	0.0684290470000519	1	19	111.572270175	NA	1	0	2.38	1	106.745051867	106.813480914	"11"	565.224725506	559.648510462	1.5	0.1
0.01	1	0.071915826999998	1	19	111.572270175	NA	1	0	2.38	1	107.045554615	107.117470442	"11"	565.224725506	559.648510462	1.5	0.1
0.01	1	0.0749936889999958	1	19	111.572270175	NA	1	0	2.38	1	107.346248785	107.421242474	"11"	565.224725506	559.648510462	1.5	0.1
0.01	1	0.00381040299998858	1	19	111.572270175	NA	1	0	2.38	1	107.646553182	107.650363585	"11"	565.224725506	559.648510462	1.5	0.1
0.01	1	0.0295816519999903	1	19	111.572270175	NA	1	0	2.38	1	107.880316541	107.909898193	"11"	565.224725506	559.648510462	1.5	0.1
0.01	1	0.106150026000023	1	19	111.572270175	NA	1	0	2.38	1	108.130664589	108.236814615	"11"	565.224725506	559.648510462	1.5	0.1
0.01	1	0.00371542700003147	1	19	111.572270175	NA	1	0	2.38	1	108.464563452	108.468278879	"11"	565.224725506	559.648510462	1.5	0.1
0.01	1	0.0662090620000413	1	19	111.572270175	NA	1	0	2.38	1	108.69832746	108.764536522	"11"	565.224725506	559.648510462	1.5	0.1
0.01	1	0.0020084170000132	1	19	111.572270175	NA	1	0	2.38	1	108.998820442	109.000828859	"11"	565.224725506	559.648510462	1.5	0.1
0.01	1	0.0531842930000153	1	19	111.572270175	NA	1	0	2.38	1	109.23257851	109.285762803	"11"	565.224725506	559.648510462	1.5	0.1
0.01	1	0.00209354200001144	1	19	111.572270175	NA	1	0	2.38	1	109.516243207	109.518336749	"11"	565.224725506	559.648510462	1.5	0.1
0.01	1	0.0866862369999808	1	19	111.572270175	NA	1	0	2.38	1	109.750183767	109.836870004	"11"	565.224725506	559.648510462	1.5	0.1
0.01	1	0.113512426	1	19	111.572270175	NA	1	0	2.38	1	110.067484885	110.180997311	"11"	565.224725506	559.648510462	1.5	0.1
0.01	1	0.11603623100001	1	19	111.572270175	NA	1	0	2.38	1	110.417908567	110.533944798	"11"	565.224725506	559.648510462	1.5	0.1
0.01	1	0.116983559999994	1	19	111.572270175	NA	1	0	2.38	1	110.768509635	110.885493195	"11"	565.224725506	559.648510462	1.5	0.1
0.01	1	0.110523828999987	1	19	111.572270175	NA	1	0	2.38	1	111.1190438	111.229567629	"11"	565.224725506	559.648510462	1.5	0.1
0.01	1	0.00388538900000412	1	19	111.572270175	NA	1	0	2.38	1	111.45298208	111.456867469	"11"	565.224725506	559.648510462	1.5	0.1
0.01	1	0.00451961999999639	1	63	NA	117.766972143	0	0.11	2.49	1	113.62335808	113.6278777	"12"	565.224725506	559.648510462	1.5	0.1
0.01	1	0.0767720789999657	1	63	NA	117.766972143	0	0.11	2.49	1	113.857000925	113.933773004	"12"	565.224725506	559.648510462	1.5	0.1
0.01	1	0.0796098310000275	1	63	NA	117.766972143	0	0.11	2.49	1	114.157436885	114.237046716	"12"	565.224725506	559.648510462	1.5	0.1
0.01	1	0.178476355000043	1	63	NA	117.766972143	0	0.11	2.49	1	114.474788792	114.653265147	"12"	565.224725506	559.648510462	1.5	0.1
0.01	1	0.130514359000017	1	63	NA	117.766972143	0	0.11	2.49	1	114.87535442	115.005868779	"12"	565.224725506	559.648510462	1.5	0.1
0.01	1	0.114720236000039	1	63	NA	117.766972143	0	0.11	2.49	1	115.24268304	115.357403276	"12"	565.224725506	559.648510462	1.5	0.1
0.01	1	0.116727725999965	1	63	NA	117.766972143	0	0.11	2.49	1	115.59337347	115.710101196	"12"	565.224725506	559.648510462	1.5	0.1
0.01	1	0.118462208999972	1	63	NA	117.766972143	0	0.11	2.49	1	115.943839485	116.062301694	"12"	565.224725506	559.648510462	1.5	0.1
0.01	1	0.103008108999973	1	63	NA	117.766972143	0	0.11	2.49	1	116.29440311	116.397411219	"12"	565.224725506	559.648510462	1.5	0.1
0.01	1	0.0877381770000056	1	63	NA	117.766972143	0	0.11	2.49	1	116.661749625	116.749487802	"12"	565.224725506	559.648510462	1.5	0.1
0.01	1	0.131158072000005	1	63	NA	117.766972143	0	0.11	2.49	1	116.97885577	117.110013842	"12"	565.224725506	559.648510462	1.5	0.1
0.01	1	0.41928580199999	2	63	NA	117.766972143	0	0.11	2.49	1	117.346165027	117.765450829	"12"	565.224725506	559.648510462	1.5	0.1
0.01	1	0.0032817439999917	1	54	NA	128.094176412	0	0.15	2.64	1	119.800345489	119.803627233	"13"	565.224725506	559.648510462	1.5	0.1
0.01	1	0.113982017000012	1	54	NA	128.094176412	0	0.15	2.64	1	120.034089222	120.148071239	"13"	565.224725506	559.648510462	1.5	0.1
0.01	1	0.101247802000046	1	54	NA	128.094176412	0	0.15	2.64	1	120.384687732	120.485935534	"13"	565.224725506	559.648510462	1.5	0.1
0.01	1	0.00201988699996036	1	54	NA	128.094176412	0	0.15	2.64	1	120.718594331	120.720614218	"13"	565.224725506	559.648510462	1.5	0.1
0.01	1	0.0681767280000258	1	54	NA	128.094176412	0	0.15	2.64	1	120.952328105	121.020504833	"13"	565.224725506	559.648510462	1.5	0.1
0.01	1	0.00202397700002166	1	54	NA	128.094176412	0	0.15	2.64	1	121.252815674	121.254839651	"13"	565.224725506	559.648510462	1.5	0.1
0.01	1	0.0939679080000246	1	54	NA	128.094176412	0	0.15	2.64	1	121.486474355	121.580442263	"13"	565.224725506	559.648510462	1.5	0.1
0.01	1	0.145758996999973	1	54	NA	128.094176412	0	0.15	2.64	1	121.803654847	121.949413844	"13"	565.224725506	559.648510462	1.5	0.1
0.01	1	0.00455397700000049	1	54	NA	128.094176412	0	0.15	2.64	1	122.18769027	122.192244247	"13"	565.224725506	559.648510462	1.5	0.1
0.01	1	0.0882513939999967	1	54	NA	128.094176412	0	0.15	2.64	1	122.421399367	122.509650761	"13"	565.224725506	559.648510462	1.5	0.1
0.01	1	0.121605343999988	1	54	NA	128.094176412	0	0.15	2.64	1	122.73868369	122.860289034	"13"	565.224725506	559.648510462	1.5	0.1
0.01	1	0.0928654930000334	1	54	NA	128.094176412	0	0.15	2.64	1	123.089189452	123.182054945	"13"	565.224725506	559.648510462	1.5	0.1
0.01	1	3.05503491600001	1	54	NA	128.094176412	0	0.15	2.64	1	123.406414815	126.461449731	"13"	565.224725506	559.648510462	1.5	0.1
0.01	1	0.103087405999986	1	54	NA	128.094176412	0	0.15	2.64	1	126.695232045	126.798319451	"13"	565.224725506	559.648510462	1.5	0.1
0.01	1	0.472508247999997	1	54	NA	128.094176412	0	0.15	2.64	1	127.029221365	127.501729613	"13"	565.224725506	559.648510462	1.5	0.1
0.01	1	0.362232304000031	2	54	NA	128.094176412	0	0.15	2.64	1	127.73041715	128.092649454	"13"	565.224725506	559.648510462	1.5	0.1
0.01	1	0.047155943000007	1	103	NA	138.767575609	0	0.26	2.9	1	130.1343557	130.181511643	"14"	565.224725506	559.648510462	1.5	0.1
0.01	1	0.00328099000000748	1	103	NA	138.767575609	0	0.26	2.9	1	130.418138017	130.421419007	"14"	565.224725506	559.648510462	1.5	0.1
0.01	1	0.0499069370000029	1	103	NA	138.767575609	0	0.26	2.9	1	130.651894982	130.701801919	"14"	565.224725506	559.648510462	1.5	0.1
0.01	1	0.085238559000004	1	103	NA	138.767575609	0	0.26	2.9	1	130.935693935	131.020932494	"14"	565.224725506	559.648510462	1.5	0.1
0.01	1	0.119668657000034	1	103	NA	138.767575609	0	0.26	2.9	1	131.25294712	131.372615777	"14"	565.224725506	559.648510462	1.5	0.1
0.01	1	0.104791200999955	1	103	NA	138.767575609	0	0.26	2.9	1	131.603528475	131.708319676	"14"	565.224725506	559.648510462	1.5	0.1
0.01	1	0.0922140190000391	1	103	NA	138.767575609	0	0.26	2.9	1	131.937354085	132.029568104	"14"	565.224725506	559.648510462	1.5	0.1
0.01	1	0.10959208700001	1	103	NA	138.767575609	0	0.26	2.9	1	132.254564041	132.364156128	"14"	565.224725506	559.648510462	1.5	0.1
0.01	1	0.113361828999984	1	103	NA	138.767575609	0	0.26	2.9	1	132.588406575	132.701768404	"14"	565.224725506	559.648510462	1.5	0.1
0.01	1	0.113591976999999	1	103	NA	138.767575609	0	0.26	2.9	1	132.93914799	133.052739967	"14"	565.224725506	559.648510462	1.5	0.1
0.01	1	0.00368503900000405	1	103	NA	138.767575609	0	0.26	2.9	1	133.289571072	133.293256111	"14"	565.224725506	559.648510462	1.5	0.1
0.01	1	0.225673653999991	1	103	NA	138.767575609	0	0.26	2.9	1	133.523366517	133.749040171	"14"	565.224725506	559.648510462	1.5	0.1
0.01	1	0.00455029500000137	1	103	NA	138.767575609	0	0.26	2.9	1	133.974126065	133.97867636	"14"	565.224725506	559.648510462	1.5	0.1
0.01	1	0.0363167410000074	1	103	NA	138.767575609	0	0.26	2.9	1	134.207839322	134.244156063	"14"	565.224725506	559.648510462	1.5	0.1
0.01	1	0.00360749800000804	1	103	NA	138.767575609	0	0.26	2.9	1	134.474906115	134.478513613	"14"	565.224725506	559.648510462	1.5	0.1
0.01	1	0.072864796000033	1	103	NA	138.767575609	0	0.26	2.9	1	134.708728437	134.781593233	"14"	565.224725506	559.648510462	1.5	0.1
0.01	1	0.00465586499996107	1	103	NA	138.767575609	0	0.26	2.9	1	135.00941784	135.014073705	"14"	565.224725506	559.648510462	1.5	0.1
0.01	1	0.0664070789999869	1	103	NA	138.767575609	0	0.26	2.9	1	135.242994352	135.309401431	"14"	565.224725506	559.648510462	1.5	0.1
0.01	1	0.0039145279999957	1	103	NA	138.767575609	0	0.26	2.9	1	135.543514205	135.547428733	"14"	565.224725506	559.648510462	1.5	0.1
0.01	1	0.0768365210000184	1	103	NA	138.767575609	0	0.26	2.9	1	135.77719045	135.854026971	"14"	565.224725506	559.648510462	1.5	0.1
0.01	1	0.00394992599996158	1	103	NA	138.767575609	0	0.26	2.9	1	136.077771867	136.081721793	"14"	565.224725506	559.648510462	1.5	0.1
0.01	1	0.0856663439999465	1	103	NA	138.767575609	0	0.26	2.9	1	136.31145371	136.397120054	"14"	565.224725506	559.648510462	1.5	0.1
0.01	1	0.00453695700002754	1	103	NA	138.767575609	0	0.26	2.9	1	136.628834515	136.633371472	"14"	565.224725506	559.648510462	1.5	0.1
0.01	1	0.133817886000031	1	103	NA	138.767575609	0	0.26	2.9	1	136.862339315	136.996157201	"14"	565.224725506	559.648510462	1.5	0.1
0.01	1	0.0879419519999942	1	103	NA	138.767575609	0	0.26	2.9	1	137.22973629	137.317678242	"14"	565.224725506	559.648510462	1.5	0.1
0.01	1	0.162427195000021	1	103	NA	138.767575609	0	0.26	2.9	1	137.54684417	137.709271365	"14"	565.224725506	559.648510462	1.5	0.1
0.01	1	0.818563189000031	2	103	NA	138.767575609	0	0.26	2.9	1	137.947433075	138.765996264	"14"	565.224725506	559.648510462	1.5	0.1
0.01	1	0.00429019699998889	1	120	NA	157.855023019	0	0.63	3.53	1	140.818978023	140.82326822	"15"	565.224725506	559.648510462	1.5	0.1
0.01	1	0.0490806190000512	1	120	NA	157.855023019	0	0.63	3.53	1	141.052714092	141.101794711	"15"	565.224725506	559.648510462	1.5	0.1
0.01	1	0.092728199000021	1	120	NA	157.855023019	0	0.63	3.53	1	141.336484795	141.429212994	"15"	565.224725506	559.648510462	1.5	0.1
0.01	1	0.0954769129999704	1	120	NA	157.855023019	0	0.63	3.53	1	141.653831787	141.7493087	"15"	565.224725506	559.648510462	1.5	0.1
0.01	1	0.00461343000000625	1	120	NA	157.855023019	0	0.63	3.53	1	141.970971485	141.975584915	"15"	565.224725506	559.648510462	1.5	0.1
0.01	1	0.0966061990000071	1	120	NA	157.855023019	0	0.63	3.53	1	142.20476464	142.301370839	"15"	565.224725506	559.648510462	1.5	0.1
0.01	1	0.00387916800002586	1	120	NA	157.855023019	0	0.63	3.53	1	142.538641295	142.542520463	"15"	565.224725506	559.648510462	1.5	0.1
0.01	1	0.0419847480000044	1	120	NA	157.855023019	0	0.63	3.53	1	142.772225692	142.81421044	"15"	565.224725506	559.648510462	1.5	0.1
0.01	1	0.00321369800002458	1	120	NA	157.855023019	0	0.63	3.53	1	143.039405759	143.042619457	"15"	565.224725506	559.648510462	1.5	0.1
0.01	1	0.00482283499997038	1	120	NA	157.855023019	0	0.63	3.53	1	143.273129535	143.27795237	"15"	565.224725506	559.648510462	1.5	0.1
0.01	1	0.0422738650000269	1	120	NA	157.855023019	0	0.63	3.53	1	143.506835267	143.549109132	"15"	565.224725506	559.648510462	1.5	0.1
0.01	1	0.00932901999999558	1	120	NA	157.855023019	0	0.63	3.53	1	143.773956942	143.783285962	"15"	565.224725506	559.648510462	1.5	0.1
0.01	1	0.00455026999998154	1	120	NA	157.855023019	0	0.63	3.53	1	144.007737415	144.012287685	"15"	565.224725506	559.648510462	1.5	0.1
0.01	1	0.0755430570000044	1	120	NA	157.855023019	0	0.63	3.53	1	144.241408585	144.316951642	"15"	565.224725506	559.648510462	1.5	0.1
0.01	1	0.00390373400000499	1	120	NA	157.855023019	0	0.63	3.53	1	144.541971547	144.545875281	"15"	565.224725506	559.648510462	1.5	0.1
0.01	1	0.0020762290000107	1	120	NA	157.855023019	0	0.63	3.53	1	144.775662995	144.777739224	"15"	565.224725506	559.648510462	1.5	0.1
0.01	1	0.00401476299998649	1	120	NA	157.855023019	0	0.63	3.53	1	145.009445702	145.013460465	"15"	565.224725506	559.648510462	1.5	0.1
0.01	1	0.129765922999979	1	120	NA	157.855023019	0	0.63	3.53	1	145.24307983	145.372845753	"15"	565.224725506	559.648510462	1.5	0.1
0.01	1	0.0038891700000363	1	120	NA	157.855023019	0	0.63	3.53	1	145.610356025	145.614245195	"15"	565.224725506	559.648510462	1.5	0.1
0.01	1	0.177610279999953	1	120	NA	157.855023019	0	0.63	3.53	1	145.844168312	146.021778592	"15"	565.224725506	559.648510462	1.5	0.1
0.01	1	0.0412357719999932	1	120	NA	157.855023019	0	0.63	3.53	1	146.244760592	146.285996364	"15"	565.224725506	559.648510462	1.5	0.1
0.01	1	0.00385035300001846	1	120	NA	157.855023019	0	0.63	3.53	1	146.51183362	146.515683973	"15"	565.224725506	559.648510462	1.5	0.1
0.01	1	0.0744850749999841	1	120	NA	157.855023019	0	0.63	3.53	1	146.745607104	146.820092179	"15"	565.224725506	559.648510462	1.5	0.1
0.01	1	0.00386391600000024	1	120	NA	157.855023019	0	0.63	3.53	1	147.046170195	147.050034111	"15"	565.224725506	559.648510462	1.5	0.1
0.01	1	0.00440940899994757	1	120	NA	157.855023019	0	0.63	3.53	1	147.279831761	147.28424117	"15"	565.224725506	559.648510462	1.5	0.1
0.01	1	0.00344687999995585	1	120	NA	157.855023019	0	0.63	3.53	1	147.513573155	147.517020035	"15"	565.224725506	559.648510462	1.5	0.1
0.01	1	0.00338248200000635	1	120	NA	157.855023019	0	0.63	3.53	1	147.747316047	147.750698529	"15"	565.224725506	559.648510462	1.5	0.1
0.01	1	0.00392935899998292	1	120	NA	157.855023019	0	0.63	3.53	1	147.981070962	147.985000321	"15"	565.224725506	559.648510462	1.5	0.1
0.01	1	0.00423382600001787	1	120	NA	157.855023019	0	0.63	3.53	1	148.214813037	148.219046863	"15"	565.224725506	559.648510462	1.5	0.1
0.01	1	0.0036572680000404	1	120	NA	157.855023019	0	0.63	3.53	1	148.448517285	148.452174553	"15"	565.224725506	559.648510462	1.5	0.1
0.01	1	0.00356499499997653	1	120	NA	157.855023019	0	0.63	3.53	1	148.682267602	148.685832597	"15"	565.224725506	559.648510462	1.5	0.1
0.01	1	0.0038429429999951	1	120	NA	157.855023019	0	0.63	3.53	1	148.915997752	148.919840695	"15"	565.224725506	559.648510462	1.5	0.1
0.01	1	0.00397862499994517	1	120	NA	157.855023019	0	0.63	3.53	1	149.149658792	149.153637417	"15"	565.224725506	559.648510462	1.5	0.1
0.01	1	0.00386627300002829	1	120	NA	157.855023019	0	0.63	3.53	1	149.38344019	149.387306463	"15"	565.224725506	559.648510462	1.5	0.1
0.01	1	0.00403450999999677	1	120	NA	157.855023019	0	0.63	3.53	1	149.617171175	149.621205685	"15"	565.224725506	559.648510462	1.5	0.1
0.01	1	0.00348351099995625	1	120	NA	157.855023019	0	0.63	3.53	1	149.8507723	149.854255811	"15"	565.224725506	559.648510462	1.5	0.1
0.01	1	0.0045099749999622	1	120	NA	157.855023019	0	0.63	3.53	1	150.084774115	150.08928409	"15"	565.224725506	559.648510462	1.5	0.1
0.01	1	0.00392933500000936	1	120	NA	157.855023019	0	0.63	3.53	1	150.31823351	150.322162845	"15"	565.224725506	559.648510462	1.5	0.1
0.01	1	0.00383522800001401	1	120	NA	157.855023019	0	0.63	3.53	1	150.551939747	150.555774975	"15"	565.224725506	559.648510462	1.5	0.1
0.01	1	0.0045701419999773	1	120	NA	157.855023019	0	0.63	3.53	1	150.78577042	150.790340562	"15"	565.224725506	559.648510462	1.5	0.1
0.01	1	0.00358662700000423	1	120	NA	157.855023019	0	0.63	3.53	1	151.01953405	151.023120677	"15"	565.224725506	559.648510462	1.5	0.1
0.01	1	0.00450738400002137	1	120	NA	157.855023019	0	0.63	3.53	1	151.253138778	151.257646162	"15"	565.224725506	559.648510462	1.5	0.1
0.01	1	0.00198401399995873	1	120	NA	157.855023019	0	0.63	3.53	1	151.48697713	151.488961144	"15"	565.224725506	559.648510462	1.5	0.1
0.01	1	0.0036675179999861	1	120	NA	157.855023019	0	0.63	3.53	1	151.720745555	151.724413073	"15"	565.224725506	559.648510462	1.5	0.1
0.01	1	0.00462224999995442	1	120	NA	157.855023019	0	0.63	3.53	1	151.95440108	151.95902333	"15"	565.224725506	559.648510462	1.5	0.1
0.01	1	0.00388820599999917	1	120	NA	157.855023019	0	0.63	3.53	1	152.188183715	152.192071921	"15"	565.224725506	559.648510462	1.5	0.1
0.01	1	0.00456273200001078	1	120	NA	157.855023019	0	0.63	3.53	1	152.42185649	152.426419222	"15"	565.224725506	559.648510462	1.5	0.1
0.01	1	0.00387506999999232	1	120	NA	157.855023019	0	0.63	3.53	1	152.655565565	152.659440635	"15"	565.224725506	559.648510462	1.5	0.1
0.01	1	0.00372422700002062	1	120	NA	157.855023019	0	0.63	3.53	1	152.88938281	152.893107037	"15"	565.224725506	559.648510462	1.5	0.1
0.01	1	0.00374382300003617	1	120	NA	157.855023019	0	0.63	3.53	1	153.123082212	153.126826035	"15"	565.224725506	559.648510462	1.5	0.1
0.01	1	0.00370409200002086	1	120	NA	157.855023019	0	0.63	3.53	1	153.356665835	153.360369927	"15"	565.224725506	559.648510462	1.5	0.1
0.01	1	0.00389678800002002	1	120	NA	157.855023019	0	0.63	3.53	1	153.590530475	153.594427263	"15"	565.224725506	559.648510462	1.5	0.1
0.01	1	0.00379514700000527	1	120	NA	157.855023019	0	0.63	3.53	1	153.82419029	153.827985437	"15"	565.224725506	559.648510462	1.5	0.1
0.01	1	0.00381889800002	1	120	NA	157.855023019	0	0.63	3.53	1	154.057897605	154.061716503	"15"	565.224725506	559.648510462	1.5	0.1
0.01	1	0.00363774099997727	1	120	NA	157.855023019	0	0.63	3.53	1	154.291637072	154.295274813	"15"	565.224725506	559.648510462	1.5	0.1
0.01	1	0.00403734700000768	1	120	NA	157.855023019	0	0.63	3.53	1	154.525296132	154.529333479	"15"	565.224725506	559.648510462	1.5	0.1
0.01	1	0.00381698099999994	1	120	NA	157.855023019	0	0.63	3.53	1	154.759127932	154.762944913	"15"	565.224725506	559.648510462	1.5	0.1
0.01	1	0.00401198200000863	1	120	NA	157.855023019	0	0.63	3.53	1	154.992827515	154.996839497	"15"	565.224725506	559.648510462	1.5	0.1
0.01	1	0.00352482299996382	1	120	NA	157.855023019	0	0.63	3.53	1	155.226580112	155.230104935	"15"	565.224725506	559.648510462	1.5	0.1
0.01	1	0.00341887199999746	1	120	NA	157.855023019	0	0.63	3.53	1	155.460339697	155.463758569	"15"	565.224725506	559.648510462	1.5	0.1
0.01	1	0.470841396999958	1	120	NA	157.855023019	0	0.63	3.53	1	155.694012755	156.164854152	"15"	565.224725506	559.648510462	1.5	0.1
0.01	1	0.466499479000049	1	120	NA	157.855023019	0	0.63	3.53	1	156.395146165	156.861645644	"15"	565.224725506	559.648510462	1.5	0.1
0.01	1	0.245590669000023	1	120	NA	157.855023019	0	0.63	3.53	1	157.09649521	157.342085879	"15"	565.224725506	559.648510462	1.5	0.1
0.01	1	0.289728170999979	2	120	NA	157.855023019	0	0.63	3.53	1	157.56376195	157.853490121	"15"	565.224725506	559.648510462	1.5	0.1
0.01	1	0.00463123700001233	1	109	NA	175.102033316	0	0.61	4.14	1	159.884436875	159.889068112	"16"	565.224725506	559.648510462	1.5	0.1
0.01	1	0.00388564799999358	1	109	NA	175.102033316	0	0.61	4.14	1	160.118078327	160.121963975	"16"	565.224725506	559.648510462	1.5	0.1
0.01	1	0.00366996799999697	1	109	NA	175.102033316	0	0.61	4.14	1	160.351800545	160.355470513	"16"	565.224725506	559.648510462	1.5	0.1
0.01	1	0.00460651700001335	1	109	NA	175.102033316	0	0.61	4.14	1	160.58555571	160.590162227	"16"	565.224725506	559.648510462	1.5	0.1
0.01	1	0.00397376699999086	1	109	NA	175.102033316	0	0.61	4.14	1	160.81934975	160.823323517	"16"	565.224725506	559.648510462	1.5	0.1
0.01	1	0.00390019700000721	1	109	NA	175.102033316	0	0.61	4.14	1	161.052966042	161.056866239	"16"	565.224725506	559.648510462	1.5	0.1
0.01	1	0.003354360000003	1	109	NA	175.102033316	0	0.61	4.14	1	161.286829111	161.290183471	"16"	565.224725506	559.648510462	1.5	0.1
0.01	1	0.00399139400002468	1	109	NA	175.102033316	0	0.61	4.14	1	161.520440797	161.524432191	"16"	565.224725506	559.648510462	1.5	0.1
0.01	1	0.00425860500001818	1	109	NA	175.102033316	0	0.61	4.14	1	161.7541693	161.758427905	"16"	565.224725506	559.648510462	1.5	0.1
0.01	1	0.00459685999999238	1	109	NA	175.102033316	0	0.61	4.14	1	161.987986765	161.992583625	"16"	565.224725506	559.648510462	1.5	0.1
0.01	1	0.00345892199999298	1	109	NA	175.102033316	0	0.61	4.14	1	162.221726935	162.225185857	"16"	565.224725506	559.648510462	1.5	0.1
0.01	1	0.00369626799999878	1	109	NA	175.102033316	0	0.61	4.14	1	162.455311367	162.459007635	"16"	565.224725506	559.648510462	1.5	0.1
0.01	1	0.00393693300003406	1	109	NA	175.102033316	0	0.61	4.14	1	162.689038542	162.692975475	"16"	565.224725506	559.648510462	1.5	0.1
0.01	1	0.00389804700000695	1	109	NA	175.102033316	0	0.61	4.14	1	162.92281731	162.926715357	"16"	565.224725506	559.648510462	1.5	0.1
0.01	1	0.00382522799998242	1	109	NA	175.102033316	0	0.61	4.14	1	163.156535045	163.160360273	"16"	565.224725506	559.648510462	1.5	0.1
0.01	1	0.00332411100004038	1	109	NA	175.102033316	0	0.61	4.14	1	163.390288782	163.393612893	"16"	565.224725506	559.648510462	1.5	0.1
0.01	1	0.00469602200001873	1	109	NA	175.102033316	0	0.61	4.14	1	163.62395948	163.628655502	"16"	565.224725506	559.648510462	1.5	0.1
0.01	1	0.00395870100004458	1	109	NA	175.102033316	0	0.61	4.14	1	163.85778536	163.861744061	"16"	565.224725506	559.648510462	1.5	0.1
0.01	1	0.00401704900002642	1	109	NA	175.102033316	0	0.61	4.14	1	164.09145504	164.095472089	"16"	565.224725506	559.648510462	1.5	0.1
0.01	1	0.00462934199998699	1	109	NA	175.102033316	0	0.61	4.14	1	164.32516087	164.329790212	"16"	565.224725506	559.648510462	1.5	0.1
0.01	1	0.00338089100000616	1	109	NA	175.102033316	0	0.61	4.14	1	164.558945332	164.562326223	"16"	565.224725506	559.648510462	1.5	0.1
0.01	1	0.00381359099998235	1	109	NA	175.102033316	0	0.61	4.14	1	164.792535532	164.796349123	"16"	565.224725506	559.648510462	1.5	0.1
0.01	1	0.00292788600000904	1	109	NA	175.102033316	0	0.61	4.14	1	165.026316883	165.029244769	"16"	565.224725506	559.648510462	1.5	0.1
0.01	1	0.0039105129999939	1	109	NA	175.102033316	0	0.61	4.14	1	165.260196682	165.264107195	"16"	565.224725506	559.648510462	1.5	0.1
0.01	1	0.00322249399999919	1	109	NA	175.102033316	0	0.61	4.14	1	165.493850433	165.497072927	"16"	565.224725506	559.648510462	1.5	0.1
0.01	1	0.00229863999999225	1	109	NA	175.102033316	0	0.61	4.14	1	165.727521945	165.729820585	"16"	565.224725506	559.648510462	1.5	0.1
0.01	1	0.00370760800001335	1	109	NA	175.102033316	0	0.61	4.14	1	165.961219147	165.964926755	"16"	565.224725506	559.648510462	1.5	0.1
0.01	1	0.0035986710000202	1	109	NA	175.102033316	0	0.61	4.14	1	166.195004592	166.198603263	"16"	565.224725506	559.648510462	1.5	0.1
0.01	1	0.0045642900000189	1	109	NA	175.102033316	0	0.61	4.14	1	166.428767865	166.433332155	"16"	565.224725506	559.648510462	1.5	0.1
0.01	1	0.157858849999968	1	109	NA	175.102033316	0	0.61	4.14	1	166.66244733	166.82030618	"16"	565.224725506	559.648510462	1.5	0.1
0.01	1	0.00447345599997107	1	109	NA	175.102033316	0	0.61	4.14	1	167.046370174	167.05084363	"16"	565.224725506	559.648510462	1.5	0.1
0.01	1	0.00451732700003049	1	109	NA	175.102033316	0	0.61	4.14	1	167.280173355	167.284690682	"16"	565.224725506	559.648510462	1.5	0.1
0.01	1	0.00341929100000016	1	109	NA	175.102033316	0	0.61	4.14	1	167.513893412	167.517312703	"16"	565.224725506	559.648510462	1.5	0.1
0.01	1	0.00331018999997923	1	109	NA	175.102033316	0	0.61	4.14	1	167.747637261	167.750947451	"16"	565.224725506	559.648510462	1.5	0.1
0.01	1	0.00397070600001825	1	109	NA	175.102033316	0	0.61	4.14	1	167.981377027	167.985347733	"16"	565.224725506	559.648510462	1.5	0.1
0.01	1	0.00399935600000845	1	109	NA	175.102033316	0	0.61	4.14	1	168.214997305	168.218996661	"16"	565.224725506	559.648510462	1.5	0.1
0.01	1	0.00455932199997733	1	109	NA	175.102033316	0	0.61	4.14	1	168.448744845	168.453304167	"16"	565.224725506	559.648510462	1.5	0.1
0.01	1	0.00389304300000504	1	109	NA	175.102033316	0	0.61	4.14	1	168.682538912	168.686431955	"16"	565.224725506	559.648510462	1.5	0.1
0.01	1	0.00222971199997346	1	109	NA	175.102033316	0	0.61	4.14	1	168.916282382	168.918512094	"16"	565.224725506	559.648510462	1.5	0.1
0.01	1	0.00221230299996478	1	109	NA	175.102033316	0	0.61	4.14	1	169.150041411	169.152253714	"16"	565.224725506	559.648510462	1.5	0.1
0.01	1	0.00399097700000084	1	109	NA	175.102033316	0	0.61	4.14	1	169.38372956	169.387720537	"16"	565.224725506	559.648510462	1.5	0.1
0.01	1	0.00447656699998333	1	109	NA	175.102033316	0	0.61	4.14	1	169.61750028	169.621976847	"16"	565.224725506	559.648510462	1.5	0.1
0.01	1	0.00352300299999797	1	109	NA	175.102033316	0	0.61	4.14	1	169.851175482	169.854698485	"16"	565.224725506	559.648510462	1.5	0.1
0.01	1	0.00399626699999089	1	109	NA	175.102033316	0	0.61	4.14	1	170.08480721	170.088803477	"16"	565.224725506	559.648510462	1.5	0.1
0.01	1	0.00453684000001431	1	109	NA	175.102033316	0	0.61	4.14	1	170.318548025	170.323084865	"16"	565.224725506	559.648510462	1.5	0.1
0.01	1	0.00388123800001949	1	109	NA	175.102033316	0	0.61	4.14	1	170.552267285	170.556148523	"16"	565.224725506	559.648510462	1.5	0.1
0.01	1	0.00316323200001989	1	109	NA	175.102033316	0	0.61	4.14	1	170.786011333	170.789174565	"16"	565.224725506	559.648510462	1.5	0.1
0.01	1	0.00356982300002073	1	109	NA	175.102033316	0	0.61	4.14	1	171.01980359	171.023373413	"16"	565.224725506	559.648510462	1.5	0.1
0.01	1	0.00389283499998783	1	109	NA	175.102033316	0	0.61	4.14	1	171.253525442	171.257418277	"16"	565.224725506	559.648510462	1.5	0.1
0.01	1	0.00399845900000173	1	109	NA	175.102033316	0	0.61	4.14	1	171.48721367	171.491212129	"16"	565.224725506	559.648510462	1.5	0.1
0.01	1	0.0039197110000373	1	109	NA	175.102033316	0	0.61	4.14	1	171.720899882	171.724819593	"16"	565.224725506	559.648510462	1.5	0.1
0.01	1	0.00461938699999109	1	109	NA	175.102033316	0	0.61	4.14	1	171.954617175	171.959236562	"16"	565.224725506	559.648510462	1.5	0.1
0.01	1	0.00377719400000842	1	109	NA	175.102033316	0	0.61	4.14	1	172.188421787	172.192198981	"16"	565.224725506	559.648510462	1.5	0.1
0.01	1	0.00391879900001868	1	109	NA	175.102033316	0	0.61	4.14	1	172.422115782	172.426034581	"16"	565.224725506	559.648510462	1.5	0.1
0.01	1	0.00391630600000781	1	109	NA	175.102033316	0	0.61	4.14	1	172.655808025	172.659724331	"16"	565.224725506	559.648510462	1.5	0.1
0.01	1	0.00371054099997536	1	109	NA	175.102033316	0	0.61	4.14	1	172.889659272	172.893369813	"16"	565.224725506	559.648510462	1.5	0.1
0.01	1	0.00353557900001533	1	109	NA	175.102033316	0	0.61	4.14	1	173.123336462	173.126872041	"16"	565.224725506	559.648510462	1.5	0.1
0.01	1	0.00342195999996875	1	109	NA	175.102033316	0	0.61	4.14	1	173.357065771	173.360487731	"16"	565.224725506	559.648510462	1.5	0.1
0.01	1	0.00388281799996548	1	109	NA	175.102033316	0	0.61	4.14	1	173.590698275	173.594581093	"16"	565.224725506	559.648510462	1.5	0.1
0.01	1	0.00459759199998189	1	109	NA	175.102033316	0	0.61	4.14	1	173.824468395	173.829065987	"16"	565.224725506	559.648510462	1.5	0.1
0.01	1	0.435182246000011	1	109	NA	175.102033316	0	0.61	4.14	1	174.058158772	174.493341018	"16"	565.224725506	559.648510462	1.5	0.1
0.01	1	0.374497090999967	2	109	NA	175.102033316	0	0.61	4.14	1	174.7259771	175.100474191	"16"	565.224725506	559.648510462	1.5	0.1
0.01	1	0.00403429600004301	1	71	NA	192.678445209	0	0.64	4.78	1	177.146795325	177.150829621	"17"	565.224725506	559.648510462	1.5	0.1
0.01	1	0.00379767999999103	1	71	NA	192.678445209	0	0.64	4.78	1	177.380443685	177.384241365	"17"	565.224725506	559.648510462	1.5	0.1
0.01	1	0.00452045700001236	1	71	NA	192.678445209	0	0.64	4.78	1	177.61422313	177.618743587	"17"	565.224725506	559.648510462	1.5	0.1
0.01	1	0.00390951600002154	1	71	NA	192.678445209	0	0.64	4.78	1	177.847981345	177.851890861	"17"	565.224725506	559.648510462	1.5	0.1
0.01	1	0.00456589200001645	1	71	NA	192.678445209	0	0.64	4.78	1	178.081606115	178.086172007	"17"	565.224725506	559.648510462	1.5	0.1
0.01	1	0.00356501799996067	1	71	NA	192.678445209	0	0.64	4.78	1	178.315328485	178.318893503	"17"	565.224725506	559.648510462	1.5	0.1
0.01	1	0.00385264800002005	1	71	NA	192.678445209	0	0.64	4.78	1	178.549079347	178.552931995	"17"	565.224725506	559.648510462	1.5	0.1
0.01	1	0.00450190999998767	1	71	NA	192.678445209	0	0.64	4.78	1	178.78286292	178.78736483	"17"	565.224725506	559.648510462	1.5	0.1
0.01	1	0.0036665169999992	1	71	NA	192.678445209	0	0.64	4.78	1	179.016554962	179.020221479	"17"	565.224725506	559.648510462	1.5	0.1
0.01	1	0.00330317399999558	1	71	NA	192.678445209	0	0.64	4.78	1	179.250323597	179.253626771	"17"	565.224725506	559.648510462	1.5	0.1
0.01	1	0.00376475800004528	1	71	NA	192.678445209	0	0.64	4.78	1	179.483973195	179.487737953	"17"	565.224725506	559.648510462	1.5	0.1
0.01	1	0.00397943799998757	1	71	NA	192.678445209	0	0.64	4.78	1	179.717789035	179.721768473	"17"	565.224725506	559.648510462	1.5	0.1
0.01	1	0.00374641300004441	1	71	NA	192.678445209	0	0.64	4.78	1	179.951471252	179.955217665	"17"	565.224725506	559.648510462	1.5	0.1
0.01	1	0.00449817700001631	1	71	NA	192.678445209	0	0.64	4.78	1	180.185389095	180.189887272	"17"	565.224725506	559.648510462	1.5	0.1
0.01	1	0.00335634200001778	1	71	NA	192.678445209	0	0.64	4.78	1	180.418961105	180.422317447	"17"	565.224725506	559.648510462	1.5	0.1
0.01	1	0.0033647770000016	1	71	NA	192.678445209	0	0.64	4.78	1	180.652617662	180.655982439	"17"	565.224725506	559.648510462	1.5	0.1
0.01	1	0.00383413399998744	1	71	NA	192.678445209	0	0.64	4.78	1	180.886309175	180.890143309	"17"	565.224725506	559.648510462	1.5	0.1
0.01	1	0.00393398300002445	1	71	NA	192.678445209	0	0.64	4.78	1	181.120115242	181.124049225	"17"	565.224725506	559.648510462	1.5	0.1
0.01	1	0.00386787000002187	1	71	NA	192.678445209	0	0.64	4.78	1	181.353859505	181.357727375	"17"	565.224725506	559.648510462	1.5	0.1
0.01	1	0.00456910000002608	1	71	NA	192.678445209	0	0.64	4.78	1	181.587556205	181.592125305	"17"	565.224725506	559.648510462	1.5	0.1
0.01	1	0.00392140299999255	1	71	NA	192.678445209	0	0.64	4.78	1	181.82123212	181.825153523	"17"	565.224725506	559.648510462	1.5	0.1
0.01	1	0.00384798599998248	1	71	NA	192.678445209	0	0.64	4.78	1	182.055080787	182.058928773	"17"	565.224725506	559.648510462	1.5	0.1
0.01	1	0.00390677799998684	1	71	NA	192.678445209	0	0.64	4.78	1	182.288759915	182.292666693	"17"	565.224725506	559.648510462	1.5	0.1
0.01	1	0.00337059800000361	1	71	NA	192.678445209	0	0.64	4.78	1	182.522471811	182.525842409	"17"	565.224725506	559.648510462	1.5	0.1
0.01	1	0.00379221399998642	1	71	NA	192.678445209	0	0.64	4.78	1	182.756154467	182.759946681	"17"	565.224725506	559.648510462	1.5	0.1
0.01	1	0.00388872199999923	1	71	NA	192.678445209	0	0.64	4.78	1	182.989927125	182.993815847	"17"	565.224725506	559.648510462	1.5	0.1
0.01	1	0.00391866300003585	1	71	NA	192.678445209	0	0.64	4.78	1	183.223608842	183.227527505	"17"	565.224725506	559.648510462	1.5	0.1
0.01	1	0.00440982999998596	1	71	NA	192.678445209	0	0.64	4.78	1	183.45737353	183.46178336	"17"	565.224725506	559.648510462	1.5	0.1
0.01	1	0.00451922500002411	1	71	NA	192.678445209	0	0.64	4.78	1	183.6911055	183.695624725	"17"	565.224725506	559.648510462	1.5	0.1
0.01	1	0.00333288199999515	1	71	NA	192.678445209	0	0.64	4.78	1	183.924763205	183.928096087	"17"	565.224725506	559.648510462	1.5	0.1
0.01	1	0.00396513700002288	1	71	NA	192.678445209	0	0.64	4.78	1	184.1585788	184.162543937	"17"	565.224725506	559.648510462	1.5	0.1
0.01	1	0.00398888799998076	1	71	NA	192.678445209	0	0.64	4.78	1	184.392332085	184.396320973	"17"	565.224725506	559.648510462	1.5	0.1
0.01	1	0.00381234999997559	1	71	NA	192.678445209	0	0.64	4.78	1	184.625923815	184.629736165	"17"	565.224725506	559.648510462	1.5	0.1
0.01	1	0.00456931700000496	1	71	NA	192.678445209	0	0.64	4.78	1	184.85983178	184.864401097	"17"	565.224725506	559.648510462	1.5	0.1
0.01	1	0.00368797600003745	1	71	NA	192.678445209	0	0.64	4.78	1	185.093464027	185.097152003	"17"	565.224725506	559.648510462	1.5	0.1
0.01	1	0.00367288099999996	1	71	NA	192.678445209	0	0.64	4.78	1	185.327163052	185.330835933	"17"	565.224725506	559.648510462	1.5	0.1
0.01	1	0.00389823599999772	1	71	NA	192.678445209	0	0.64	4.78	1	185.560871445	185.564769681	"17"	565.224725506	559.648510462	1.5	0.1
0.01	1	0.00466072000000395	1	71	NA	192.678445209	0	0.64	4.78	1	185.79461594	185.79927666	"17"	565.224725506	559.648510462	1.5	0.1
0.01	1	0.00356988400000091	1	71	NA	192.678445209	0	0.64	4.78	1	186.028342907	186.031912791	"17"	565.224725506	559.648510462	1.5	0.1
0.01	1	0.0036777639999741	1	71	NA	192.678445209	0	0.64	4.78	1	186.262048247	186.265726011	"17"	565.224725506	559.648510462	1.5	0.1
0.01	1	0.00452964700002667	1	71	NA	192.678445209	0	0.64	4.78	1	186.49572744	186.500257087	"17"	565.224725506	559.648510462	1.5	0.1
0.01	1	0.00466758199996775	1	71	NA	192.678445209	0	0.64	4.78	1	186.72958624	186.734253822	"17"	565.224725506	559.648510462	1.5	0.1
0.01	1	0.00459115999996129	1	71	NA	192.678445209	0	0.64	4.78	1	186.96331663	186.96790779	"17"	565.224725506	559.648510462	1.5	0.1
0.01	1	0.00342905299999074	1	71	NA	192.678445209	0	0.64	4.78	1	187.19698899	187.200418043	"17"	565.224725506	559.648510462	1.5	0.1
0.01	1	0.00394717700004321	1	71	NA	192.678445209	0	0.64	4.78	1	187.430603015	187.434550192	"17"	565.224725506	559.648510462	1.5	0.1
0.01	1	0.00468585499999108	1	71	NA	192.678445209	0	0.64	4.78	1	187.66451524	187.669201095	"17"	565.224725506	559.648510462	1.5	0.1
0.01	1	0.00405067099995904	1	71	NA	192.678445209	0	0.64	4.78	1	187.89816918	187.902219851	"17"	565.224725506	559.648510462	1.5	0.1
0.01	1	0.00383705900003406	1	71	NA	192.678445209	0	0.64	4.78	1	188.131777352	188.135614411	"17"	565.224725506	559.648510462	1.5	0.1
0.01	1	0.00370267900001409	1	71	NA	192.678445209	0	0.64	4.78	1	188.365526532	188.369229211	"17"	565.224725506	559.648510462	1.5	0.1
0.01	1	0.00363656700000092	1	71	NA	192.678445209	0	0.64	4.78	1	188.599393162	188.603029729	"17"	565.224725506	559.648510462	1.5	0.1
0.01	1	0.00385867999995071	1	71	NA	192.678445209	0	0.64	4.78	1	188.833048467	188.836907147	"17"	565.224725506	559.648510462	1.5	0.1
0.01	1	0.00390159899995979	1	71	NA	192.678445209	0	0.64	4.78	1	189.066783922	189.070685521	"17"	565.224725506	559.648510462	1.5	0.1
0.01	1	0.0046099799999979	1	71	NA	192.678445209	0	0.64	4.78	1	189.3005428	189.30515278	"17"	565.224725506	559.648510462	1.5	0.1
0.01	1	0.00352200500003619	1	71	NA	192.678445209	0	0.64	4.78	1	189.53426031	189.537782315	"17"	565.224725506	559.648510462	1.5	0.1
0.01	1	0.00373911100001578	1	71	NA	192.678445209	0	0.64	4.78	1	189.76806618	189.771805291	"17"	565.224725506	559.648510462	1.5	0.1
0.01	1	0.00395753899999818	1	71	NA	192.678445209	0	0.64	4.78	1	190.00167531	190.005632849	"17"	565.224725506	559.648510462	1.5	0.1
0.01	1	0.00219122200002175	1	71	NA	192.678445209	0	0.64	4.78	1	190.235518363	190.237709585	"17"	565.224725506	559.648510462	1.5	0.1
0.01	1	0.00298117299996647	1	71	NA	192.678445209	0	0.64	4.78	1	190.469135257	190.47211643	"17"	565.224725506	559.648510462	1.5	0.1
0.01	1	0.00354321899999377	1	71	NA	192.678445209	0	0.64	4.78	1	190.70283703	190.706380249	"17"	565.224725506	559.648510462	1.5	0.1
0.01	1	0.00441776799999616	1	71	NA	192.678445209	0	0.64	4.78	1	190.936633507	190.941051275	"17"	565.224725506	559.648510462	1.5	0.1
0.01	1	0.00455101000000013	1	71	NA	192.678445209	0	0.64	4.78	1	191.17027877	191.17482978	"17"	565.224725506	559.648510462	1.5	0.1
0.01	1	0.00460974999998598	1	71	NA	192.678445209	0	0.64	4.78	1	191.404024715	191.408634465	"17"	565.224725506	559.648510462	1.5	0.1
0.01	1	0.00372802099997216	1	71	NA	192.678445209	0	0.64	4.78	1	191.63774446	191.641472481	"17"	565.224725506	559.648510462	1.5	0.1
0.01	1	0.00361662000000251	1	71	NA	192.678445209	0	0.64	4.78	1	191.871519285	191.875135905	"17"	565.224725506	559.648510462	1.5	0.1
0.01	1	0.571685759000047	2	71	NA	192.678445209	0	0.64	4.78	1	192.105238485	192.676924244	"17"	565.224725506	559.648510462	1.5	0.1
0.01	1	0.00378483700001198	1	96	NA	211.21366761	0	0.65	5.43	1	194.7262912	194.730076037	"18"	565.224725506	559.648510462	1.5	0.1
0.01	1	0.00396825999996508	1	96	NA	211.21366761	0	0.65	5.43	1	194.960028275	194.963996535	"18"	565.224725506	559.648510462	1.5	0.1
0.01	1	0.0039904189999902	1	96	NA	211.21366761	0	0.65	5.43	1	195.19379933	195.197789749	"18"	565.224725506	559.648510462	1.5	0.1
0.01	1	0.0035278299999959	1	96	NA	211.21366761	0	0.65	5.43	1	195.427547015	195.431074845	"18"	565.224725506	559.648510462	1.5	0.1
0.01	1	0.00461525999998003	1	96	NA	211.21366761	0	0.65	5.43	1	195.66122573	195.66584099	"18"	565.224725506	559.648510462	1.5	0.1
0.01	1	0.00385191800000939	1	96	NA	211.21366761	0	0.65	5.43	1	195.894905855	195.898757773	"18"	565.224725506	559.648510462	1.5	0.1
0.01	1	0.00457383500003061	1	96	NA	211.21366761	0	0.65	5.43	1	196.12869248	196.133266315	"18"	565.224725506	559.648510462	1.5	0.1
0.01	1	0.00373185000000831	1	96	NA	211.21366761	0	0.65	5.43	1	196.362332977	196.366064827	"18"	565.224725506	559.648510462	1.5	0.1
0.01	1	0.00339436899997736	1	96	NA	211.21366761	0	0.65	5.43	1	196.59611287	196.599507239	"18"	565.224725506	559.648510462	1.5	0.1
0.01	1	0.0036475330000485	1	96	NA	211.21366761	0	0.65	5.43	1	196.829875042	196.833522575	"18"	565.224725506	559.648510462	1.5	0.1
0.01	1	0.00393036600002006	1	96	NA	211.21366761	0	0.65	5.43	1	197.063581685	197.067512051	"18"	565.224725506	559.648510462	1.5	0.1
0.01	1	0.00404343300004939	1	96	NA	211.21366761	0	0.65	5.43	1	197.297331442	197.301374875	"18"	565.224725506	559.648510462	1.5	0.1
0.01	1	0.0042605309999999	1	96	NA	211.21366761	0	0.65	5.43	1	197.531047074	197.535307605	"18"	565.224725506	559.648510462	1.5	0.1
0.01	1	0.00330824899998561	1	96	NA	211.21366761	0	0.65	5.43	1	197.7646686	197.767976849	"18"	565.224725506	559.648510462	1.5	0.1
0.01	1	0.00389354099996808	1	96	NA	211.21366761	0	0.65	5.43	1	197.99850548	198.002399021	"18"	565.224725506	559.648510462	1.5	0.1
0.01	1	0.0045422449999819	1	96	NA	211.21366761	0	0.65	5.43	1	198.232287895	198.23683014	"18"	565.224725506	559.648510462	1.5	0.1
0.01	1	0.00374680299995589	1	96	NA	211.21366761	0	0.65	5.43	1	198.465905672	198.469652475	"18"	565.224725506	559.648510462	1.5	0.1
0.01	1	0.00391049899997142	1	96	NA	211.21366761	0	0.65	5.43	1	198.69961294	198.703523439	"18"	565.224725506	559.648510462	1.5	0.1
0.01	1	0.00336026499996933	1	96	NA	211.21366761	0	0.65	5.43	1	198.93328013	198.936640395	"18"	565.224725506	559.648510462	1.5	0.1
0.01	1	0.0035397830000079	1	96	NA	211.21366761	0	0.65	5.43	1	199.167077342	199.170617125	"18"	565.224725506	559.648510462	1.5	0.1
0.01	1	0.00307406700000001	1	96	NA	211.21366761	0	0.65	5.43	1	199.401047763	199.40412183	"18"	565.224725506	559.648510462	1.5	0.1
0.01	1	0.00311609400000634	1	96	NA	211.21366761	0	0.65	5.43	1	199.634543449	199.637659543	"18"	565.224725506	559.648510462	1.5	0.1
0.01	1	0.00451546100003952	1	96	NA	211.21366761	0	0.65	5.43	1	199.868354804	199.872870265	"18"	565.224725506	559.648510462	1.5	0.1
0.01	1	0.00360767000000806	1	96	NA	211.21366761	0	0.65	5.43	1	200.101996225	200.105603895	"18"	565.224725506	559.648510462	1.5	0.1
0.01	1	0.00408032600000752	1	96	NA	211.21366761	0	0.65	5.43	1	200.335726477	200.339806803	"18"	565.224725506	559.648510462	1.5	0.1
0.01	1	0.00370119000001523	1	96	NA	211.21366761	0	0.65	5.43	1	200.569422445	200.573123635	"18"	565.224725506	559.648510462	1.5	0.1
0.01	1	0.00350376500000493	1	96	NA	211.21366761	0	0.65	5.43	1	200.803230252	200.806734017	"18"	565.224725506	559.648510462	1.5	0.1
0.01	1	0.00377555300002541	1	96	NA	211.21366761	0	0.65	5.43	1	201.03693516	201.040710713	"18"	565.224725506	559.648510462	1.5	0.1
0.01	1	0.00332177100000308	1	96	NA	211.21366761	0	0.65	5.43	1	201.27059346	201.273915231	"18"	565.224725506	559.648510462	1.5	0.1
0.01	1	0.00370198299998492	1	96	NA	211.21366761	0	0.65	5.43	1	201.504312782	201.508014765	"18"	565.224725506	559.648510462	1.5	0.1
0.01	1	0.00382907699997759	1	96	NA	211.21366761	0	0.65	5.43	1	201.73811322	201.741942297	"18"	565.224725506	559.648510462	1.5	0.1
0.01	1	0.00393179000002419	1	96	NA	211.21366761	0	0.65	5.43	1	201.971823145	201.975754935	"18"	565.224725506	559.648510462	1.5	0.1
0.01	1	0.00387206699997478	1	96	NA	211.21366761	0	0.65	5.43	1	202.205554982	202.209427049	"18"	565.224725506	559.648510462	1.5	0.1
0.01	1	0.00372620600001028	1	96	NA	211.21366761	0	0.65	5.43	1	202.439319565	202.443045771	"18"	565.224725506	559.648510462	1.5	0.1
0.01	1	0.00386944199999562	1	96	NA	211.21366761	0	0.65	5.43	1	202.672884965	202.676754407	"18"	565.224725506	559.648510462	1.5	0.1
0.01	1	0.00397793399997681	1	96	NA	211.21366761	0	0.65	5.43	1	202.906721547	202.910699481	"18"	565.224725506	559.648510462	1.5	0.1
0.01	1	0.00472163199998477	1	96	NA	211.21366761	0	0.65	5.43	1	203.14053936	203.145260992	"18"	565.224725506	559.648510462	1.5	0.1
0.01	1	0.00355605900000455	1	96	NA	211.21366761	0	0.65	5.43	1	203.374156932	203.377712991	"18"	565.224725506	559.648510462	1.5	0.1
0.01	1	0.00394668100000217	1	96	NA	211.21366761	0	0.65	5.43	1	203.607902552	203.611849233	"18"	565.224725506	559.648510462	1.5	0.1
0.01	1	0.00388953700002048	1	96	NA	211.21366761	0	0.65	5.43	1	203.841737912	203.845627449	"18"	565.224725506	559.648510462	1.5	0.1
0.01	1	0.00459851199997274	1	96	NA	211.21366761	0	0.65	5.43	1	204.075334735	204.079933247	"18"	565.224725506	559.648510462	1.5	0.1
0.01	1	0.00382459200000085	1	96	NA	211.21366761	0	0.65	5.43	1	204.309116575	204.312941167	"18"	565.224725506	559.648510462	1.5	0.1
0.01	1	0.00374984299998005	1	96	NA	211.21366761	0	0.65	5.43	1	204.542817112	204.546566955	"18"	565.224725506	559.648510462	1.5	0.1
0.01	1	0.00403317899997546	1	96	NA	211.21366761	0	0.65	5.43	1	204.776453692	204.780486871	"18"	565.224725506	559.648510462	1.5	0.1
0.01	1	0.00454408200005219	1	96	NA	211.21366761	0	0.65	5.43	1	205.01032207	205.014866152	"18"	565.224725506	559.648510462	1.5	0.1
0.01	1	0.00403391100002182	1	96	NA	211.21366761	0	0.65	5.43	1	205.24402483	205.248058741	"18"	565.224725506	559.648510462	1.5	0.1
0.01	1	0.0032897739999953	1	96	NA	211.21366761	0	0.65	5.43	1	205.477671103	205.480960877	"18"	565.224725506	559.648510462	1.5	0.1
0.01	1	0.00353462900000068	1	96	NA	211.21366761	0	0.65	5.43	1	205.711453572	205.714988201	"18"	565.224725506	559.648510462	1.5	0.1
0.01	1	0.00441519499997867	1	96	NA	211.21366761	0	0.65	5.43	1	205.94518079	205.949595985	"18"	565.224725506	559.648510462	1.5	0.1
0.01	1	0.00463314199998877	1	96	NA	211.21366761	0	0.65	5.43	1	206.17900353	206.183636672	"18"	565.224725506	559.648510462	1.5	0.1
0.01	1	0.00454305700003488	1	96	NA	211.21366761	0	0.65	5.43	1	206.412625475	206.417168532	"18"	565.224725506	559.648510462	1.5	0.1
0.01	1	0.00337286399997083	1	96	NA	211.21366761	0	0.65	5.43	1	206.646252107	206.649624971	"18"	565.224725506	559.648510462	1.5	0.1
0.01	1	0.00381647000000385	1	96	NA	211.21366761	0	0.65	5.43	1	206.880032595	206.883849065	"18"	565.224725506	559.648510462	1.5	0.1
0.01	1	0.00418938799998614	1	96	NA	211.21366761	0	0.65	5.43	1	207.113742237	207.117931625	"18"	565.224725506	559.648510462	1.5	0.1
0.01	1	0.465942382000037	1	96	NA	211.21366761	0	0.65	5.43	1	207.347461401	207.813403783	"18"	565.224725506	559.648510462	1.5	0.1
0.01	1	0.00202969299999722	1	96	NA	211.21366761	0	0.65	5.43	1	208.048764701	208.050794394	"18"	565.224725506	559.648510462	1.5	0.1
0.01	1	0.514610482000023	1	96	NA	211.21366761	0	0.65	5.43	1	208.28236149	208.796971972	"18"	565.224725506	559.648510462	1.5	0.1
0.01	1	0.00355374899999106	1	96	NA	211.21366761	0	0.65	5.43	1	209.03367146	209.037225209	"18"	565.224725506	559.648510462	1.5	0.1
0.01	1	0.00392494800001941	1	96	NA	211.21366761	0	0.65	5.43	1	209.267441085	209.271366033	"18"	565.224725506	559.648510462	1.5	0.1
0.01	1	0.00515154999999368	1	96	NA	211.21366761	0	0.65	5.43	1	209.50123053	209.50638208	"18"	565.224725506	559.648510462	1.5	0.1
0.01	1	0.0047177150000266	1	96	NA	211.21366761	0	0.65	5.43	1	209.734867055	209.73958477	"18"	565.224725506	559.648510462	1.5	0.1
0.01	1	0.00387339299999212	1	96	NA	211.21366761	0	0.65	5.43	1	209.96862453	209.972497923	"18"	565.224725506	559.648510462	1.5	0.1
0.01	1	0.00450997000001507	1	96	NA	211.21366761	0	0.65	5.43	1	210.20228666	210.20679663	"18"	565.224725506	559.648510462	1.5	0.1
0.01	1	0.00385813100001542	1	96	NA	211.21366761	0	0.65	5.43	1	210.436056022	210.439914153	"18"	565.224725506	559.648510462	1.5	0.1
0.01	1	0.0045938469999669	1	96	NA	211.21366761	0	0.65	5.43	1	210.669935715	210.674529562	"18"	565.224725506	559.648510462	1.5	0.1
0.01	1	0.308692005000012	2	96	NA	211.21366761	0	0.65	5.43	1	210.903435605	211.21212761	"18"	565.224725506	559.648510462	1.5	0.1
0.01	1	0.387986237000007	1	91	NA	237.39032931	0	0.840000000000001	6.27	1	213.257457594	213.645443831	"19"	565.224725506	559.648510462	1.5	0.1
0.01	1	0.00414110799999889	1	91	NA	237.39032931	0	0.840000000000001	6.27	1	213.875122365	213.879263473	"19"	565.224725506	559.648510462	1.5	0.1
0.01	1	0.0046560420000219	1	91	NA	237.39032931	0	0.840000000000001	6.27	1	214.108881145	214.113537187	"19"	565.224725506	559.648510462	1.5	0.1
0.01	1	0.0033119919999649	1	91	NA	237.39032931	0	0.840000000000001	6.27	1	214.342734543	214.346046535	"19"	565.224725506	559.648510462	1.5	0.1
0.01	1	0.0034820330000116	1	91	NA	237.39032931	0	0.840000000000001	6.27	1	214.57642289	214.579904923	"19"	565.224725506	559.648510462	1.5	0.1
0.01	1	0.00362587400002212	1	91	NA	237.39032931	0	0.840000000000001	6.27	1	214.810073607	214.813699481	"19"	565.224725506	559.648510462	1.5	0.1
0.01	1	0.00389628199997105	1	91	NA	237.39032931	0	0.840000000000001	6.27	1	215.043842165	215.047738447	"19"	565.224725506	559.648510462	1.5	0.1
0.01	1	0.00412447799999427	1	91	NA	237.39032931	0	0.840000000000001	6.27	1	215.277504935	215.281629413	"19"	565.224725506	559.648510462	1.5	0.1
0.01	1	0.00317831199998864	1	91	NA	237.39032931	0	0.840000000000001	6.27	1	215.511265313	215.514443625	"19"	565.224725506	559.648510462	1.5	0.1
0.01	1	0.00332146199997396	1	91	NA	237.39032931	0	0.840000000000001	6.27	1	215.745023611	215.748345073	"19"	565.224725506	559.648510462	1.5	0.1
0.01	1	0.00362807900000917	1	91	NA	237.39032931	0	0.840000000000001	6.27	1	215.978666542	215.982294621	"19"	565.224725506	559.648510462	1.5	0.1
0.01	1	0.00467332199997372	1	91	NA	237.39032931	0	0.840000000000001	6.27	1	216.2124627	216.217136022	"19"	565.224725506	559.648510462	1.5	0.1
0.01	1	0.00396311400004379	1	91	NA	237.39032931	0	0.840000000000001	6.27	1	216.446214405	216.450177519	"19"	565.224725506	559.648510462	1.5	0.1
0.01	1	0.00332770400001436	1	91	NA	237.39032931	0	0.840000000000001	6.27	1	216.679876063	216.683203767	"19"	565.224725506	559.648510462	1.5	0.1
0.01	1	0.00392451800001936	1	91	NA	237.39032931	0	0.840000000000001	6.27	1	216.913571053	216.917495571	"19"	565.224725506	559.648510462	1.5	0.1
0.01	1	0.00391611499998135	1	91	NA	237.39032931	0	0.840000000000001	6.27	1	217.147293752	217.151209867	"19"	565.224725506	559.648510462	1.5	0.1
0.01	1	0.00383790900002623	1	91	NA	237.39032931	0	0.840000000000001	6.27	1	217.381091852	217.384929761	"19"	565.224725506	559.648510462	1.5	0.1
0.01	1	0.00391907300002003	1	91	NA	237.39032931	0	0.840000000000001	6.27	1	217.61482749	217.618746563	"19"	565.224725506	559.648510462	1.5	0.1
0.01	1	0.00357439199996179	1	91	NA	237.39032931	0	0.840000000000001	6.27	1	217.848462115	217.852036507	"19"	565.224725506	559.648510462	1.5	0.1
0.01	1	0.00407281499997225	1	91	NA	237.39032931	0	0.840000000000001	6.27	1	218.082440005	218.08651282	"19"	565.224725506	559.648510462	1.5	0.1
0.01	1	0.00425407400001632	1	91	NA	237.39032931	0	0.840000000000001	6.27	1	218.315892551	218.320146625	"19"	565.224725506	559.648510462	1.5	0.1
0.01	1	0.00461109200000465	1	91	NA	237.39032931	0	0.840000000000001	6.27	1	218.549732675	218.554343767	"19"	565.224725506	559.648510462	1.5	0.1
0.01	1	0.00395401299999776	1	91	NA	237.39032931	0	0.840000000000001	6.27	1	218.78335991	218.787313923	"19"	565.224725506	559.648510462	1.5	0.1
0.01	1	0.00378174299999046	1	91	NA	237.39032931	0	0.840000000000001	6.27	1	219.01714048	219.020922223	"19"	565.224725506	559.648510462	1.5	0.1
0.01	1	0.00389757100003862	1	91	NA	237.39032931	0	0.840000000000001	6.27	1	219.25089996	219.254797531	"19"	565.224725506	559.648510462	1.5	0.1
0.01	1	0.00425835499999039	1	91	NA	237.39032931	0	0.840000000000001	6.27	1	219.48467452	219.488932875	"19"	565.224725506	559.648510462	1.5	0.1
0.01	1	0.00407618899998852	1	91	NA	237.39032931	0	0.840000000000001	6.27	1	219.7184147	219.722490889	"19"	565.224725506	559.648510462	1.5	0.1
0.01	1	0.00465757999995731	1	91	NA	237.39032931	0	0.840000000000001	6.27	1	219.95208193	219.95673951	"19"	565.224725506	559.648510462	1.5	0.1
0.01	1	0.00332330600002706	1	91	NA	237.39032931	0	0.840000000000001	6.27	1	220.185786449	220.189109755	"19"	565.224725506	559.648510462	1.5	0.1
0.01	1	0.00374005899999474	1	91	NA	237.39032931	0	0.840000000000001	6.27	1	220.41951058	220.423250639	"19"	565.224725506	559.648510462	1.5	0.1
0.01	1	0.00460156999997707	1	91	NA	237.39032931	0	0.840000000000001	6.27	1	220.653208165	220.657809735	"19"	565.224725506	559.648510462	1.5	0.1
0.01	1	0.00426104799998939	1	91	NA	237.39032931	0	0.840000000000001	6.27	1	220.886992247	220.891253295	"19"	565.224725506	559.648510462	1.5	0.1
0.01	1	0.00331870900004105	1	91	NA	237.39032931	0	0.840000000000001	6.27	1	221.12065727	221.123975979	"19"	565.224725506	559.648510462	1.5	0.1
0.01	1	0.00366950400001542	1	91	NA	237.39032931	0	0.840000000000001	6.27	1	221.354416087	221.358085591	"19"	565.224725506	559.648510462	1.5	0.1
0.01	1	0.00375997900005132	1	91	NA	237.39032931	0	0.840000000000001	6.27	1	221.58812089	221.591880869	"19"	565.224725506	559.648510462	1.5	0.1
0.01	1	0.00381474499999968	1	91	NA	237.39032931	0	0.840000000000001	6.27	1	221.82185482	221.825669565	"19"	565.224725506	559.648510462	1.5	0.1
0.01	1	0.00399317500000507	1	91	NA	237.39032931	0	0.840000000000001	6.27	1	222.055481282	222.059474457	"19"	565.224725506	559.648510462	1.5	0.1
0.01	1	0.00344589700000597	1	91	NA	237.39032931	0	0.840000000000001	6.27	1	222.289257592	222.292703489	"19"	565.224725506	559.648510462	1.5	0.1
0.01	1	0.00405988599999318	1	91	NA	237.39032931	0	0.840000000000001	6.27	1	222.523161315	222.527221201	"19"	565.224725506	559.648510462	1.5	0.1
0.01	1	0.00381231299996898	1	91	NA	237.39032931	0	0.840000000000001	6.27	1	222.75674957	222.760561883	"19"	565.224725506	559.648510462	1.5	0.1
0.01	1	0.00416627700002437	1	91	NA	237.39032931	0	0.840000000000001	6.27	1	222.990501365	222.994667642	"19"	565.224725506	559.648510462	1.5	0.1
0.01	1	0.00393821400001571	1	91	NA	237.39032931	0	0.840000000000001	6.27	1	223.224216667	223.228154881	"19"	565.224725506	559.648510462	1.5	0.1
0.01	1	0.00362649799996007	1	91	NA	237.39032931	0	0.840000000000001	6.27	1	223.457916715	223.461543213	"19"	565.224725506	559.648510462	1.5	0.1
0.01	1	0.00396627700001773	1	91	NA	237.39032931	0	0.840000000000001	6.27	1	223.6917486	223.695714877	"19"	565.224725506	559.648510462	1.5	0.1
0.01	1	0.00388677099999768	1	91	NA	237.39032931	0	0.840000000000001	6.27	1	223.925386172	223.929272943	"19"	565.224725506	559.648510462	1.5	0.1
0.01	1	0.00392832500000395	1	91	NA	237.39032931	0	0.840000000000001	6.27	1	224.15905908	224.162987405	"19"	565.224725506	559.648510462	1.5	0.1
0.01	1	0.0039986479999925	1	91	NA	237.39032931	0	0.840000000000001	6.27	1	224.392884915	224.396883563	"19"	565.224725506	559.648510462	1.5	0.1
0.01	1	0.00389371099998925	1	91	NA	237.39032931	0	0.840000000000001	6.27	1	224.626610202	224.630503913	"19"	565.224725506	559.648510462	1.5	0.1
0.01	1	0.00396822999999813	1	91	NA	237.39032931	0	0.840000000000001	6.27	1	224.860388055	224.864356285	"19"	565.224725506	559.648510462	1.5	0.1
0.01	1	0.00383862600000384	1	91	NA	237.39032931	0	0.840000000000001	6.27	1	225.094009497	225.097848123	"19"	565.224725506	559.648510462	1.5	0.1
0.01	1	0.00396439900003998	1	91	NA	237.39032931	0	0.840000000000001	6.27	1	225.327750522	225.331714921	"19"	565.224725506	559.648510462	1.5	0.1
0.01	1	0.00349470200001178	1	91	NA	237.39032931	0	0.840000000000001	6.27	1	225.561481015	225.564975717	"19"	565.224725506	559.648510462	1.5	0.1
0.01	1	0.00407419099997242	1	91	NA	237.39032931	0	0.840000000000001	6.27	1	225.7950971	225.799171291	"19"	565.224725506	559.648510462	1.5	0.1
0.01	1	0.0038797540000246	1	91	NA	237.39032931	0	0.840000000000001	6.27	1	226.028903615	226.032783369	"19"	565.224725506	559.648510462	1.5	0.1
0.01	1	1.23783808600001	1	91	NA	237.39032931	0	0.840000000000001	6.27	1	226.262639467	227.500477553	"19"	565.224725506	559.648510462	1.5	0.1
0.01	1	0.00379303200003278	1	91	NA	237.39032931	0	0.840000000000001	6.27	1	227.731837635	227.735630667	"19"	565.224725506	559.648510462	1.5	0.1
0.01	1	0.192628796000008	1	91	NA	237.39032931	0	0.840000000000001	6.27	1	227.96550856	228.158137356	"19"	565.224725506	559.648510462	1.5	0.1
0.01	1	0.255305770000007	1	91	NA	237.39032931	0	0.840000000000001	6.27	1	228.382862595	228.638168365	"19"	565.224725506	559.648510462	1.5	0.1
0.01	1	0.0588403460000109	1	91	NA	237.39032931	0	0.840000000000001	6.27	1	228.86704855	228.925888896	"19"	565.224725506	559.648510462	1.5	0.1
0.01	1	0.0025226449999991	1	91	NA	237.39032931	0	0.840000000000001	6.27	1	229.150827055	229.1533497	"19"	565.224725506	559.648510462	1.5	0.1
0.01	1	0.109156667999969	1	91	NA	237.39032931	0	0.840000000000001	6.27	1	229.38455798	229.493714648	"19"	565.224725506	559.648510462	1.5	0.1
0.01	1	0.00456860500003131	1	91	NA	237.39032931	0	0.840000000000001	6.27	1	229.718526045	229.72309465	"19"	565.224725506	559.648510462	1.5	0.1
0.01	1	0.0690928939999935	1	91	NA	237.39032931	0	0.840000000000001	6.27	1	229.952206677	230.021299571	"19"	565.224725506	559.648510462	1.5	0.1
0.01	1	0.00218860100000029	1	91	NA	237.39032931	0	0.840000000000001	6.27	1	230.252677662	230.254866263	"19"	565.224725506	559.648510462	1.5	0.1
0.01	1	0.00221689099998912	1	91	NA	237.39032931	0	0.840000000000001	6.27	1	230.48642995	230.488646841	"19"	565.224725506	559.648510462	1.5	0.1
0.01	1	0.573592114999997	1	91	NA	237.39032931	0	0.840000000000001	6.27	1	230.72027019	231.293862305	"19"	565.224725506	559.648510462	1.5	0.1
0.01	1	0.00379681900000151	1	91	NA	237.39032931	0	0.840000000000001	6.27	1	231.52146695	231.525263769	"19"	565.224725506	559.648510462	1.5	0.1
0.01	1	0.00377575999999635	1	91	NA	237.39032931	0	0.840000000000001	6.27	1	231.755170165	231.758945925	"19"	565.224725506	559.648510462	1.5	0.1
0.01	1	0.00386810800000603	1	91	NA	237.39032931	0	0.840000000000001	6.27	1	231.988998635	231.992866743	"19"	565.224725506	559.648510462	1.5	0.1
0.01	1	0.00377658700000438	1	91	NA	237.39032931	0	0.840000000000001	6.27	1	232.222651692	232.226428279	"19"	565.224725506	559.648510462	1.5	0.1
0.01	1	0.00391822299997102	1	91	NA	237.39032931	0	0.840000000000001	6.27	1	232.45636194	232.460280163	"19"	565.224725506	559.648510462	1.5	0.1
0.01	1	1.21882089499996	1	91	NA	237.39032931	0	0.840000000000001	6.27	1	232.690041085	233.90886198	"19"	565.224725506	559.648510462	1.5	0.1
0.01	1	0.0039288190000093	1	91	NA	237.39032931	0	0.840000000000001	6.27	1	234.14259232	234.146521139	"19"	565.224725506	559.648510462	1.5	0.1
0.01	1	0.00400991399999384	1	91	NA	237.39032931	0	0.840000000000001	6.27	1	234.376269355	234.380279269	"19"	565.224725506	559.648510462	1.5	0.1
0.01	1	0.00335061999999198	1	91	NA	237.39032931	0	0.840000000000001	6.27	1	234.610081299	234.613431919	"19"	565.224725506	559.648510462	1.5	0.1
0.01	1	0.00354514700001118	1	91	NA	237.39032931	0	0.840000000000001	6.27	1	234.84366241	234.847207557	"19"	565.224725506	559.648510462	1.5	0.1
0.01	1	0.00398741399999381	1	91	NA	237.39032931	0	0.840000000000001	6.27	1	235.077457007	235.081444421	"19"	565.224725506	559.648510462	1.5	0.1
0.01	1	0.00382256599999664	1	91	NA	237.39032931	0	0.840000000000001	6.27	1	235.311201805	235.315024371	"19"	565.224725506	559.648510462	1.5	0.1
0.01	1	0.00403628699996261	1	91	NA	237.39032931	0	0.840000000000001	6.27	1	235.5449363	235.548972587	"19"	565.224725506	559.648510462	1.5	0.1
0.01	1	0.0043153420000408	1	91	NA	237.39032931	0	0.840000000000001	6.27	1	235.77869608	235.783011422	"19"	565.224725506	559.648510462	1.5	0.1
0.01	1	0.00368613699998832	1	91	NA	237.39032931	0	0.840000000000001	6.27	1	236.012332502	236.016018639	"19"	565.224725506	559.648510462	1.5	0.1
0.01	1	0.00392597100000103	1	91	NA	237.39032931	0	0.840000000000001	6.27	1	236.246072562	236.249998533	"19"	565.224725506	559.648510462	1.5	0.1
0.01	1	0.00365103500001851	1	91	NA	237.39032931	0	0.840000000000001	6.27	1	236.47983995	236.483490985	"19"	565.224725506	559.648510462	1.5	0.1
0.01	1	0.00454757500000369	1	91	NA	237.39032931	0	0.840000000000001	6.27	1	236.713652995	236.71820057	"19"	565.224725506	559.648510462	1.5	0.1
0.01	1	0.441435155999955	2	91	NA	237.39032931	0	0.840000000000001	6.27	1	236.947325845	237.388761001	"19"	565.224725506	559.648510462	1.5	0.1
0.01	1	0.00382360399999015	1	5	240.472558265	NA	1	0	6.27	1	239.418103077	239.421926681	"20"	565.224725506	559.648510462	1.5	0.1
0.01	1	0.00451123199997028	1	5	240.472558265	NA	1	0	6.27	1	239.65182384	239.656335072	"20"	565.224725506	559.648510462	1.5	0.1
0.01	1	0.00357022100001814	1	5	240.472558265	NA	1	0	6.27	1	239.8855971	239.889167321	"20"	565.224725506	559.648510462	1.5	0.1
0.01	1	0.00465189799996324	1	5	240.472558265	NA	1	0	6.27	1	240.119477092	240.12412899	"20"	565.224725506	559.648510462	1.5	0.1
0.01	1	0.0038761280000017	1	5	240.472558265	NA	1	0	6.27	1	240.353020525	240.356896653	"20"	565.224725506	559.648510462	1.5	0.1
0.01	1	0.00456500500001766	1	123	NA	248.638396572	0	0.24	6.51	1	242.5066414	242.511206405	"21"	565.224725506	559.648510462	1.5	0.1
0.01	1	0.0034281399999827	1	123	NA	248.638396572	0	0.24	6.51	1	242.740318667	242.743746807	"21"	565.224725506	559.648510462	1.5	0.1
0.01	1	0.0033150230000274	1	123	NA	248.638396572	0	0.24	6.51	1	242.974081292	242.977396315	"21"	565.224725506	559.648510462	1.5	0.1
0.01	1	0.00393560800000614	1	123	NA	248.638396572	0	0.24	6.51	1	243.207828195	243.211763803	"21"	565.224725506	559.648510462	1.5	0.1
0.01	1	0.00383477100001528	1	123	NA	248.638396572	0	0.24	6.51	1	243.44157604	243.445410811	"21"	565.224725506	559.648510462	1.5	0.1
0.01	1	0.00403109300003734	1	123	NA	248.638396572	0	0.24	6.51	1	243.67525649	243.679287583	"21"	565.224725506	559.648510462	1.5	0.1
0.01	1	0.00370632900001056	1	123	NA	248.638396572	0	0.24	6.51	1	243.90898889	243.912695219	"21"	565.224725506	559.648510462	1.5	0.1
0.01	1	0.00424575200003119	1	123	NA	248.638396572	0	0.24	6.51	1	244.142634097	244.146879849	"21"	565.224725506	559.648510462	1.5	0.1
0.01	1	0.0039001560000429	1	123	NA	248.638396572	0	0.24	6.51	1	244.376399717	244.380299873	"21"	565.224725506	559.648510462	1.5	0.1
0.01	1	0.00461375000003272	1	123	NA	248.638396572	0	0.24	6.51	1	244.610373005	244.614986755	"21"	565.224725506	559.648510462	1.5	0.1
0.01	1	0.00388843100000713	1	123	NA	248.638396572	0	0.24	6.51	1	244.843868772	244.847757203	"21"	565.224725506	559.648510462	1.5	0.1
0.01	1	0.00383829099996547	1	123	NA	248.638396572	0	0.24	6.51	1	245.077576382	245.081414673	"21"	565.224725506	559.648510462	1.5	0.1
0.01	1	0.00417657599996346	1	123	NA	248.638396572	0	0.24	6.51	1	245.311307945	245.315484521	"21"	565.224725506	559.648510462	1.5	0.1
0.01	1	0.00484221700003218	1	123	NA	248.638396572	0	0.24	6.51	1	245.54509799	245.549940207	"21"	565.224725506	559.648510462	1.5	0.1
0.01	1	0.00401711500001056	1	123	NA	248.638396572	0	0.24	6.51	1	245.77875351	245.782770625	"21"	565.224725506	559.648510462	1.5	0.1
0.01	1	0.00461045500003365	1	123	NA	248.638396572	0	0.24	6.51	1	246.01254147	246.017151925	"21"	565.224725506	559.648510462	1.5	0.1
0.01	1	0.00389063499994791	1	123	NA	248.638396572	0	0.24	6.51	1	246.246216412	246.250107047	"21"	565.224725506	559.648510462	1.5	0.1
0.01	1	0.00381348000001935	1	123	NA	248.638396572	0	0.24	6.51	1	246.480032115	246.483845595	"21"	565.224725506	559.648510462	1.5	0.1
0.01	1	0.00456625999999005	1	123	NA	248.638396572	0	0.24	6.51	1	246.71372157	246.71828783	"21"	565.224725506	559.648510462	1.5	0.1
0.01	1	0.00378431699999737	1	123	NA	248.638396572	0	0.24	6.51	1	246.94739525	246.951179567	"21"	565.224725506	559.648510462	1.5	0.1
0.01	1	0.0036442749999992	1	123	NA	248.638396572	0	0.24	6.51	1	247.18117018	247.184814455	"21"	565.224725506	559.648510462	1.5	0.1
0.01	1	0.00354242999998178	1	123	NA	248.638396572	0	0.24	6.51	1	247.414960415	247.418502845	"21"	565.224725506	559.648510462	1.5	0.1
0.01	1	0.00457400499999494	1	123	NA	248.638396572	0	0.24	6.51	1	247.64873413	247.653308135	"21"	565.224725506	559.648510462	1.5	0.1
0.01	1	0.00474237200000971	1	123	NA	248.638396572	0	0.24	6.51	1	247.882338475	247.887080847	"21"	565.224725506	559.648510462	1.5	0.1
0.01	1	0.520807068000011	2	123	NA	248.638396572	0	0.24	6.51	1	248.116060075	248.636867143	"21"	565.224725506	559.648510462	1.5	0.1
0.01	1	0.229833865000046	1	81	NA	264.269771183	0	0.55	7.06	1	250.68702467	250.916858535	"22"	565.224725506	559.648510462	1.5	0.1
0.01	1	0.00383186599998453	1	81	NA	264.269771183	0	0.55	7.06	1	251.154508705	251.158340571	"22"	565.224725506	559.648510462	1.5	0.1
0.01	1	0.0044956950000028	1	81	NA	264.269771183	0	0.55	7.06	1	251.388253645	251.39274934	"22"	565.224725506	559.648510462	1.5	0.1
