"payoff.level"	"balloon"	"rt"	"resp"	"explode.trial"	"explode.time"	"finish.time"	"exploded"	"trial.total"	"cumulative.total"	"finished"	"trial.start"	"trial.end"	"trial.num"	"secs"	"start.time"	"iti"	"isi"
0.01	1	6.80951871800062	1	64	NA	24.0282834019999	0	0.3	0.3	1	0.025608595000449	6.83512731300107	"1"	13620.272774904	13614.597645304	1.5	0.1
0.01	1	0.70190288899903	1	64	NA	24.0282834019999	0	0.3	0.3	1	7.20434987100089	7.90625275999992	"1"	13620.272774904	13614.597645304	1.5	0.1
0.01	1	0.405852432999382	1	64	NA	24.0282834019999	0	0.3	0.3	1	8.13932729500084	8.54517972800022	"1"	13620.272774904	13614.597645304	1.5	0.1
0.01	1	0.355828792999091	1	64	NA	24.0282834019999	0	0.3	0.3	1	8.77369902500141	9.1295278180005	"1"	13620.272774904	13614.597645304	1.5	0.1
0.01	1	0.308735465998325	1	64	NA	24.0282834019999	0	0.3	0.3	1	9.3580167400014	9.66675220599973	"1"	13620.272774904	13614.597645304	1.5	0.1
0.01	1	0.350695619999897	1	64	NA	24.0282834019999	0	0.3	0.3	1	9.8922852450014	10.2429808650013	"1"	13620.272774904	13614.597645304	1.5	0.1
0.01	1	0.269215459000407	1	64	NA	24.0282834019999	0	0.3	0.3	1	10.4765238670007	10.7457393260011	"1"	13620.272774904	13614.597645304	1.5	0.1
0.01	1	0.352687046999563	1	64	NA	24.0282834019999	0	0.3	0.3	1	10.9775383550004	11.330225402	"1"	13620.272774904	13614.597645304	1.5	0.1
0.01	1	0.400299323999207	1	64	NA	24.0282834019999	0	0.3	0.3	1	11.5617179600013	11.9620172840005	"1"	13620.272774904	13614.597645304	1.5	0.1
0.01	1	0.414273397998841	1	64	NA	24.0282834019999	0	0.3	0.3	1	12.1961329100013	12.6104063080002	"1"	13620.272774904	13614.597645304	1.5	0.1
0.01	1	0.322444720000931	1	64	NA	24.0282834019999	0	0.3	0.3	1	12.8472235099998	13.1696682300008	"1"	13620.272774904	13614.597645304	1.5	0.1
0.01	1	0.355681011000343	1	64	NA	24.0282834019999	0	0.3	0.3	1	13.3981125299997	13.7537935410001	"1"	13620.272774904	13614.597645304	1.5	0.1
0.01	1	0.339430131998597	1	64	NA	24.0282834019999	0	0.3	0.3	1	13.9824430670014	14.321873199	"1"	13620.272774904	13614.597645304	1.5	0.1
0.01	1	0.268442479000441	1	64	NA	24.0282834019999	0	0.3	0.3	1	14.5500147399998	14.8184572190003	"1"	13620.272774904	13614.597645304	1.5	0.1
0.01	1	0.288100368001324	1	64	NA	24.0282834019999	0	0.3	0.3	1	15.0509862250001	15.3390865930014	"1"	13620.272774904	13614.597645304	1.5	0.1
0.01	1	0.274501228999725	1	64	NA	24.0282834019999	0	0.3	0.3	1	15.56848455	15.8429857789997	"1"	13620.272774904	13614.597645304	1.5	0.1
0.01	1	0.27694184199936	1	64	NA	24.0282834019999	0	0.3	0.3	1	16.0693630000005	16.3463048419999	"1"	13620.272774904	13614.597645304	1.5	0.1
0.01	1	0.271488211999895	1	64	NA	24.0282834019999	0	0.3	0.3	1	16.5701065100002	16.8415947220001	"1"	13620.272774904	13614.597645304	1.5	0.1
0.01	1	0.283169943000757	1	64	NA	24.0282834019999	0	0.3	0.3	1	17.0709120920001	17.3540820350008	"1"	13620.272774904	13614.597645304	1.5	0.1
0.01	1	0.293930713000009	1	64	NA	24.0282834019999	0	0.3	0.3	1	17.5884787150007	17.8824094280008	"1"	13620.272774904	13614.597645304	1.5	0.1
0.01	1	0.480440248000377	1	64	NA	24.0282834019999	0	0.3	0.3	1	18.1228391370005	18.6032793850009	"1"	13620.272774904	13614.597645304	1.5	0.1
0.01	1	0.473000451000189	1	64	NA	24.0282834019999	0	0.3	0.3	1	18.840635677001	19.3136361280012	"1"	13620.272774904	13614.597645304	1.5	0.1
0.01	1	0.421168893999493	1	64	NA	24.0282834019999	0	0.3	0.3	1	19.5417881470003	19.9629570409998	"1"	13620.272774904	13614.597645304	1.5	0.1
0.01	1	0.290056466001261	1	64	NA	24.0282834019999	0	0.3	0.3	1	20.1928600470001	20.4829165130013	"1"	13620.272774904	13614.597645304	1.5	0.1
0.01	1	0.275783057000808	1	64	NA	24.0282834019999	0	0.3	0.3	1	20.7103653169997	20.9861483740005	"1"	13620.272774904	13614.597645304	1.5	0.1
0.01	1	0.279536080999605	1	64	NA	24.0282834019999	0	0.3	0.3	1	21.2112872070011	21.4908232880007	"1"	13620.272774904	13614.597645304	1.5	0.1
0.01	1	0.274153352000212	1	64	NA	24.0282834019999	0	0.3	0.3	1	21.7288348300008	22.002988182001	"1"	13620.272774904	13614.597645304	1.5	0.1
0.01	1	0.251981995999813	1	64	NA	24.0282834019999	0	0.3	0.3	1	22.229724832001	22.4817068280008	"1"	13620.272774904	13614.597645304	1.5	0.1
0.01	1	0.303385025999887	1	64	NA	24.0282834019999	0	0.3	0.3	1	22.7137869520011	23.017171978001	"1"	13620.272774904	13614.597645304	1.5	0.1
0.01	1	0.291047513001104	1	64	NA	24.0282834019999	0	0.3	0.3	1	23.2481014519999	23.539148965001	"1"	13620.272774904	13614.597645304	1.5	0.1
0.01	1	0.26099194499875	2	64	NA	24.0282834019999	0	0.3	0.3	1	23.7656178650013	24.0266098100001	"1"	13620.272774904	13614.597645304	1.5	0.1
0.01	1	0.797168324999802	1	102	NA	30.7957634290015	0	0.15	0.45	1	26.06948491	26.8666532349998	"2"	13620.272774904	13614.597645304	1.5	0.1
0.01	1	0.033395135000319	1	102	NA	30.7957634290015	0	0.15	0.45	1	27.1045193900009	27.1379145250012	"2"	13620.272774904	13614.597645304	1.5	0.1
0.01	1	0.00394174099892552	1	102	NA	30.7957634290015	0	0.15	0.45	1	27.3715424670008	27.3754842079998	"2"	13620.272774904	13614.597645304	1.5	0.1
0.01	1	0.00399091599865642	1	102	NA	30.7957634290015	0	0.15	0.45	1	27.6052782920015	27.6092692080001	"2"	13620.272774904	13614.597645304	1.5	0.1
0.01	1	0.00330255599874363	1	102	NA	30.7957634290015	0	0.15	0.45	1	27.839134060001	27.8424366159998	"2"	13620.272774904	13614.597645304	1.5	0.1
0.01	1	0.00460073100111913	1	102	NA	30.7957634290015	0	0.15	0.45	1	28.0729403759997	28.0775411070008	"2"	13620.272774904	13614.597645304	1.5	0.1
0.01	1	0.103923007000049	1	102	NA	30.7957634290015	0	0.15	0.45	1	28.3065404300014	28.4104634370015	"2"	13620.272774904	13614.597645304	1.5	0.1
0.01	1	0.00214105600025505	1	102	NA	30.7957634290015	0	0.15	0.45	1	28.6403714080006	28.6425124640009	"2"	13620.272774904	13614.597645304	1.5	0.1
0.01	1	0.00473257500016189	1	102	NA	30.7957634290015	0	0.15	0.45	1	28.8741088799998	28.8788414549999	"2"	13620.272774904	13614.597645304	1.5	0.1
0.01	1	0.101369124000485	1	102	NA	30.7957634290015	0	0.15	0.45	1	29.1078637200008	29.2092328440012	"2"	13620.272774904	13614.597645304	1.5	0.1
0.01	1	0.00398717999996734	1	102	NA	30.7957634290015	0	0.15	0.45	1	29.4418336500003	29.4458208300002	"2"	13620.272774904	13614.597645304	1.5	0.1
0.01	1	0.00389263400029449	1	102	NA	30.7957634290015	0	0.15	0.45	1	29.6755558519999	29.6794484860002	"2"	13620.272774904	13614.597645304	1.5	0.1
0.01	1	0.0850726139997278	1	102	NA	30.7957634290015	0	0.15	0.45	1	29.9092752670003	29.9943478810001	"2"	13620.272774904	13614.597645304	1.5	0.1
0.01	1	0.00402389699956984	1	102	NA	30.7957634290015	0	0.15	0.45	1	30.2264256550006	30.2304495520002	"2"	13620.272774904	13614.597645304	1.5	0.1
0.01	1	0.00399989099969389	1	102	NA	30.7957634290015	0	0.15	0.45	1	30.4602088370011	30.4642087280008	"2"	13620.272774904	13614.597645304	1.5	0.1
0.01	1	0.100241221000033	2	102	NA	30.7957634290015	0	0.15	0.45	1	30.6938138950009	30.7940551160009	"2"	13620.272774904	13614.597645304	1.5	0.1
0.01	1	0.0427096620005614	1	97	NA	36.1643699249998	0	0.14	0.59	1	32.8309019650005	32.8736116270011	"3"	13620.272774904	13614.597645304	1.5	0.1
0.01	1	0.00478099000065413	1	97	NA	36.1643699249998	0	0.14	0.59	1	33.1146308400002	33.1194118300009	"3"	13620.272774904	13614.597645304	1.5	0.1
0.01	1	0.00455341099950601	1	97	NA	36.1643699249998	0	0.14	0.59	1	33.3483368590005	33.35289027	"3"	13620.272774904	13614.597645304	1.5	0.1
0.01	1	0.00391825099904963	1	97	NA	36.1643699249998	0	0.14	0.59	1	33.5821351850009	33.5860534359999	"3"	13620.272774904	13614.597645304	1.5	0.1
0.01	1	0.00390610700014804	1	97	NA	36.1643699249998	0	0.14	0.59	1	33.8157840069998	33.819690114	"3"	13620.272774904	13614.597645304	1.5	0.1
0.01	1	0.00400445599916566	1	97	NA	36.1643699249998	0	0.14	0.59	1	34.049604060001	34.0536085160002	"3"	13620.272774904	13614.597645304	1.5	0.1
0.01	1	0.0038759540002502	1	97	NA	36.1643699249998	0	0.14	0.59	1	34.2831635000002	34.2870394540005	"3"	13620.272774904	13614.597645304	1.5	0.1
0.01	1	0.00219220600047265	1	97	NA	36.1643699249998	0	0.14	0.59	1	34.5168628020001	34.5190550080006	"3"	13620.272774904	13614.597645304	1.5	0.1
0.01	1	0.00211554899942712	1	97	NA	36.1643699249998	0	0.14	0.59	1	34.7507375290006	34.752853078	"3"	13620.272774904	13614.597645304	1.5	0.1
0.01	1	0.00365396100096405	1	97	NA	36.1643699249998	0	0.14	0.59	1	34.9844095850003	34.9880635460013	"3"	13620.272774904	13614.597645304	1.5	0.1
0.01	1	0.00435737400039216	1	97	NA	36.1643699249998	0	0.14	0.59	1	35.2181388930003	35.2224962670007	"3"	13620.272774904	13614.597645304	1.5	0.1
0.01	1	0.00409429100000125	1	97	NA	36.1643699249998	0	0.14	0.59	1	35.4519502350013	35.4560445260013	"3"	13620.272774904	13614.597645304	1.5	0.1
0.01	1	0.00337660600052914	1	97	NA	36.1643699249998	0	0.14	0.59	1	35.6855957019998	35.6889723080003	"3"	13620.272774904	13614.597645304	1.5	0.1
0.01	1	0.00279896999927587	1	97	NA	36.1643699249998	0	0.14	0.59	1	35.9193831820012	35.9221821520005	"3"	13620.272774904	13614.597645304	1.5	0.1
0.01	1	0.0096213960005116	2	97	NA	36.1643699249998	0	0.14	0.59	1	36.1530660070002	36.1626874030007	"3"	13620.272774904	13614.597645304	1.5	0.1
0.01	1	0.00393632799932675	1	51	NA	48.3083276220004	0	0.42	1.01	1	38.2064607720004	38.2103970999997	"4"	13620.272774904	13614.597645304	1.5	0.1
0.01	1	0.00394295600017358	1	51	NA	48.3083276220004	0	0.42	1.01	1	38.4401988320005	38.4441417880007	"4"	13620.272774904	13614.597645304	1.5	0.1
0.01	1	0.00402234000102908	1	51	NA	48.3083276220004	0	0.42	1.01	1	38.673886732	38.6779090720011	"4"	13620.272774904	13614.597645304	1.5	0.1
0.01	1	0.00456656899950758	1	51	NA	48.3083276220004	0	0.42	1.01	1	38.9077454960006	38.9123120650002	"4"	13620.272774904	13614.597645304	1.5	0.1
0.01	1	0.0039989910001168	1	51	NA	48.3083276220004	0	0.42	1.01	1	39.1415035170012	39.1455025080013	"4"	13620.272774904	13614.597645304	1.5	0.1
0.01	1	0.00353283900039969	1	51	NA	48.3083276220004	0	0.42	1.01	1	39.3751519550005	39.3786847940009	"4"	13620.272774904	13614.597645304	1.5	0.1
0.01	1	0.00462188500023331	1	51	NA	48.3083276220004	0	0.42	1.01	1	39.6088242700007	39.6134461550009	"4"	13620.272774904	13614.597645304	1.5	0.1
0.01	1	0.00391952499921899	1	51	NA	48.3083276220004	0	0.42	1.01	1	39.8426059770009	39.8465255020001	"4"	13620.272774904	13614.597645304	1.5	0.1
0.01	1	0.00390048000008392	1	51	NA	48.3083276220004	0	0.42	1.01	1	40.0763745820004	40.0802750620005	"4"	13620.272774904	13614.597645304	1.5	0.1
0.01	1	0.00345503200151143	1	51	NA	48.3083276220004	0	0.42	1.01	1	40.3100867419998	40.3135417740014	"4"	13620.272774904	13614.597645304	1.5	0.1
0.01	1	0.00353042499955336	1	51	NA	48.3083276220004	0	0.42	1.01	1	40.5437694950015	40.547299920001	"4"	13620.272774904	13614.597645304	1.5	0.1
0.01	1	0.00389610999991419	1	51	NA	48.3083276220004	0	0.42	1.01	1	40.7774722000013	40.7813683100012	"4"	13620.272774904	13614.597645304	1.5	0.1
0.01	1	0.00398016799954348	1	51	NA	48.3083276220004	0	0.42	1.01	1	41.0112798720002	41.0152600399997	"4"	13620.272774904	13614.597645304	1.5	0.1
0.01	1	0.00393114899998181	1	51	NA	48.3083276220004	0	0.42	1.01	1	41.244887977	41.2488191259999	"4"	13620.272774904	13614.597645304	1.5	0.1
0.01	1	0.00439160600035393	1	51	NA	48.3083276220004	0	0.42	1.01	1	41.4786700700006	41.4830616760009	"4"	13620.272774904	13614.597645304	1.5	0.1
0.01	1	0.00364721200094209	1	51	NA	48.3083276220004	0	0.42	1.01	1	41.7123875819998	41.7160347940007	"4"	13620.272774904	13614.597645304	1.5	0.1
0.01	1	0.00472018700020271	1	51	NA	48.3083276220004	0	0.42	1.01	1	41.9461440200012	41.9508642070014	"4"	13620.272774904	13614.597645304	1.5	0.1
0.01	1	0.00389669400101411	1	51	NA	48.3083276220004	0	0.42	1.01	1	42.179852362	42.183749056001	"4"	13620.272774904	13614.597645304	1.5	0.1
0.01	1	0.00460387000021001	1	51	NA	48.3083276220004	0	0.42	1.01	1	42.4135946900005	42.4181985600007	"4"	13620.272774904	13614.597645304	1.5	0.1
0.01	1	0.00373764600044524	1	51	NA	48.3083276220004	0	0.42	1.01	1	42.6472599799999	42.6509976260004	"4"	13620.272774904	13614.597645304	1.5	0.1
0.01	1	0.00415051699928881	1	51	NA	48.3083276220004	0	0.42	1.01	1	42.8810027770014	42.8851532940007	"4"	13620.272774904	13614.597645304	1.5	0.1
0.01	1	0.00466821999907552	1	51	NA	48.3083276220004	0	0.42	1.01	1	43.1146819500009	43.11935017	"4"	13620.272774904	13614.597645304	1.5	0.1
0.01	1	0.00463288499850023	1	51	NA	48.3083276220004	0	0.42	1.01	1	43.3484925700013	43.3531254549998	"4"	13620.272774904	13614.597645304	1.5	0.1
0.01	1	0.00373342999955639	1	51	NA	48.3083276220004	0	0.42	1.01	1	43.5821683520007	43.5859017820003	"4"	13620.272774904	13614.597645304	1.5	0.1
0.01	1	0.00457442500010075	1	51	NA	48.3083276220004	0	0.42	1.01	1	43.8159972470003	43.8205716720004	"4"	13620.272774904	13614.597645304	1.5	0.1
0.01	1	0.00388492300044163	1	51	NA	48.3083276220004	0	0.42	1.01	1	44.0497357170007	44.0536206400011	"4"	13620.272774904	13614.597645304	1.5	0.1
0.01	1	0.00399822100007441	1	51	NA	48.3083276220004	0	0.42	1.01	1	44.3501524170006	44.3541506380006	"4"	13620.272774904	13614.597645304	1.5	0.1
0.01	1	0.00400004900075146	1	51	NA	48.3083276220004	0	0.42	1.01	1	44.5839096670006	44.5879097160014	"4"	13620.272774904	13614.597645304	1.5	0.1
0.01	1	0.0035746570010815	1	51	NA	48.3083276220004	0	0.42	1.01	1	44.8175757469999	44.8211504040009	"4"	13620.272774904	13614.597645304	1.5	0.1
0.01	1	0.00383245800003351	1	51	NA	48.3083276220004	0	0.42	1.01	1	45.0513798800002	45.0552123380003	"4"	13620.272774904	13614.597645304	1.5	0.1
0.01	1	0.00473121499999252	1	51	NA	48.3083276220004	0	0.42	1.01	1	45.2850490649998	45.2897802799998	"4"	13620.272774904	13614.597645304	1.5	0.1
0.01	1	0.00395191899951897	1	51	NA	48.3083276220004	0	0.42	1.01	1	45.5188173450006	45.5227692640001	"4"	13620.272774904	13614.597645304	1.5	0.1
0.01	1	0.00433364200034703	1	51	NA	48.3083276220004	0	0.42	1.01	1	45.7525526999998	45.7568863420001	"4"	13620.272774904	13614.597645304	1.5	0.1
0.01	1	0.00363225399996736	1	51	NA	48.3083276220004	0	0.42	1.01	1	45.9862008100008	45.9898330640008	"4"	13620.272774904	13614.597645304	1.5	0.1
0.01	1	0.00392717199974868	1	51	NA	48.3083276220004	0	0.42	1.01	1	46.2200247300007	46.2239519020004	"4"	13620.272774904	13614.597645304	1.5	0.1
0.01	1	0.00391332500112185	1	51	NA	48.3083276220004	0	0.42	1.01	1	46.4536870350003	46.4576003600014	"4"	13620.272774904	13614.597645304	1.5	0.1
0.01	1	0.00404275599976245	1	51	NA	48.3083276220004	0	0.42	1.01	1	46.6873586520014	46.6914014080012	"4"	13620.272774904	13614.597645304	1.5	0.1
0.01	1	0.00376605900055438	1	51	NA	48.3083276220004	0	0.42	1.01	1	46.9211864070003	46.9249524660008	"4"	13620.272774904	13614.597645304	1.5	0.1
0.01	1	0.00409414699970512	1	51	NA	48.3083276220004	0	0.42	1.01	1	47.1548342170008	47.1589283640005	"4"	13620.272774904	13614.597645304	1.5	0.1
0.01	1	0.00471050500163983	1	51	NA	48.3083276220004	0	0.42	1.01	1	47.3886374499998	47.3933479550014	"4"	13620.272774904	13614.597645304	1.5	0.1
0.01	1	0.0039444909998565	1	51	NA	48.3083276220004	0	0.42	1.01	1	47.6223509470001	47.6262954379999	"4"	13620.272774904	13614.597645304	1.5	0.1
0.01	1	0.00465133200123091	1	51	NA	48.3083276220004	0	0.42	1.01	1	47.8561815550001	47.8608328870014	"4"	13620.272774904	13614.597645304	1.5	0.1
0.01	1	0.216832258000068	2	51	NA	48.3083276220004	0	0.42	1.01	1	48.0898175470011	48.3066498050011	"4"	13620.272774904	13614.597645304	1.5	0.1
0.01	1	0.290338093998798	1	116	NA	65.4686369219999	0	0.63	1.64	1	50.3602688950014	50.6506069890002	"5"	13620.272774904	13614.597645304	1.5	0.1
0.01	1	0.00395158399987849	1	116	NA	65.4686369219999	0	0.63	1.64	1	50.8778273320004	50.8817789160003	"5"	13620.272774904	13614.597645304	1.5	0.1
0.01	1	0.00469274500028405	1	116	NA	65.4686369219999	0	0.63	1.64	1	51.1115801249998	51.1162728700001	"5"	13620.272774904	13614.597645304	1.5	0.1
0.01	1	0.00332719400103088	1	116	NA	65.4686369219999	0	0.63	1.64	1	51.3452828139998	51.3486100080008	"5"	13620.272774904	13614.597645304	1.5	0.1
0.01	1	0.00357961100053217	1	116	NA	65.4686369219999	0	0.63	1.64	1	51.5789307949999	51.5825104060004	"5"	13620.272774904	13614.597645304	1.5	0.1
0.01	1	0.0046511599994119	1	116	NA	65.4686369219999	0	0.63	1.64	1	51.8127650200004	51.8174161799998	"5"	13620.272774904	13614.597645304	1.5	0.1
0.01	1	0.00416637899979833	1	116	NA	65.4686369219999	0	0.63	1.64	1	52.0464561570006	52.0506225360004	"5"	13620.272774904	13614.597645304	1.5	0.1
0.01	1	0.00381325800117338	1	116	NA	65.4686369219999	0	0.63	1.64	1	52.2801134000001	52.2839266580013	"5"	13620.272774904	13614.597645304	1.5	0.1
0.01	1	0.00456355999995139	1	116	NA	65.4686369219999	0	0.63	1.64	1	52.5139740550003	52.5185376150002	"5"	13620.272774904	13614.597645304	1.5	0.1
0.01	1	0.00396896399979596	1	116	NA	65.4686369219999	0	0.63	1.64	1	52.7476805120004	52.7516494760002	"5"	13620.272774904	13614.597645304	1.5	0.1
0.01	1	0.00389791000088735	1	116	NA	65.4686369219999	0	0.63	1.64	1	52.9813086499998	52.9852065600007	"5"	13620.272774904	13614.597645304	1.5	0.1
0.01	1	0.00470477999988361	1	116	NA	65.4686369219999	0	0.63	1.64	1	53.2150798050006	53.2197845850005	"5"	13620.272774904	13614.597645304	1.5	0.1
0.01	1	0.00392054900112271	1	116	NA	65.4686369219999	0	0.63	1.64	1	53.4487961169998	53.4527166660009	"5"	13620.272774904	13614.597645304	1.5	0.1
0.01	1	0.00382553300005384	1	116	NA	65.4686369219999	0	0.63	1.64	1	53.6824819949998	53.6863075279998	"5"	13620.272774904	13614.597645304	1.5	0.1
0.01	1	0.00392339800055197	1	116	NA	65.4686369219999	0	0.63	1.64	1	53.916318652	53.9202420500005	"5"	13620.272774904	13614.597645304	1.5	0.1
0.01	1	0.00374211399866908	1	116	NA	65.4686369219999	0	0.63	1.64	1	54.1499764520013	54.153718566	"5"	13620.272774904	13614.597645304	1.5	0.1
0.01	1	0.00388081399978546	1	116	NA	65.4686369219999	0	0.63	1.64	1	54.3837305699999	54.3876113839997	"5"	13620.272774904	13614.597645304	1.5	0.1
0.01	1	0.00459761699858063	1	116	NA	65.4686369219999	0	0.63	1.64	1	54.6174870200011	54.6220846369997	"5"	13620.272774904	13614.597645304	1.5	0.1
0.01	1	0.0035239900007582	1	116	NA	65.4686369219999	0	0.63	1.64	1	54.85110437	54.8546283600008	"5"	13620.272774904	13614.597645304	1.5	0.1
0.01	1	0.00388994300010381	1	116	NA	65.4686369219999	0	0.63	1.64	1	55.0848397850004	55.0887297280005	"5"	13620.272774904	13614.597645304	1.5	0.1
0.01	1	0.00397252299990214	1	116	NA	65.4686369219999	0	0.63	1.64	1	55.318565005	55.3225375279999	"5"	13620.272774904	13614.597645304	1.5	0.1
0.01	1	0.00396488900150871	1	116	NA	65.4686369219999	0	0.63	1.64	1	55.5522333549998	55.5561982440013	"5"	13620.272774904	13614.597645304	1.5	0.1
0.01	1	0.00395954099985829	1	116	NA	65.4686369219999	0	0.63	1.64	1	55.7860933749998	55.7900529159997	"5"	13620.272774904	13614.597645304	1.5	0.1
0.01	1	0.00383116500051983	1	116	NA	65.4686369219999	0	0.63	1.64	1	56.0197716950006	56.0236028600011	"5"	13620.272774904	13614.597645304	1.5	0.1
0.01	1	0.00393409299977066	1	116	NA	65.4686369219999	0	0.63	1.64	1	56.2534531270012	56.257387220001	"5"	13620.272774904	13614.597645304	1.5	0.1
0.01	1	0.00390889499976765	1	116	NA	65.4686369219999	0	0.63	1.64	1	56.4871963670012	56.4911052620009	"5"	13620.272774904	13614.597645304	1.5	0.1
0.01	1	0.00407847600035893	1	116	NA	65.4686369219999	0	0.63	1.64	1	56.7209333800001	56.7250118560005	"5"	13620.272774904	13614.597645304	1.5	0.1
0.01	1	0.00372501200035913	1	116	NA	65.4686369219999	0	0.63	1.64	1	56.954701300001	56.9584263120014	"5"	13620.272774904	13614.597645304	1.5	0.1
0.01	1	0.00379735400019854	1	116	NA	65.4686369219999	0	0.63	1.64	1	57.1884319500004	57.1922293040006	"5"	13620.272774904	13614.597645304	1.5	0.1
0.01	1	0.00401264900028764	1	116	NA	65.4686369219999	0	0.63	1.64	1	57.4221571550006	57.4261698040009	"5"	13620.272774904	13614.597645304	1.5	0.1
0.01	1	0.00388840499908838	1	116	NA	65.4686369219999	0	0.63	1.64	1	57.6558506350011	57.6597390400002	"5"	13620.272774904	13614.597645304	1.5	0.1
0.01	1	0.00405388099898119	1	116	NA	65.4686369219999	0	0.63	1.64	1	57.8895111070015	57.8935649880004	"5"	13620.272774904	13614.597645304	1.5	0.1
0.01	1	0.00374540799930401	1	116	NA	65.4686369219999	0	0.63	1.64	1	58.1232684920014	58.1270139000007	"5"	13620.272774904	13614.597645304	1.5	0.1
0.01	1	0.00406955200014636	1	116	NA	65.4686369219999	0	0.63	1.64	1	58.3569736019999	58.3610431540001	"5"	13620.272774904	13614.597645304	1.5	0.1
0.01	1	0.003152051998768	1	116	NA	65.4686369219999	0	0.63	1.64	1	58.590817706001	58.5939697579997	"5"	13620.272774904	13614.597645304	1.5	0.1
0.01	1	0.00384074700014025	1	116	NA	65.4686369219999	0	0.63	1.64	1	58.8244541950007	58.8282949420009	"5"	13620.272774904	13614.597645304	1.5	0.1
0.01	1	0.00388475900035701	1	116	NA	65.4686369219999	0	0.63	1.64	1	59.058295887	59.0621806460003	"5"	13620.272774904	13614.597645304	1.5	0.1
0.01	1	0.00394146500002535	1	116	NA	65.4686369219999	0	0.63	1.64	1	59.2919478969998	59.2958893619998	"5"	13620.272774904	13614.597645304	1.5	0.1
0.01	1	0.00463265699909243	1	116	NA	65.4686369219999	0	0.63	1.64	1	59.5257686100013	59.5304012670003	"5"	13620.272774904	13614.597645304	1.5	0.1
0.01	1	0.00388384200050496	1	116	NA	65.4686369219999	0	0.63	1.64	1	59.7593817600009	59.7632656020014	"5"	13620.272774904	13614.597645304	1.5	0.1
0.01	1	0.00385344100141083	1	116	NA	65.4686369219999	0	0.63	1.64	1	59.993130715	59.9969841560014	"5"	13620.272774904	13614.597645304	1.5	0.1
0.01	1	0.00410115100021358	1	116	NA	65.4686369219999	0	0.63	1.64	1	60.2268614570003	60.2309626080005	"5"	13620.272774904	13614.597645304	1.5	0.1
0.01	1	0.00393369199991866	1	116	NA	65.4686369219999	0	0.63	1.64	1	60.4605891520005	60.4645228440004	"5"	13620.272774904	13614.597645304	1.5	0.1
0.01	1	0.00443641899983049	1	116	NA	65.4686369219999	0	0.63	1.64	1	60.6942885980006	60.6987250170005	"5"	13620.272774904	13614.597645304	1.5	0.1
0.01	1	0.00391521400160855	1	116	NA	65.4686369219999	0	0.63	1.64	1	60.9279523599998	60.9318675740014	"5"	13620.272774904	13614.597645304	1.5	0.1
0.01	1	0.0047079420000955	1	116	NA	65.4686369219999	0	0.63	1.64	1	61.1618231299999	61.166531072	"5"	13620.272774904	13614.597645304	1.5	0.1
0.01	1	0.00352108299921383	1	116	NA	65.4686369219999	0	0.63	1.64	1	61.3954709250011	61.3989920080003	"5"	13620.272774904	13614.597645304	1.5	0.1
0.01	1	0.00383920499916712	1	116	NA	65.4686369219999	0	0.63	1.64	1	61.6292008070013	61.6330400120005	"5"	13620.272774904	13614.597645304	1.5	0.1
0.01	1	0.00436453399925085	1	116	NA	65.4686369219999	0	0.63	1.64	1	61.8629479780011	61.8673125120004	"5"	13620.272774904	13614.597645304	1.5	0.1
0.01	1	0.0040205010009231	1	116	NA	65.4686369219999	0	0.63	1.64	1	62.0966259050001	62.100646406001	"5"	13620.272774904	13614.597645304	1.5	0.1
0.01	1	0.00340053800027817	1	116	NA	65.4686369219999	0	0.63	1.64	1	62.3303709459997	62.333771484	"5"	13620.272774904	13614.597645304	1.5	0.1
0.01	1	0.00344102999952156	1	116	NA	65.4686369219999	0	0.63	1.64	1	62.5640486920001	62.5674897219997	"5"	13620.272774904	13614.597645304	1.5	0.1
0.01	1	0.00380638300157443	1	116	NA	65.4686369219999	0	0.63	1.64	1	62.7979369149998	62.8017432980014	"5"	13620.272774904	13614.597645304	1.5	0.1
0.01	1	0.00474806700003683	1	116	NA	65.4686369219999	0	0.63	1.64	1	63.0316167800011	63.0363648470011	"5"	13620.272774904	13614.597645304	1.5	0.1
0.01	1	0.00468779500079108	1	116	NA	65.4686369219999	0	0.63	1.64	1	63.265329975	63.2700177700008	"5"	13620.272774904	13614.597645304	1.5	0.1
0.01	1	0.00458353499925579	1	116	NA	65.4686369219999	0	0.63	1.64	1	63.499033985001	63.5036175200003	"5"	13620.272774904	13614.597645304	1.5	0.1
0.01	1	0.00378675399952044	1	116	NA	65.4686369219999	0	0.63	1.64	1	63.7328484400005	63.736635194	"5"	13620.272774904	13614.597645304	1.5	0.1
0.01	1	0.00460792200101423	1	116	NA	65.4686369219999	0	0.63	1.64	1	63.966526315	63.971134237001	"5"	13620.272774904	13614.597645304	1.5	0.1
0.01	1	0.00449617100093747	1	116	NA	65.4686369219999	0	0.63	1.64	1	64.200322146	64.2048183170009	"5"	13620.272774904	13614.597645304	1.5	0.1
0.01	1	0.00438226499863958	1	116	NA	65.4686369219999	0	0.63	1.64	1	64.4339190500014	64.438301315	"5"	13620.272774904	13614.597645304	1.5	0.1
0.01	1	0.00389714000084496	1	116	NA	65.4686369219999	0	0.63	1.64	1	64.6676740700004	64.6715712100013	"5"	13620.272774904	13614.597645304	1.5	0.1
0.01	1	0.00374530800036155	1	116	NA	65.4686369219999	0	0.63	1.64	1	64.90138931	64.9051346180004	"5"	13620.272774904	13614.597645304	1.5	0.1
0.01	1	0.00443229300071835	1	116	NA	65.4686369219999	0	0.63	1.64	1	65.1351165020005	65.1395487950012	"5"	13620.272774904	13614.597645304	1.5	0.1
0.01	1	0.0981700150005054	2	116	NA	65.4686369219999	0	0.63	1.64	1	65.36891449	65.4670845050005	"5"	13620.272774904	13614.597645304	1.5	0.1
0.01	1	2.62636387199927	1	118	NA	89.5729540440007	0	0.830000000000001	2.47	1	67.5057252040006	70.1320890759998	"6"	13620.272774904	13614.597645304	1.5	0.1
0.01	1	0.00463317699905019	1	118	NA	89.5729540440007	0	0.830000000000001	2.47	1	70.3606258100008	70.3652589869998	"6"	13620.272774904	13614.597645304	1.5	0.1
0.01	1	0.003945783000745	1	118	NA	89.5729540440007	0	0.830000000000001	2.47	1	70.5942353650007	70.5981811480015	"6"	13620.272774904	13614.597645304	1.5	0.1
0.01	1	0.00344933300038974	1	118	NA	89.5729540440007	0	0.830000000000001	2.47	1	70.8279608270004	70.8314101600008	"6"	13620.272774904	13614.597645304	1.5	0.1
0.01	1	0.00331647799976054	1	118	NA	89.5729540440007	0	0.830000000000001	2.47	1	71.061666992	71.0649834699998	"6"	13620.272774904	13614.597645304	1.5	0.1
0.01	1	0.00403073900088202	1	118	NA	89.5729540440007	0	0.830000000000001	2.47	1	71.2954499850002	71.2994807240011	"6"	13620.272774904	13614.597645304	1.5	0.1
0.01	1	0.00396467099926667	1	118	NA	89.5729540440007	0	0.830000000000001	2.47	1	71.5291974970005	71.5331621679998	"6"	13620.272774904	13614.597645304	1.5	0.1
0.01	1	0.00456291999944369	1	118	NA	89.5729540440007	0	0.830000000000001	2.47	1	71.7629963150011	71.7675592350006	"6"	13620.272774904	13614.597645304	1.5	0.1
0.01	1	0.00338542600002256	1	118	NA	89.5729540440007	0	0.830000000000001	2.47	1	71.99670496	72.000090386	"6"	13620.272774904	13614.597645304	1.5	0.1
0.01	1	0.00392634399941016	1	118	NA	89.5729540440007	0	0.830000000000001	2.47	1	72.2303585200007	72.2342848640001	"6"	13620.272774904	13614.597645304	1.5	0.1
0.01	1	0.00370842600023025	1	118	NA	89.5729540440007	0	0.830000000000001	2.47	1	72.4641583100001	72.4678667360004	"6"	13620.272774904	13614.597645304	1.5	0.1
0.01	1	0.00461629999881552	1	118	NA	89.5729540440007	0	0.830000000000001	2.47	1	72.6979430700012	72.70255937	"6"	13620.272774904	13614.597645304	1.5	0.1
0.01	1	0.00390848400093091	1	118	NA	89.5729540440007	0	0.830000000000001	2.47	1	72.9315219199998	72.9354304040007	"6"	13620.272774904	13614.597645304	1.5	0.1
0.01	1	0.00396317999911844	1	118	NA	89.5729540440007	0	0.830000000000001	2.47	1	73.1652603800012	73.1692235600003	"6"	13620.272774904	13614.597645304	1.5	0.1
0.01	1	0.00449375399875862	1	118	NA	89.5729540440007	0	0.830000000000001	2.47	1	73.3990989330014	73.4035926870001	"6"	13620.272774904	13614.597645304	1.5	0.1
0.01	1	0.00381933499920706	1	118	NA	89.5729540440007	0	0.830000000000001	2.47	1	73.6327197850005	73.6365391199997	"6"	13620.272774904	13614.597645304	1.5	0.1
0.01	1	0.00388443100018776	1	118	NA	89.5729540440007	0	0.830000000000001	2.47	1	73.8664167570005	73.8703011880007	"6"	13620.272774904	13614.597645304	1.5	0.1
0.01	1	0.00325390599937236	1	118	NA	89.5729540440007	0	0.830000000000001	2.47	1	74.1002804400014	74.1035343460007	"6"	13620.272774904	13614.597645304	1.5	0.1
0.01	1	0.00373201300135406	1	118	NA	89.5729540440007	0	0.830000000000001	2.47	1	74.3339000870001	74.3376321000014	"6"	13620.272774904	13614.597645304	1.5	0.1
0.01	1	0.00236884900004952	1	118	NA	89.5729540440007	0	0.830000000000001	2.47	1	74.5676842330013	74.5700530820013	"6"	13620.272774904	13614.597645304	1.5	0.1
0.01	1	0.00470748699990509	1	118	NA	89.5729540440007	0	0.830000000000001	2.47	1	74.8013246850005	74.8060321720004	"6"	13620.272774904	13614.597645304	1.5	0.1
0.01	1	0.00375111399989692	1	118	NA	89.5729540440007	0	0.830000000000001	2.47	1	75.0350387720009	75.0387898860008	"6"	13620.272774904	13614.597645304	1.5	0.1
0.01	1	0.00333942600082082	1	118	NA	89.5729540440007	0	0.830000000000001	2.47	1	75.2688256660003	75.2721650920012	"6"	13620.272774904	13614.597645304	1.5	0.1
0.01	1	0.00380371600112994	1	118	NA	89.5729540440007	0	0.830000000000001	2.47	1	75.5025657719998	75.5063694880009	"6"	13620.272774904	13614.597645304	1.5	0.1
0.01	1	0.00389923000147974	1	118	NA	89.5729540440007	0	0.830000000000001	2.47	1	75.7361891199998	75.7400883500013	"6"	13620.272774904	13614.597645304	1.5	0.1
0.01	1	0.00388739399932092	1	118	NA	89.5729540440007	0	0.830000000000001	2.47	1	75.970015320001	75.9739027140004	"6"	13620.272774904	13614.597645304	1.5	0.1
0.01	1	0.00462812700061477	1	118	NA	89.5729540440007	0	0.830000000000001	2.47	1	76.2038521249997	76.2084802520003	"6"	13620.272774904	13614.597645304	1.5	0.1
0.01	1	0.00473656199937977	1	118	NA	89.5729540440007	0	0.830000000000001	2.47	1	76.4375634900007	76.4423000520001	"6"	13620.272774904	13614.597645304	1.5	0.1
0.01	1	0.00461384499976703	1	118	NA	89.5729540440007	0	0.830000000000001	2.47	1	76.6712149650011	76.6758288100009	"6"	13620.272774904	13614.597645304	1.5	0.1
0.01	1	0.00383769200016104	1	118	NA	89.5729540440007	0	0.830000000000001	2.47	1	76.9048684120007	76.9087061040009	"6"	13620.272774904	13614.597645304	1.5	0.1
0.01	1	0.00468717200055835	1	118	NA	89.5729540440007	0	0.830000000000001	2.47	1	77.1386295949997	77.1433167670002	"6"	13620.272774904	13614.597645304	1.5	0.1
0.01	1	0.00390126799902646	1	118	NA	89.5729540440007	0	0.830000000000001	2.47	1	77.3725451000009	77.376446368	"6"	13620.272774904	13614.597645304	1.5	0.1
0.01	1	0.00383990100090159	1	118	NA	89.5729540440007	0	0.830000000000001	2.47	1	77.606024707	77.6098646080009	"6"	13620.272774904	13614.597645304	1.5	0.1
0.01	1	0.00424319800004014	1	118	NA	89.5729540440007	0	0.830000000000001	2.47	1	77.8397615320009	77.844004730001	"6"	13620.272774904	13614.597645304	1.5	0.1
0.01	1	0.00438216199836461	1	118	NA	89.5729540440007	0	0.830000000000001	2.47	1	78.0736367300015	78.0780188919998	"6"	13620.272774904	13614.597645304	1.5	0.1
0.01	1	0.0047181650006678	1	118	NA	89.5729540440007	0	0.830000000000001	2.47	1	78.3072905600002	78.3120087250009	"6"	13620.272774904	13614.597645304	1.5	0.1
0.01	1	0.00390522999987297	1	118	NA	89.5729540440007	0	0.830000000000001	2.47	1	78.5410196000012	78.544924830001	"6"	13620.272774904	13614.597645304	1.5	0.1
0.01	1	0.0039832229995227	1	118	NA	89.5729540440007	0	0.830000000000001	2.47	1	78.7747221070003	78.7787053299999	"6"	13620.272774904	13614.597645304	1.5	0.1
0.01	1	0.00410294899847941	1	118	NA	89.5729540440007	0	0.830000000000001	2.47	1	79.0084006570014	79.0125036059999	"6"	13620.272774904	13614.597645304	1.5	0.1
0.01	1	0.004005895998489	1	118	NA	89.5729540440007	0	0.830000000000001	2.47	1	79.2422137000012	79.2462195959997	"6"	13620.272774904	13614.597645304	1.5	0.1
0.01	1	0.00456864000079804	1	118	NA	89.5729540440007	0	0.830000000000001	2.47	1	79.4759687320002	79.480537372001	"6"	13620.272774904	13614.597645304	1.5	0.1
0.01	1	0.00344729199969152	1	118	NA	89.5729540440007	0	0.830000000000001	2.47	1	79.7097038620013	79.713151154001	"6"	13620.272774904	13614.597645304	1.5	0.1
0.01	1	0.00358853600118891	1	118	NA	89.5729540440007	0	0.830000000000001	2.47	1	79.9433573719998	79.946945908001	"6"	13620.272774904	13614.597645304	1.5	0.1
0.01	1	0.00393539600008808	1	118	NA	89.5729540440007	0	0.830000000000001	2.47	1	80.1770649600003	80.1810003560004	"6"	13620.272774904	13614.597645304	1.5	0.1
0.01	1	0.00396247099888569	1	118	NA	89.5729540440007	0	0.830000000000001	2.47	1	80.410763535001	80.4147260059999	"6"	13620.272774904	13614.597645304	1.5	0.1
0.01	1	0.00458930499917187	1	118	NA	89.5729540440007	0	0.830000000000001	2.47	1	80.6445310600011	80.6491203650003	"6"	13620.272774904	13614.597645304	1.5	0.1
0.01	1	0.00393434699981299	1	118	NA	89.5729540440007	0	0.830000000000001	2.47	1	80.8783131670007	80.8822475140005	"6"	13620.272774904	13614.597645304	1.5	0.1
0.01	1	0.00358734300061769	1	118	NA	89.5729540440007	0	0.830000000000001	2.47	1	81.1119473950002	81.1155347380009	"6"	13620.272774904	13614.597645304	1.5	0.1
0.01	1	0.00388928800020949	1	118	NA	89.5729540440007	0	0.830000000000001	2.47	1	81.3457376719998	81.34962696	"6"	13620.272774904	13614.597645304	1.5	0.1
0.01	1	0.0041375649998372	1	118	NA	89.5729540440007	0	0.830000000000001	2.47	1	81.5794423650004	81.5835799300003	"6"	13620.272774904	13614.597645304	1.5	0.1
0.01	1	0.00470424000013736	1	118	NA	89.5729540440007	0	0.830000000000001	2.47	1	81.8132417950001	81.8179460350002	"6"	13620.272774904	13614.597645304	1.5	0.1
0.01	1	0.00331396799992945	1	118	NA	89.5729540440007	0	0.830000000000001	2.47	1	82.0468837000008	82.0501976680007	"6"	13620.272774904	13614.597645304	1.5	0.1
0.01	1	0.00346444800015888	1	118	NA	89.5729540440007	0	0.830000000000001	2.47	1	82.2805522600011	82.2840167080012	"6"	13620.272774904	13614.597645304	1.5	0.1
0.01	1	0.00416260299971327	1	118	NA	89.5729540440007	0	0.830000000000001	2.47	1	82.5142795570009	82.5184421600006	"6"	13620.272774904	13614.597645304	1.5	0.1
0.01	1	0.00386680400151818	1	118	NA	89.5729540440007	0	0.830000000000001	2.47	1	82.7479979199998	82.7518647240013	"6"	13620.272774904	13614.597645304	1.5	0.1
0.01	1	0.00462437999885879	1	118	NA	89.5729540440007	0	0.830000000000001	2.47	1	82.9818124000012	82.9864367800001	"6"	13620.272774904	13614.597645304	1.5	0.1
0.01	1	0.0038726749990019	1	118	NA	89.5729540440007	0	0.830000000000001	2.47	1	83.2154991870011	83.2193718620001	"6"	13620.272774904	13614.597645304	1.5	0.1
0.01	1	0.00403049799933797	1	118	NA	89.5729540440007	0	0.830000000000001	2.47	1	83.4491814700013	83.4532119680007	"6"	13620.272774904	13614.597645304	1.5	0.1
0.01	1	0.00428366100095445	1	118	NA	89.5729540440007	0	0.830000000000001	2.47	1	83.6830754490002	83.6873591100011	"6"	13620.272774904	13614.597645304	1.5	0.1
0.01	1	0.00469300700024178	1	118	NA	89.5729540440007	0	0.830000000000001	2.47	1	83.9166630500004	83.9213560570006	"6"	13620.272774904	13614.597645304	1.5	0.1
0.01	1	0.00458183699993242	1	118	NA	89.5729540440007	0	0.830000000000001	2.47	1	84.1505324549998	84.1551142919998	"6"	13620.272774904	13614.597645304	1.5	0.1
0.01	1	0.00350044799961324	1	118	NA	89.5729540440007	0	0.830000000000001	2.47	1	84.3841768920011	84.3876773400007	"6"	13620.272774904	13614.597645304	1.5	0.1
0.01	1	0.00467819699952088	1	118	NA	89.5729540440007	0	0.830000000000001	2.47	1	84.6179229200006	84.6226011170002	"6"	13620.272774904	13614.597645304	1.5	0.1
0.01	1	0.00378501100021822	1	118	NA	89.5729540440007	0	0.830000000000001	2.47	1	84.8515638950012	84.8553489060014	"6"	13620.272774904	13614.597645304	1.5	0.1
0.01	1	0.00374653099970601	1	118	NA	89.5729540440007	0	0.830000000000001	2.47	1	85.0853326650013	85.089079196001	"6"	13620.272774904	13614.597645304	1.5	0.1
0.01	1	0.00386716000139131	1	118	NA	89.5729540440007	0	0.830000000000001	2.47	1	85.319079592	85.3229467520014	"6"	13620.272774904	13614.597645304	1.5	0.1
0.01	1	0.00361562099897128	1	118	NA	89.5729540440007	0	0.830000000000001	2.47	1	85.5527232870008	85.5563389079998	"6"	13620.272774904	13614.597645304	1.5	0.1
0.01	1	0.00395452100019611	1	118	NA	89.5729540440007	0	0.830000000000001	2.47	1	85.7864376270009	85.790392148001	"6"	13620.272774904	13614.597645304	1.5	0.1
0.01	1	0.00461496699972486	1	118	NA	89.5729540440007	0	0.830000000000001	2.47	1	86.020338485001	86.0249534520008	"6"	13620.272774904	13614.597645304	1.5	0.1
0.01	1	0.00386196299950825	1	118	NA	89.5729540440007	0	0.830000000000001	2.47	1	86.2541206050009	86.2579825680004	"6"	13620.272774904	13614.597645304	1.5	0.1
0.01	1	0.00465851500121062	1	118	NA	89.5729540440007	0	0.830000000000001	2.47	1	86.48772379	86.4923823050012	"6"	13620.272774904	13614.597645304	1.5	0.1
0.01	1	0.00405973099987023	1	118	NA	89.5729540440007	0	0.830000000000001	2.47	1	86.7213914950007	86.7254512260006	"6"	13620.272774904	13614.597645304	1.5	0.1
0.01	1	0.00394609399882029	1	118	NA	89.5729540440007	0	0.830000000000001	2.47	1	86.9551323320011	86.9590784259999	"6"	13620.272774904	13614.597645304	1.5	0.1
0.01	1	0.00453878400003305	1	118	NA	89.5729540440007	0	0.830000000000001	2.47	1	87.1888366359999	87.1933754199999	"6"	13620.272774904	13614.597645304	1.5	0.1
0.01	1	0.00392788400131394	1	118	NA	89.5729540440007	0	0.830000000000001	2.47	1	87.4225681919997	87.4264960760011	"6"	13620.272774904	13614.597645304	1.5	0.1
0.01	1	0.00385576699954981	1	118	NA	89.5729540440007	0	0.830000000000001	2.47	1	87.6564080670014	87.6602638340009	"6"	13620.272774904	13614.597645304	1.5	0.1
0.01	1	0.00406853599997703	1	118	NA	89.5729540440007	0	0.830000000000001	2.47	1	87.8900047260013	87.8940732620013	"6"	13620.272774904	13614.597645304	1.5	0.1
0.01	1	0.00382367900056124	1	118	NA	89.5729540440007	0	0.830000000000001	2.47	1	88.1237971549999	88.1276208340005	"6"	13620.272774904	13614.597645304	1.5	0.1
0.01	1	0.00375960699966527	1	118	NA	89.5729540440007	0	0.830000000000001	2.47	1	88.3574952170002	88.3612548239998	"6"	13620.272774904	13614.597645304	1.5	0.1
0.01	1	0.00363429800017911	1	118	NA	89.5729540440007	0	0.830000000000001	2.47	1	88.5911464000001	88.5947806980002	"6"	13620.272774904	13614.597645304	1.5	0.1
0.01	1	0.00378470900068351	1	118	NA	89.5729540440007	0	0.830000000000001	2.47	1	88.8249731550004	88.8287578640011	"6"	13620.272774904	13614.597645304	1.5	0.1
0.01	1	0.00403095799993025	1	118	NA	89.5729540440007	0	0.830000000000001	2.47	1	89.0586076700001	89.0626386280001	"6"	13620.272774904	13614.597645304	1.5	0.1
0.01	1	0.00390732000050775	1	118	NA	89.5729540440007	0	0.830000000000001	2.47	1	89.2924188899997	89.2963262100002	"6"	13620.272774904	13614.597645304	1.5	0.1
0.01	1	0.0450852829999349	2	118	NA	89.5729540440007	0	0.830000000000001	2.47	1	89.5261896450011	89.571274928001	"6"	13620.272774904	13614.597645304	1.5	0.1
0.01	1	0.758691467000972	1	87	NA	108.772219347	0	0.69	3.16	1	91.6129047089998	92.3715961760008	"7"	13620.272774904	13614.597645304	1.5	0.1
0.01	1	0.00433349599916255	1	87	NA	108.772219347	0	0.69	3.16	1	92.5978939760007	92.6022274719999	"7"	13620.272774904	13614.597645304	1.5	0.1
0.01	1	0.00462617199991655	1	87	NA	108.772219347	0	0.69	3.16	1	92.8317446600013	92.8363708320012	"7"	13620.272774904	13614.597645304	1.5	0.1
0.01	1	0.00355874399974709	1	87	NA	108.772219347	0	0.69	3.16	1	93.065443720001	93.0690024640007	"7"	13620.272774904	13614.597645304	1.5	0.1
0.01	1	0.00368914700084133	1	87	NA	108.772219347	0	0.69	3.16	1	93.2991578849997	93.3028470320005	"7"	13620.272774904	13614.597645304	1.5	0.1
0.01	1	0.00465153199911583	1	87	NA	108.772219347	0	0.69	3.16	1	93.532968290001	93.5376198220001	"7"	13620.272774904	13614.597645304	1.5	0.1
0.01	1	0.00389314700078103	1	87	NA	108.772219347	0	0.69	3.16	1	93.7665669449998	93.7704600920006	"7"	13620.272774904	13614.597645304	1.5	0.1
0.01	1	0.00379438400159415	1	87	NA	108.772219347	0	0.69	3.16	1	94.0002814119998	94.0040757960014	"7"	13620.272774904	13614.597645304	1.5	0.1
0.01	1	0.00403009600086079	1	87	NA	108.772219347	0	0.69	3.16	1	94.2341290820004	94.2381591780013	"7"	13620.272774904	13614.597645304	1.5	0.1
0.01	1	0.00364842499948281	1	87	NA	108.772219347	0	0.69	3.16	1	94.4677640450009	94.4714124700004	"7"	13620.272774904	13614.597645304	1.5	0.1
0.01	1	0.00392304299930402	1	87	NA	108.772219347	0	0.69	3.16	1	94.7014681750006	94.7053912179999	"7"	13620.272774904	13614.597645304	1.5	0.1
0.01	1	0.00422091399923374	1	87	NA	108.772219347	0	0.69	3.16	1	94.9351961230004	94.9394170369997	"7"	13620.272774904	13614.597645304	1.5	0.1
0.01	1	0.00424455099891929	1	87	NA	108.772219347	0	0.69	3.16	1	95.1689061360012	95.1731506870001	"7"	13620.272774904	13614.597645304	1.5	0.1
0.01	1	0.00359127100091428	1	87	NA	108.772219347	0	0.69	3.16	1	95.4026106849997	95.4062019560006	"7"	13620.272774904	13614.597645304	1.5	0.1
0.01	1	0.00420568099980301	1	87	NA	108.772219347	0	0.69	3.16	1	95.6363363870005	95.6405420680003	"7"	13620.272774904	13614.597645304	1.5	0.1
0.01	1	0.00418485800037161	1	87	NA	108.772219347	0	0.69	3.16	1	95.8701960920007	95.8743809500011	"7"	13620.272774904	13614.597645304	1.5	0.1
0.01	1	0.00433301900011429	1	87	NA	108.772219347	0	0.69	3.16	1	96.1038547660009	96.1081877850011	"7"	13620.272774904	13614.597645304	1.5	0.1
0.01	1	0.00409463899995899	1	87	NA	108.772219347	0	0.69	3.16	1	96.3375170350009	96.3416116740009	"7"	13620.272774904	13614.597645304	1.5	0.1
0.01	1	0.00397337899994454	1	87	NA	108.772219347	0	0.69	3.16	1	96.5712640450001	96.5752374240001	"7"	13620.272774904	13614.597645304	1.5	0.1
0.01	1	0.0038824029998068	1	87	NA	108.772219347	0	0.69	3.16	1	96.8050736050009	96.8089560080007	"7"	13620.272774904	13614.597645304	1.5	0.1
0.01	1	0.00399264500083518	1	87	NA	108.772219347	0	0.69	3.16	1	97.0387985249999	97.0427911700008	"7"	13620.272774904	13614.597645304	1.5	0.1
0.01	1	0.0038950569996814	1	87	NA	108.772219347	0	0.69	3.16	1	97.2724166570006	97.2763117140003	"7"	13620.272774904	13614.597645304	1.5	0.1
0.01	1	0.00336602200150082	1	87	NA	108.772219347	0	0.69	3.16	1	97.5062858279998	97.5096518500013	"7"	13620.272774904	13614.597645304	1.5	0.1
0.01	1	0.00471577699863701	1	87	NA	108.772219347	0	0.69	3.16	1	97.7401347900013	97.744850567	"7"	13620.272774904	13614.597645304	1.5	0.1
0.01	1	0.00290907499947934	1	87	NA	108.772219347	0	0.69	3.16	1	97.9736255500011	97.9765346250006	"7"	13620.272774904	13614.597645304	1.5	0.1
0.01	1	0.00222916500024439	1	87	NA	108.772219347	0	0.69	3.16	1	98.207479349001	98.2097085140012	"7"	13620.272774904	13614.597645304	1.5	0.1
0.01	1	0.00340160599989758	1	87	NA	108.772219347	0	0.69	3.16	1	98.4411377320012	98.4445393380011	"7"	13620.272774904	13614.597645304	1.5	0.1
0.01	1	0.00412114400023711	1	87	NA	108.772219347	0	0.69	3.16	1	98.6749715599999	98.6790927040001	"7"	13620.272774904	13614.597645304	1.5	0.1
0.01	1	0.00348011300047801	1	87	NA	108.772219347	0	0.69	3.16	1	98.9085043470004	98.9119844600009	"7"	13620.272774904	13614.597645304	1.5	0.1
0.01	1	0.00400124099905952	1	87	NA	108.772219347	0	0.69	3.16	1	99.1422578970014	99.1462591380005	"7"	13620.272774904	13614.597645304	1.5	0.1
0.01	1	0.00384457700056373	1	87	NA	108.772219347	0	0.69	3.16	1	99.3760591669998	99.3799037440003	"7"	13620.272774904	13614.597645304	1.5	0.1
0.01	1	0.00388408499929938	1	87	NA	108.772219347	0	0.69	3.16	1	99.6097890670007	99.613673152	"7"	13620.272774904	13614.597645304	1.5	0.1
0.01	1	0.00362119400051597	1	87	NA	108.772219347	0	0.69	3.16	1	99.8435309819997	99.8471521760002	"7"	13620.272774904	13614.597645304	1.5	0.1
0.01	1	0.00414271100089536	1	87	NA	108.772219347	0	0.69	3.16	1	100.077133917001	100.081276628001	"7"	13620.272774904	13614.597645304	1.5	0.1
0.01	1	0.00466768499973114	1	87	NA	108.772219347	0	0.69	3.16	1	100.310894955001	100.31556264	"7"	13620.272774904	13614.597645304	1.5	0.1
0.01	1	0.00461344500035921	1	87	NA	108.772219347	0	0.69	3.16	1	100.544706875	100.54932032	"7"	13620.272774904	13614.597645304	1.5	0.1
0.01	1	0.00458587999855808	1	87	NA	108.772219347	0	0.69	3.16	1	100.778322195001	100.782908075	"7"	13620.272774904	13614.597645304	1.5	0.1
0.01	1	0.00370013999963703	1	87	NA	108.772219347	0	0.69	3.16	1	101.012030972001	101.015731112	"7"	13620.272774904	13614.597645304	1.5	0.1
0.01	1	0.00397253600021941	1	87	NA	108.772219347	0	0.69	3.16	1	101.245789012	101.249761548001	"7"	13620.272774904	13614.597645304	1.5	0.1
0.01	1	0.00410199500038289	1	87	NA	108.772219347	0	0.69	3.16	1	101.479646845	101.483748840001	"7"	13620.272774904	13614.597645304	1.5	0.1
0.01	1	0.00430953999966732	1	87	NA	108.772219347	0	0.69	3.16	1	101.713287960001	101.717597500001	"7"	13620.272774904	13614.597645304	1.5	0.1
0.01	1	0.00341331300114689	1	87	NA	108.772219347	0	0.69	3.16	1	101.947076445	101.950489758001	"7"	13620.272774904	13614.597645304	1.5	0.1
0.01	1	0.00380336700072803	1	87	NA	108.772219347	0	0.69	3.16	1	102.180691677	102.184495044001	"7"	13620.272774904	13614.597645304	1.5	0.1
0.01	1	0.00377383900013228	1	87	NA	108.772219347	0	0.69	3.16	1	102.414471105001	102.418244944001	"7"	13620.272774904	13614.597645304	1.5	0.1
0.01	1	0.00462393000088923	1	87	NA	108.772219347	0	0.69	3.16	1	102.648297955	102.652921885001	"7"	13620.272774904	13614.597645304	1.5	0.1
0.01	1	0.00397413700011384	1	87	NA	108.772219347	0	0.69	3.16	1	102.881954245	102.885928382	"7"	13620.272774904	13614.597645304	1.5	0.1
0.01	1	0.00390207999953418	1	87	NA	108.772219347	0	0.69	3.16	1	103.11562233	103.11952441	"7"	13620.272774904	13614.597645304	1.5	0.1
0.01	1	0.00374699100029829	1	87	NA	108.772219347	0	0.69	3.16	1	103.349406727	103.353153718001	"7"	13620.272774904	13614.597645304	1.5	0.1
0.01	1	0.00423258500086376	1	87	NA	108.772219347	0	0.69	3.16	1	103.583153985001	103.587386570001	"7"	13620.272774904	13614.597645304	1.5	0.1
0.01	1	0.00394495099862979	1	87	NA	108.772219347	0	0.69	3.16	1	103.816793195001	103.820738146	"7"	13620.272774904	13614.597645304	1.5	0.1
0.01	1	0.00332356400031131	1	87	NA	108.772219347	0	0.69	3.16	1	104.050533596001	104.053857160001	"7"	13620.272774904	13614.597645304	1.5	0.1
0.01	1	0.00346982900009607	1	87	NA	108.772219347	0	0.69	3.16	1	104.284262635001	104.287732464001	"7"	13620.272774904	13614.597645304	1.5	0.1
0.01	1	0.00389080300010392	1	87	NA	108.772219347	0	0.69	3.16	1	104.517947897	104.5218387	"7"	13620.272774904	13614.597645304	1.5	0.1
0.01	1	0.00391478500023368	1	87	NA	108.772219347	0	0.69	3.16	1	104.751760217001	104.755675002001	"7"	13620.272774904	13614.597645304	1.5	0.1
0.01	1	0.00401270499969542	1	87	NA	108.772219347	0	0.69	3.16	1	104.985513735	104.98952644	"7"	13620.272774904	13614.597645304	1.5	0.1
0.01	1	0.00335619799989217	1	87	NA	108.772219347	0	0.69	3.16	1	105.219186580001	105.222542778001	"7"	13620.272774904	13614.597645304	1.5	0.1
0.01	1	0.0039450329986721	1	87	NA	108.772219347	0	0.69	3.16	1	105.452830977001	105.45677601	"7"	13620.272774904	13614.597645304	1.5	0.1
0.01	1	0.00394280300133687	1	87	NA	108.772219347	0	0.69	3.16	1	105.686584817	105.690527620001	"7"	13620.272774904	13614.597645304	1.5	0.1
0.01	1	0.00371448700025212	1	87	NA	108.772219347	0	0.69	3.16	1	105.920338665001	105.924053152001	"7"	13620.272774904	13614.597645304	1.5	0.1
0.01	1	0.00368983900079911	1	87	NA	108.772219347	0	0.69	3.16	1	106.154106877	106.157796716001	"7"	13620.272774904	13614.597645304	1.5	0.1
0.01	1	0.00392730299972754	1	87	NA	108.772219347	0	0.69	3.16	1	106.387867585001	106.391794888001	"7"	13620.272774904	13614.597645304	1.5	0.1
0.01	1	0.0036322249998193	1	87	NA	108.772219347	0	0.69	3.16	1	106.621517905001	106.625150130001	"7"	13620.272774904	13614.597645304	1.5	0.1
0.01	1	0.00388195699997596	1	87	NA	108.772219347	0	0.69	3.16	1	106.855337927	106.859219884	"7"	13620.272774904	13614.597645304	1.5	0.1
0.01	1	0.00385285000083968	1	87	NA	108.772219347	0	0.69	3.16	1	107.088973792001	107.092826642001	"7"	13620.272774904	13614.597645304	1.5	0.1
0.01	1	0.00390821499968297	1	87	NA	108.772219347	0	0.69	3.16	1	107.322687457001	107.326595672001	"7"	13620.272774904	13614.597645304	1.5	0.1
0.01	1	0.00373610499991628	1	87	NA	108.772219347	0	0.69	3.16	1	107.556457187	107.560193292	"7"	13620.272774904	13614.597645304	1.5	0.1
0.01	1	0.00346703499963041	1	87	NA	108.772219347	0	0.69	3.16	1	107.790242527	107.793709562	"7"	13620.272774904	13614.597645304	1.5	0.1
0.01	1	0.00394072299968684	1	87	NA	108.772219347	0	0.69	3.16	1	108.023891615001	108.027832338001	"7"	13620.272774904	13614.597645304	1.5	0.1
0.01	1	0.00393227300082799	1	87	NA	108.772219347	0	0.69	3.16	1	108.257551645	108.261483918001	"7"	13620.272774904	13614.597645304	1.5	0.1
0.01	1	0.279130453000107	2	87	NA	108.772219347	0	0.69	3.16	1	108.491402437001	108.770532890001	"7"	13620.272774904	13614.597645304	1.5	0.1
0.01	1	1.47206975900008	1	6	113.570388185	NA	1	0	3.16	1	110.811935665	112.284005424	"8"	13620.272774904	13614.597645304	1.5	0.1
0.01	1	0.00394600899926445	1	6	113.570388185	NA	1	0	3.16	1	112.514699597001	112.518645606	"8"	13620.272774904	13614.597645304	1.5	0.1
0.01	1	0.00401472699923033	1	6	113.570388185	NA	1	0	3.16	1	112.748464105001	112.752478832001	"8"	13620.272774904	13614.597645304	1.5	0.1
0.01	1	0.00466795200009074	1	6	113.570388185	NA	1	0	3.16	1	112.9822024	112.986870352001	"8"	13620.272774904	13614.597645304	1.5	0.1
0.01	1	0.00349329699929513	1	6	113.570388185	NA	1	0	3.16	1	113.216006385001	113.219499682	"8"	13620.272774904	13614.597645304	1.5	0.1
0.01	1	0.00475630999972054	1	6	113.570388185	NA	1	0	3.16	1	113.44963719	113.4543935	"8"	13620.272774904	13614.597645304	1.5	0.1
0.01	1	0.207671774000119	1	106	NA	119.22837859	0	0.14	3.3	1	115.620016275001	115.827688049001	"9"	13620.272774904	13614.597645304	1.5	0.1
0.01	1	0.00465928700032237	1	106	NA	119.22837859	0	0.14	3.3	1	116.05409245	116.058751737	"9"	13620.272774904	13614.597645304	1.5	0.1
0.01	1	0.00460699399991427	1	106	NA	119.22837859	0	0.14	3.3	1	116.287846156001	116.292453150001	"9"	13620.272774904	13614.597645304	1.5	0.1
0.01	1	0.00349632399957045	1	106	NA	119.22837859	0	0.14	3.3	1	116.521577090001	116.525073414001	"9"	13620.272774904	13614.597645304	1.5	0.1
0.01	1	0.00320767599987448	1	106	NA	119.22837859	0	0.14	3.3	1	116.755269160001	116.758476836001	"9"	13620.272774904	13614.597645304	1.5	0.1
0.01	1	0.00457844000084151	1	106	NA	119.22837859	0	0.14	3.3	1	116.98896712	116.993545560001	"9"	13620.272774904	13614.597645304	1.5	0.1
0.01	1	0.00368871899991063	1	106	NA	119.22837859	0	0.14	3.3	1	117.222799935	117.226488654	"9"	13620.272774904	13614.597645304	1.5	0.1
0.01	1	0.00394709699867235	1	106	NA	119.22837859	0	0.14	3.3	1	117.456441547001	117.460388644	"9"	13620.272774904	13614.597645304	1.5	0.1
0.01	1	0.00361276200055727	1	106	NA	119.22837859	0	0.14	3.3	1	117.690154260001	117.693767022001	"9"	13620.272774904	13614.597645304	1.5	0.1
0.01	1	0.00395498500074609	1	106	NA	119.22837859	0	0.14	3.3	1	117.923803427	117.927758412001	"9"	13620.272774904	13614.597645304	1.5	0.1
0.01	1	0.00386746699950891	1	106	NA	119.22837859	0	0.14	3.3	1	118.157716687001	118.161584154001	"9"	13620.272774904	13614.597645304	1.5	0.1
0.01	1	0.00384664000011981	1	106	NA	119.22837859	0	0.14	3.3	1	118.39132595	118.395172590001	"9"	13620.272774904	13614.597645304	1.5	0.1
0.01	1	0.00363807099893165	1	106	NA	119.22837859	0	0.14	3.3	1	118.625061275001	118.628699346	"9"	13620.272774904	13614.597645304	1.5	0.1
0.01	1	0.0038101900008769	1	106	NA	119.22837859	0	0.14	3.3	1	118.8587742	118.862584390001	"9"	13620.272774904	13614.597645304	1.5	0.1
0.01	1	0.134251811001377	2	106	NA	119.22837859	0	0.14	3.3	1	119.092449107	119.226700918001	"9"	13620.272774904	13614.597645304	1.5	0.1
0.01	1	0.00339787200027786	1	21	126.875260725001	NA	1	0	3.3	1	121.279492200001	121.282890072001	"10"	13620.272774904	13614.597645304	1.5	0.1
0.01	1	0.00346590099979949	1	21	126.875260725001	NA	1	0	3.3	1	121.513245877	121.516711778	"10"	13620.272774904	13614.597645304	1.5	0.1
0.01	1	0.00373602500076231	1	21	126.875260725001	NA	1	0	3.3	1	121.747015007	121.750751032001	"10"	13620.272774904	13614.597645304	1.5	0.1
0.01	1	0.00386928500120121	1	21	126.875260725001	NA	1	0	3.3	1	121.980673365	121.984542650001	"10"	13620.272774904	13614.597645304	1.5	0.1
0.01	1	0.00413963500068348	1	21	126.875260725001	NA	1	0	3.3	1	122.214515197	122.218654832001	"10"	13620.272774904	13614.597645304	1.5	0.1
0.01	1	0.0033537660001457	1	21	126.875260725001	NA	1	0	3.3	1	122.448055354	122.45140912	"10"	13620.272774904	13614.597645304	1.5	0.1
0.01	1	0.00350455800071359	1	21	126.875260725001	NA	1	0	3.3	1	122.68183671	122.685341268001	"10"	13620.272774904	13614.597645304	1.5	0.1
0.01	1	0.0317950870012282	1	21	126.875260725001	NA	1	0	3.3	1	122.91571193	122.947507017001	"10"	13620.272774904	13614.597645304	1.5	0.1
0.01	1	0.0452611900000193	1	21	126.875260725001	NA	1	0	3.3	1	123.182708705001	123.227969895001	"10"	13620.272774904	13614.597645304	1.5	0.1
0.01	1	0.0559754129990324	1	21	126.875260725001	NA	1	0	3.3	1	123.466497045001	123.522472458	"10"	13620.272774904	13614.597645304	1.5	0.1
0.01	1	0.00402968700109341	1	21	126.875260725001	NA	1	0	3.3	1	123.750363277	123.754392964001	"10"	13620.272774904	13614.597645304	1.5	0.1
0.01	1	0.00335421000090719	1	21	126.875260725001	NA	1	0	3.3	1	123.98399411	123.987348320001	"10"	13620.272774904	13614.597645304	1.5	0.1
0.01	1	0.104303406000327	1	21	126.875260725001	NA	1	0	3.3	1	124.217778690001	124.322082096001	"10"	13620.272774904	13614.597645304	1.5	0.1
0.01	1	0.0842014409990952	1	21	126.875260725001	NA	1	0	3.3	1	124.551651437001	124.635852878	"10"	13620.272774904	13614.597645304	1.5	0.1
0.01	1	0.0861714870006836	1	21	126.875260725001	NA	1	0	3.3	1	124.868863475	124.955034962	"10"	13620.272774904	13614.597645304	1.5	0.1
0.01	1	0.0979537080002046	1	21	126.875260725001	NA	1	0	3.3	1	125.186116045001	125.284069753001	"10"	13620.272774904	13614.597645304	1.5	0.1
0.01	1	0.100221635999333	1	21	126.875260725001	NA	1	0	3.3	1	125.519992565001	125.620214201001	"10"	13620.272774904	13614.597645304	1.5	0.1
0.01	1	0.0523598919990036	1	21	126.875260725001	NA	1	0	3.3	1	125.853949960001	125.906309852	"10"	13620.272774904	13614.597645304	1.5	0.1
0.01	1	0.089212705999671	1	21	126.875260725001	NA	1	0	3.3	1	126.13774971	126.226962416	"10"	13620.272774904	13614.597645304	1.5	0.1
0.01	1	0.0690473899994686	1	21	126.875260725001	NA	1	0	3.3	1	126.454901037001	126.523948427001	"10"	13620.272774904	13614.597645304	1.5	0.1
0.01	1	0.00401390699880722	1	21	126.875260725001	NA	1	0	3.3	1	126.755464457001	126.759478364	"10"	13620.272774904	13614.597645304	1.5	0.1
0.01	1	0.164734889000101	1	19	NA	132.869856035	0	0.16	3.46	1	128.92581945	129.090554339	"11"	13620.272774904	13614.597645304	1.5	0.1
0.01	1	0.00415379399964877	1	19	NA	132.869856035	0	0.16	3.46	1	129.32636341	129.330517204	"11"	13620.272774904	13614.597645304	1.5	0.1
0.01	1	0.00402310299978126	1	19	NA	132.869856035	0	0.16	3.46	1	129.560016667001	129.564039770001	"11"	13620.272774904	13614.597645304	1.5	0.1
0.01	1	0.00371850600095058	1	19	NA	132.869856035	0	0.16	3.46	1	129.79392824	129.797646746001	"11"	13620.272774904	13614.597645304	1.5	0.1
0.01	1	0.0034416059988871	1	19	NA	132.869856035	0	0.16	3.46	1	130.027542900001	130.030984506	"11"	13620.272774904	13614.597645304	1.5	0.1
0.01	1	0.00388871100039978	1	19	NA	132.869856035	0	0.16	3.46	1	130.261282627	130.265171338	"11"	13620.272774904	13614.597645304	1.5	0.1
0.01	1	0.003828644999885	1	19	NA	132.869856035	0	0.16	3.46	1	130.495075927001	130.498904572001	"11"	13620.272774904	13614.597645304	1.5	0.1
0.01	1	0.00393477800025721	1	19	NA	132.869856035	0	0.16	3.46	1	130.728806380001	130.732741158001	"11"	13620.272774904	13614.597645304	1.5	0.1
0.01	1	0.00390963499921781	1	19	NA	132.869856035	0	0.16	3.46	1	130.962460115001	130.96636975	"11"	13620.272774904	13614.597645304	1.5	0.1
0.01	1	0.0037683400005335	1	19	NA	132.869856035	0	0.16	3.46	1	131.196133092	131.199901432001	"11"	13620.272774904	13614.597645304	1.5	0.1
0.01	1	0.00390437200076121	1	19	NA	132.869856035	0	0.16	3.46	1	131.42998676	131.433891132001	"11"	13620.272774904	13614.597645304	1.5	0.1
0.01	1	0.00390437800160726	1	19	NA	132.869856035	0	0.16	3.46	1	131.66373391	131.667638288001	"11"	13620.272774904	13614.597645304	1.5	0.1
0.01	1	0.0039561199992022	1	19	NA	132.869856035	0	0.16	3.46	1	131.897343472001	131.901299592	"11"	13620.272774904	13614.597645304	1.5	0.1
0.01	1	0.00377088599998388	1	19	NA	132.869856035	0	0.16	3.46	1	132.131125620001	132.134896506001	"11"	13620.272774904	13614.597645304	1.5	0.1
0.01	1	0.00379860299835855	1	19	NA	132.869856035	0	0.16	3.46	1	132.364891697001	132.3686903	"11"	13620.272774904	13614.597645304	1.5	0.1
0.01	1	0.00381265199939662	1	19	NA	132.869856035	0	0.16	3.46	1	132.598489530001	132.602302182	"11"	13620.272774904	13614.597645304	1.5	0.1
0.01	1	0.0359500220001792	2	19	NA	132.869856035	0	0.16	3.46	1	132.83233399	132.868284012	"11"	13620.272774904	13614.597645304	1.5	0.1
0.01	1	0.340556540999387	1	63	NA	145.540944814	0	0.44	3.9	1	134.902437055001	135.242993596001	"12"	13620.272774904	13614.597645304	1.5	0.1
0.01	1	0.00396782300049381	1	63	NA	145.540944814	0	0.44	3.9	1	135.470109827	135.47407765	"12"	13620.272774904	13614.597645304	1.5	0.1
0.01	1	0.00395380800000567	1	63	NA	145.540944814	0	0.44	3.9	1	135.703853272	135.70780708	"12"	13620.272774904	13614.597645304	1.5	0.1
0.01	1	0.00354966099985177	1	63	NA	145.540944814	0	0.44	3.9	1	135.937551537001	135.941101198001	"12"	13620.272774904	13614.597645304	1.5	0.1
0.01	1	0.00353576300040004	1	63	NA	145.540944814	0	0.44	3.9	1	136.171216745	136.174752508001	"12"	13620.272774904	13614.597645304	1.5	0.1
0.01	1	0.00406325299991295	1	63	NA	145.540944814	0	0.44	3.9	1	136.404988807	136.40905206	"12"	13620.272774904	13614.597645304	1.5	0.1
0.01	1	0.00389827199978754	1	63	NA	145.540944814	0	0.44	3.9	1	136.638745240001	136.642643512001	"12"	13620.272774904	13614.597645304	1.5	0.1
0.01	1	0.00387552800020785	1	63	NA	145.540944814	0	0.44	3.9	1	136.872357480001	136.876233008001	"12"	13620.272774904	13614.597645304	1.5	0.1
0.01	1	0.00347147399952519	1	63	NA	145.540944814	0	0.44	3.9	1	137.106098606	137.10957008	"12"	13620.272774904	13614.597645304	1.5	0.1
0.01	1	0.00387266799953068	1	63	NA	145.540944814	0	0.44	3.9	1	137.339778060001	137.343650728	"12"	13620.272774904	13614.597645304	1.5	0.1
0.01	1	0.00393573099972855	1	63	NA	145.540944814	0	0.44	3.9	1	137.573527055001	137.577462786001	"12"	13620.272774904	13614.597645304	1.5	0.1
0.01	1	0.00450307000028261	1	63	NA	145.540944814	0	0.44	3.9	1	137.807264302	137.811767372001	"12"	13620.272774904	13614.597645304	1.5	0.1
0.01	1	0.00394810100078757	1	63	NA	145.540944814	0	0.44	3.9	1	138.041122245	138.045070346001	"12"	13620.272774904	13614.597645304	1.5	0.1
0.01	1	0.00376989399956074	1	63	NA	145.540944814	0	0.44	3.9	1	138.274791790001	138.278561684001	"12"	13620.272774904	13614.597645304	1.5	0.1
0.01	1	0.00406922700130963	1	63	NA	145.540944814	0	0.44	3.9	1	138.508496237	138.512565464001	"12"	13620.272774904	13614.597645304	1.5	0.1
0.01	1	0.00399830499918608	1	63	NA	145.540944814	0	0.44	3.9	1	138.742207725001	138.74620603	"12"	13620.272774904	13614.597645304	1.5	0.1
0.01	1	0.0040127880001819	1	63	NA	145.540944814	0	0.44	3.9	1	138.97594873	138.979961518	"12"	13620.272774904	13614.597645304	1.5	0.1
0.01	1	0.00339545200040448	1	63	NA	145.540944814	0	0.44	3.9	1	139.209782398	139.213177850001	"12"	13620.272774904	13614.597645304	1.5	0.1
0.01	1	0.00352234300044074	1	63	NA	145.540944814	0	0.44	3.9	1	139.443354445	139.446876788001	"12"	13620.272774904	13614.597645304	1.5	0.1
0.01	1	0.00385289199948602	1	63	NA	145.540944814	0	0.44	3.9	1	139.677056750001	139.680909642	"12"	13620.272774904	13614.597645304	1.5	0.1
0.01	1	0.00394124300146359	1	63	NA	145.540944814	0	0.44	3.9	1	139.910851355	139.914792598001	"12"	13620.272774904	13614.597645304	1.5	0.1
0.01	1	0.00491594500090287	1	63	NA	145.540944814	0	0.44	3.9	1	140.144655545	140.149571490001	"12"	13620.272774904	13614.597645304	1.5	0.1
0.01	1	0.00407060999896203	1	63	NA	145.540944814	0	0.44	3.9	1	140.378251710001	140.38232232	"12"	13620.272774904	13614.597645304	1.5	0.1
0.01	1	0.00390210099976684	1	63	NA	145.540944814	0	0.44	3.9	1	140.612036585	140.615938686	"12"	13620.272774904	13614.597645304	1.5	0.1
0.01	1	0.00470061499981966	1	63	NA	145.540944814	0	0.44	3.9	1	140.84577874	140.850479355	"12"	13620.272774904	13614.597645304	1.5	0.1
0.01	1	0.00401485699876503	1	63	NA	145.540944814	0	0.44	3.9	1	141.079479457001	141.083494314	"12"	13620.272774904	13614.597645304	1.5	0.1
0.01	1	0.0032420240004285	1	63	NA	145.540944814	0	0.44	3.9	1	141.313263026001	141.316505050001	"12"	13620.272774904	13614.597645304	1.5	0.1
0.01	1	0.00370602300063183	1	63	NA	145.540944814	0	0.44	3.9	1	141.546860345001	141.550566368001	"12"	13620.272774904	13614.597645304	1.5	0.1
0.01	1	0.00468147700121335	1	63	NA	145.540944814	0	0.44	3.9	1	141.78086264	141.785544117001	"12"	13620.272774904	13614.597645304	1.5	0.1
0.01	1	0.0036721700016642	1	63	NA	145.540944814	0	0.44	3.9	1	142.01436675	142.018038920001	"12"	13620.272774904	13614.597645304	1.5	0.1
0.01	1	0.00393968099888298	1	63	NA	145.540944814	0	0.44	3.9	1	142.248079087001	142.252018768	"12"	13620.272774904	13614.597645304	1.5	0.1
0.01	1	0.00466377500015369	1	63	NA	145.540944814	0	0.44	3.9	1	142.48187799	142.486541765	"12"	13620.272774904	13614.597645304	1.5	0.1
0.01	1	0.00479022699983034	1	63	NA	145.540944814	0	0.44	3.9	1	142.715636020001	142.720426247	"12"	13620.272774904	13614.597645304	1.5	0.1
0.01	1	0.00400368699956744	1	63	NA	145.540944814	0	0.44	3.9	1	142.949306465001	142.953310152001	"12"	13620.272774904	13614.597645304	1.5	0.1
0.01	1	0.00463019699964207	1	63	NA	145.540944814	0	0.44	3.9	1	143.183059320001	143.187689517001	"12"	13620.272774904	13614.597645304	1.5	0.1
0.01	1	0.00469924500066554	1	63	NA	145.540944814	0	0.44	3.9	1	143.416676725001	143.421375970001	"12"	13620.272774904	13614.597645304	1.5	0.1
0.01	1	0.00391260800097371	1	63	NA	145.540944814	0	0.44	3.9	1	143.650432332	143.654344940001	"12"	13620.272774904	13614.597645304	1.5	0.1
0.01	1	0.00350121199880959	1	63	NA	145.540944814	0	0.44	3.9	1	143.884222730001	143.887723942	"12"	13620.272774904	13614.597645304	1.5	0.1
0.01	1	0.0046734949992242	1	63	NA	145.540944814	0	0.44	3.9	1	144.117872585	144.12254608	"12"	13620.272774904	13614.597645304	1.5	0.1
0.01	1	0.00392148600076325	1	63	NA	145.540944814	0	0.44	3.9	1	144.35168107	144.355602556001	"12"	13620.272774904	13614.597645304	1.5	0.1
0.01	1	0.00377312799901119	1	63	NA	145.540944814	0	0.44	3.9	1	144.585432572001	144.5892057	"12"	13620.272774904	13614.597645304	1.5	0.1
0.01	1	0.00470813699939754	1	63	NA	145.540944814	0	0.44	3.9	1	144.819142865001	144.823851002	"12"	13620.272774904	13614.597645304	1.5	0.1
0.01	1	0.00364773200089985	1	63	NA	145.540944814	0	0.44	3.9	1	145.05286799	145.056515722001	"12"	13620.272774904	13614.597645304	1.5	0.1
0.01	1	0.00361828899985994	1	63	NA	145.540944814	0	0.44	3.9	1	145.286615577001	145.290233866001	"12"	13620.272774904	13614.597645304	1.5	0.1
0.01	1	0.0192038109998975	2	63	NA	145.540944814	0	0.44	3.9	1	145.520200085	145.539403896	"12"	13620.272774904	13614.597645304	1.5	0.1
0.01	1	0.294330094000543	1	54	NA	153.820088037	0	0.24	4.14	1	147.573668305	147.867998399	"13"	13620.272774904	13614.597645304	1.5	0.1
0.01	1	0.00391785799911304	1	54	NA	153.820088037	0	0.24	4.14	1	148.107869172001	148.11178703	"13"	13620.272774904	13614.597645304	1.5	0.1
0.01	1	0.00389924100090866	1	54	NA	153.820088037	0	0.24	4.14	1	148.341719577	148.345618818001	"13"	13620.272774904	13614.597645304	1.5	0.1
0.01	1	0.00351549100014381	1	54	NA	153.820088037	0	0.24	4.14	1	148.575418477001	148.578933968001	"13"	13620.272774904	13614.597645304	1.5	0.1
0.01	1	0.0034819320007955	1	54	NA	153.820088037	0	0.24	4.14	1	148.809225630001	148.812707562001	"13"	13620.272774904	13614.597645304	1.5	0.1
0.01	1	0.00378798100064159	1	54	NA	153.820088037	0	0.24	4.14	1	149.042854607	149.046642588	"13"	13620.272774904	13614.597645304	1.5	0.1
0.01	1	0.00380869899890968	1	54	NA	153.820088037	0	0.24	4.14	1	149.276652337001	149.280461036	"13"	13620.272774904	13614.597645304	1.5	0.1
0.01	1	0.0046301600013976	1	54	NA	153.820088037	0	0.24	4.14	1	149.51041483	149.515044990001	"13"	13620.272774904	13614.597645304	1.5	0.1
0.01	1	0.00392165599987493	1	54	NA	153.820088037	0	0.24	4.14	1	149.74410455	149.748026206	"13"	13620.272774904	13614.597645304	1.5	0.1
0.01	1	0.00460805999864533	1	54	NA	153.820088037	0	0.24	4.14	1	149.977743070001	149.98235113	"13"	13620.272774904	13614.597645304	1.5	0.1
0.01	1	0.0040249860012409	1	54	NA	153.820088037	0	0.24	4.14	1	150.211444802	150.215469788001	"13"	13620.272774904	13614.597645304	1.5	0.1
0.01	1	0.00462233200050832	1	54	NA	153.820088037	0	0.24	4.14	1	150.4452143	150.449836632	"13"	13620.272774904	13614.597645304	1.5	0.1
0.01	1	0.00391020200004277	1	54	NA	153.820088037	0	0.24	4.14	1	150.678918860001	150.682829062001	"13"	13620.272774904	13614.597645304	1.5	0.1
0.01	1	0.00387363200024993	1	54	NA	153.820088037	0	0.24	4.14	1	150.91271611	150.916589742001	"13"	13620.272774904	13614.597645304	1.5	0.1
0.01	1	0.00457237000046007	1	54	NA	153.820088037	0	0.24	4.14	1	151.146403705001	151.150976075001	"13"	13620.272774904	13614.597645304	1.5	0.1
0.01	1	0.00424867500078108	1	54	NA	153.820088037	0	0.24	4.14	1	151.380101745001	151.384350420001	"13"	13620.272774904	13614.597645304	1.5	0.1
0.01	1	0.00458240500120155	1	54	NA	153.820088037	0	0.24	4.14	1	151.61397063	151.618553035001	"13"	13620.272774904	13614.597645304	1.5	0.1
0.01	1	0.0039898089999042	1	54	NA	153.820088037	0	0.24	4.14	1	151.847519425	151.851509234	"13"	13620.272774904	13614.597645304	1.5	0.1
0.01	1	0.00299672200162604	1	54	NA	153.820088037	0	0.24	4.14	1	152.081254944	152.084251666001	"13"	13620.272774904	13614.597645304	1.5	0.1
0.01	1	0.00384263200066925	1	54	NA	153.820088037	0	0.24	4.14	1	152.315016372	152.318859004001	"13"	13620.272774904	13614.597645304	1.5	0.1
0.01	1	0.00400702300066769	1	54	NA	153.820088037	0	0.24	4.14	1	152.548765097001	152.552772120001	"13"	13620.272774904	13614.597645304	1.5	0.1
0.01	1	0.00463263500023459	1	54	NA	153.820088037	0	0.24	4.14	1	152.78245377	152.787086405	"13"	13620.272774904	13614.597645304	1.5	0.1
0.01	1	0.00464390000161075	1	54	NA	153.820088037	0	0.24	4.14	1	153.01627597	153.020919870001	"13"	13620.272774904	13614.597645304	1.5	0.1
0.01	1	0.00375589300165302	1	54	NA	153.820088037	0	0.24	4.14	1	153.249970305	153.253726198001	"13"	13620.272774904	13614.597645304	1.5	0.1
0.01	1	0.334907660000681	2	54	NA	153.820088037	0	0.24	4.14	1	153.483663695	153.818571355001	"13"	13620.272774904	13614.597645304	1.5	0.1
0.01	1	0.516074171999207	1	103	NA	173.212659394001	0	0.59	4.73	1	155.871246730001	156.387320902	"14"	13620.272774904	13614.597645304	1.5	0.1
0.01	1	0.00384213999859639	1	103	NA	173.212659394001	0	0.59	4.73	1	156.622251100001	156.62609324	"14"	13620.272774904	13614.597645304	1.5	0.1
0.01	1	0.00461119999999937	1	103	NA	173.212659394001	0	0.59	4.73	1	156.85610411	156.86071531	"14"	13620.272774904	13614.597645304	1.5	0.1
0.01	1	0.00398879499880422	1	103	NA	173.212659394001	0	0.59	4.73	1	157.089628847001	157.093617642	"14"	13620.272774904	13614.597645304	1.5	0.1
0.01	1	0.00383145299929311	1	103	NA	173.212659394001	0	0.59	4.73	1	157.323454195001	157.327285648	"14"	13620.272774904	13614.597645304	1.5	0.1
0.01	1	0.00409876899902883	1	103	NA	173.212659394001	0	0.59	4.73	1	157.557294595001	157.561393364	"14"	13620.272774904	13614.597645304	1.5	0.1
0.01	1	0.00392138000097475	1	103	NA	173.212659394001	0	0.59	4.73	1	157.79089274	157.794814120001	"14"	13620.272774904	13614.597645304	1.5	0.1
0.01	1	0.0044285249987297	1	103	NA	173.212659394001	0	0.59	4.73	1	158.024690485001	158.02911901	"14"	13620.272774904	13614.597645304	1.5	0.1
0.01	1	0.0040208430000348	1	103	NA	173.212659394001	0	0.59	4.73	1	158.258352157001	158.262373000001	"14"	13620.272774904	13614.597645304	1.5	0.1
0.01	1	0.00365131100079452	1	103	NA	173.212659394001	0	0.59	4.73	1	158.492180895	158.495832206001	"14"	13620.272774904	13614.597645304	1.5	0.1
0.01	1	0.00458278699989023	1	103	NA	173.212659394001	0	0.59	4.73	1	158.725971365	158.730554152	"14"	13620.272774904	13614.597645304	1.5	0.1
0.01	1	0.00278282499857596	1	103	NA	173.212659394001	0	0.59	4.73	1	158.959509580001	158.962292405	"14"	13620.272774904	13614.597645304	1.5	0.1
0.01	1	0.00202201799947943	1	103	NA	173.212659394001	0	0.59	4.73	1	159.193231496001	159.195253514001	"14"	13620.272774904	13614.597645304	1.5	0.1
0.01	1	0.00464949500019429	1	103	NA	173.212659394001	0	0.59	4.73	1	159.426957615	159.43160711	"14"	13620.272774904	13614.597645304	1.5	0.1
0.01	1	0.00393174999953771	1	103	NA	173.212659394001	0	0.59	4.73	1	159.6607284	159.66466015	"14"	13620.272774904	13614.597645304	1.5	0.1
0.01	1	0.00388512199970137	1	103	NA	173.212659394001	0	0.59	4.73	1	159.89438956	159.898274682	"14"	13620.272774904	13614.597645304	1.5	0.1
0.01	1	0.00397794600030466	1	103	NA	173.212659394001	0	0.59	4.73	1	160.128186870001	160.132164816001	"14"	13620.272774904	13614.597645304	1.5	0.1
0.01	1	0.00469087700003001	1	103	NA	173.212659394001	0	0.59	4.73	1	160.36187748	160.366568357	"14"	13620.272774904	13614.597645304	1.5	0.1
0.01	1	0.00470307499927003	1	103	NA	173.212659394001	0	0.59	4.73	1	160.59556931	160.600272385	"14"	13620.272774904	13614.597645304	1.5	0.1
0.01	1	0.0039554129998578	1	103	NA	173.212659394001	0	0.59	4.73	1	160.829370195001	160.833325608	"14"	13620.272774904	13614.597645304	1.5	0.1
0.01	1	0.00404037900079857	1	103	NA	173.212659394001	0	0.59	4.73	1	161.063037147	161.067077526001	"14"	13620.272774904	13614.597645304	1.5	0.1
0.01	1	0.00398802900053852	1	103	NA	173.212659394001	0	0.59	4.73	1	161.296817057	161.300805086001	"14"	13620.272774904	13614.597645304	1.5	0.1
0.01	1	0.00388306300010299	1	103	NA	173.212659394001	0	0.59	4.73	1	161.530616857	161.534499920001	"14"	13620.272774904	13614.597645304	1.5	0.1
0.01	1	0.0044499169998744	1	103	NA	173.212659394001	0	0.59	4.73	1	161.764337543	161.76878746	"14"	13620.272774904	13614.597645304	1.5	0.1
0.01	1	0.00389280700073869	1	103	NA	173.212659394001	0	0.59	4.73	1	161.998052507	162.001945314001	"14"	13620.272774904	13614.597645304	1.5	0.1
0.01	1	0.00387438799953088	1	103	NA	173.212659394001	0	0.59	4.73	1	162.231699720001	162.235574108001	"14"	13620.272774904	13614.597645304	1.5	0.1
0.01	1	0.00371288799942704	1	103	NA	173.212659394001	0	0.59	4.73	1	162.465455272	162.46916816	"14"	13620.272774904	13614.597645304	1.5	0.1
0.01	1	0.00406742599989229	1	103	NA	173.212659394001	0	0.59	4.73	1	162.699077632	162.703145058	"14"	13620.272774904	13614.597645304	1.5	0.1
0.01	1	0.00402914999904169	1	103	NA	173.212659394001	0	0.59	4.73	1	162.932877900001	162.93690705	"14"	13620.272774904	13614.597645304	1.5	0.1
0.01	1	0.00395184800072457	1	103	NA	173.212659394001	0	0.59	4.73	1	163.166609620001	163.170561468001	"14"	13620.272774904	13614.597645304	1.5	0.1
0.01	1	0.00420379000024695	1	103	NA	173.212659394001	0	0.59	4.73	1	163.400315012001	163.404518802001	"14"	13620.272774904	13614.597645304	1.5	0.1
0.01	1	0.00471351200030767	1	103	NA	173.212659394001	0	0.59	4.73	1	163.634065825001	163.638779337001	"14"	13620.272774904	13614.597645304	1.5	0.1
0.01	1	0.00501406500006851	1	103	NA	173.212659394001	0	0.59	4.73	1	163.867801855	163.87281592	"14"	13620.272774904	13614.597645304	1.5	0.1
0.01	1	0.00405443299860053	1	103	NA	173.212659394001	0	0.59	4.73	1	164.101469197001	164.10552363	"14"	13620.272774904	13614.597645304	1.5	0.1
0.01	1	0.00379286900169973	1	103	NA	173.212659394001	0	0.59	4.73	1	164.335220575	164.339013444001	"14"	13620.272774904	13614.597645304	1.5	0.1
0.01	1	0.00379589800104441	1	103	NA	173.212659394001	0	0.59	4.73	1	164.568918092	164.572713990001	"14"	13620.272774904	13614.597645304	1.5	0.1
0.01	1	0.00437132300066878	1	103	NA	173.212659394001	0	0.59	4.73	1	164.802639452	164.807010775001	"14"	13620.272774904	13614.597645304	1.5	0.1
0.01	1	0.00458391000029224	1	103	NA	173.212659394001	0	0.59	4.73	1	165.03651003	165.041093940001	"14"	13620.272774904	13614.597645304	1.5	0.1
0.01	1	0.00415381299899309	1	103	NA	173.212659394001	0	0.59	4.73	1	165.270084637001	165.27423845	"14"	13620.272774904	13614.597645304	1.5	0.1
0.01	1	0.00384327499887149	1	103	NA	173.212659394001	0	0.59	4.73	1	165.503902837001	165.507746112	"14"	13620.272774904	13614.597645304	1.5	0.1
0.01	1	0.00374279300012859	1	103	NA	173.212659394001	0	0.59	4.73	1	165.737618467001	165.741361260001	"14"	13620.272774904	13614.597645304	1.5	0.1
0.01	1	0.00392330900103843	1	103	NA	173.212659394001	0	0.59	4.73	1	165.971280205	165.975203514001	"14"	13620.272774904	13614.597645304	1.5	0.1
0.01	1	0.0040833080001903	1	103	NA	173.212659394001	0	0.59	4.73	1	166.205007550001	166.209090858001	"14"	13620.272774904	13614.597645304	1.5	0.1
0.01	1	0.00408150600014778	1	103	NA	173.212659394001	0	0.59	4.73	1	166.438797210001	166.442878716001	"14"	13620.272774904	13614.597645304	1.5	0.1
0.01	1	0.00444075400082511	1	103	NA	173.212659394001	0	0.59	4.73	1	166.672549416	166.676990170001	"14"	13620.272774904	13614.597645304	1.5	0.1
0.01	1	0.00445425100042485	1	103	NA	173.212659394001	0	0.59	4.73	1	166.906204596	166.910658847	"14"	13620.272774904	13614.597645304	1.5	0.1
0.01	1	0.00380512199990335	1	103	NA	173.212659394001	0	0.59	4.73	1	167.14000039	167.143805512	"14"	13620.272774904	13614.597645304	1.5	0.1
0.01	1	0.00395113000013225	1	103	NA	173.212659394001	0	0.59	4.73	1	167.373779090001	167.377730220001	"14"	13620.272774904	13614.597645304	1.5	0.1
0.01	1	0.00402593000035267	1	103	NA	173.212659394001	0	0.59	4.73	1	167.607435112001	167.611461042001	"14"	13620.272774904	13614.597645304	1.5	0.1
0.01	1	0.00377493399901141	1	103	NA	173.212659394001	0	0.59	4.73	1	167.841103430001	167.844878364	"14"	13620.272774904	13614.597645304	1.5	0.1
0.01	1	0.00394336499994097	1	103	NA	173.212659394001	0	0.59	4.73	1	168.074875345001	168.078818710001	"14"	13620.272774904	13614.597645304	1.5	0.1
0.01	1	0.0039530329995614	1	103	NA	173.212659394001	0	0.59	4.73	1	168.308565707001	168.31251874	"14"	13620.272774904	13614.597645304	1.5	0.1
0.01	1	0.00384424000003492	1	103	NA	173.212659394001	0	0.59	4.73	1	168.5422705	168.54611474	"14"	13620.272774904	13614.597645304	1.5	0.1
0.01	1	0.0992004879990418	1	103	NA	173.212659394001	0	0.59	4.73	1	168.776003820001	168.875204308	"14"	13620.272774904	13614.597645304	1.5	0.1
0.01	1	0.253872052999213	1	103	NA	173.212659394001	0	0.59	4.73	1	169.109914280001	169.363786333	"14"	13620.272774904	13614.597645304	1.5	0.1
0.01	1	0.272104928000772	1	103	NA	173.212659394001	0	0.59	4.73	1	169.594060097001	169.866165025001	"14"	13620.272774904	13614.597645304	1.5	0.1
0.01	1	0.291212169999199	1	103	NA	173.212659394001	0	0.59	4.73	1	170.094894880001	170.386107050001	"14"	13620.272774904	13614.597645304	1.5	0.1
0.01	1	0.470662477000587	1	103	NA	173.212659394001	0	0.59	4.73	1	170.612389717	171.083052194001	"14"	13620.272774904	13614.597645304	1.5	0.1
0.01	1	1.25713485500091	1	103	NA	173.212659394001	0	0.59	4.73	1	171.31367931	172.570814165001	"14"	13620.272774904	13614.597645304	1.5	0.1
0.01	1	0.411671938998552	2	103	NA	173.212659394001	0	0.59	4.73	1	172.799461985001	173.211133924	"14"	13620.272774904	13614.597645304	1.5	0.1
0.01	1	0.654428134001137	1	120	NA	195.844377789001	0	0.8	5.53	1	175.25353428	175.907962414001	"15"	13620.272774904	13614.597645304	1.5	0.1
0.01	1	0.00405645399951027	1	120	NA	195.844377789001	0	0.8	5.53	1	176.138354292001	176.142410746001	"15"	13620.272774904	13614.597645304	1.5	0.1
0.01	1	0.00390918599987344	1	120	NA	195.844377789001	0	0.8	5.53	1	176.372175912	176.376085098	"15"	13620.272774904	13614.597645304	1.5	0.1
0.01	1	0.00449085299987928	1	120	NA	195.844377789001	0	0.8	5.53	1	176.605892722	176.610383575	"15"	13620.272774904	13614.597645304	1.5	0.1
0.01	1	0.00367811899923254	1	120	NA	195.844377789001	0	0.8	5.53	1	176.839541385001	176.843219504	"15"	13620.272774904	13614.597645304	1.5	0.1
0.01	1	0.00412529999994149	1	120	NA	195.844377789001	0	0.8	5.53	1	177.073398780001	177.077524080001	"15"	13620.272774904	13614.597645304	1.5	0.1
0.01	1	0.00445972600027744	1	120	NA	195.844377789001	0	0.8	5.53	1	177.307074399001	177.311534125001	"15"	13620.272774904	13614.597645304	1.5	0.1
0.01	1	0.00398519099871919	1	120	NA	195.844377789001	0	0.8	5.53	1	177.540829327001	177.544814518	"15"	13620.272774904	13614.597645304	1.5	0.1
0.01	1	0.00484411700017517	1	120	NA	195.844377789001	0	0.8	5.53	1	177.774550690001	177.779394807001	"15"	13620.272774904	13614.597645304	1.5	0.1
0.01	1	0.00378342200019688	1	120	NA	195.844377789001	0	0.8	5.53	1	178.0082446	178.012028022	"15"	13620.272774904	13614.597645304	1.5	0.1
0.01	1	0.00394672799848195	1	120	NA	195.844377789001	0	0.8	5.53	1	178.241950790001	178.245897518	"15"	13620.272774904	13614.597645304	1.5	0.1
0.01	1	0.00399656599984155	1	120	NA	195.844377789001	0	0.8	5.53	1	178.475746240001	178.479742806001	"15"	13620.272774904	13614.597645304	1.5	0.1
0.01	1	0.00392346500120766	1	120	NA	195.844377789001	0	0.8	5.53	1	178.709379577	178.713303042001	"15"	13620.272774904	13614.597645304	1.5	0.1
0.01	1	0.00333889000103227	1	120	NA	195.844377789001	0	0.8	5.53	1	178.943204128	178.946543018001	"15"	13620.272774904	13614.597645304	1.5	0.1
0.01	1	0.00371599300160597	1	120	NA	195.844377789001	0	0.8	5.53	1	179.176822267	179.180538260001	"15"	13620.272774904	13614.597645304	1.5	0.1
0.01	1	0.00394802899973001	1	120	NA	195.844377789001	0	0.8	5.53	1	179.410574817	179.414522846	"15"	13620.272774904	13614.597645304	1.5	0.1
0.01	1	0.00437663699995028	1	120	NA	195.844377789001	0	0.8	5.53	1	179.644290415001	179.648667052001	"15"	13620.272774904	13614.597645304	1.5	0.1
0.01	1	0.00403491199904238	1	120	NA	195.844377789001	0	0.8	5.53	1	179.878132822001	179.882167734	"15"	13620.272774904	13614.597645304	1.5	0.1
0.01	1	0.00469196499943791	1	120	NA	195.844377789001	0	0.8	5.53	1	180.111780765001	180.11647273	"15"	13620.272774904	13614.597645304	1.5	0.1
0.01	1	0.00376853799934906	1	120	NA	195.844377789001	0	0.8	5.53	1	180.345522990001	180.349291528	"15"	13620.272774904	13614.597645304	1.5	0.1
0.01	1	0.00399804700100503	1	120	NA	195.844377789001	0	0.8	5.53	1	180.579227425	180.583225472001	"15"	13620.272774904	13614.597645304	1.5	0.1
0.01	1	0.365453387999878	1	120	NA	195.844377789001	0	0.8	5.53	1	180.81301163	181.178465018	"15"	13620.272774904	13614.597645304	1.5	0.1
0.01	1	0.00407306600027368	1	120	NA	195.844377789001	0	0.8	5.53	1	181.413930480001	181.418003546001	"15"	13620.272774904	13614.597645304	1.5	0.1
0.01	1	0.00465570699998352	1	120	NA	195.844377789001	0	0.8	5.53	1	181.64774203	181.652397737	"15"	13620.272774904	13614.597645304	1.5	0.1
0.01	1	0.00461632699989423	1	120	NA	195.844377789001	0	0.8	5.53	1	181.881421470001	181.886037797001	"15"	13620.272774904	13614.597645304	1.5	0.1
0.01	1	0.00477859700004046	1	120	NA	195.844377789001	0	0.8	5.53	1	182.115164535	182.119943132	"15"	13620.272774904	13614.597645304	1.5	0.1
0.01	1	0.00396121300036612	1	120	NA	195.844377789001	0	0.8	5.53	1	182.348855867	182.35281708	"15"	13620.272774904	13614.597645304	1.5	0.1
0.01	1	0.341356745999292	1	120	NA	195.844377789001	0	0.8	5.53	1	182.582665175001	182.924021921001	"15"	13620.272774904	13614.597645304	1.5	0.1
0.01	1	0.00369456299995363	1	120	NA	195.844377789001	0	0.8	5.53	1	183.150223515	183.153918078	"15"	13620.272774904	13614.597645304	1.5	0.1
0.01	1	0.00444713399883767	1	120	NA	195.844377789001	0	0.8	5.53	1	183.383951068001	183.388398202	"15"	13620.272774904	13614.597645304	1.5	0.1
0.01	1	0.00348309000037261	1	120	NA	195.844377789001	0	0.8	5.53	1	183.617668802	183.621151892001	"15"	13620.272774904	13614.597645304	1.5	0.1
0.01	1	0.00380958399910014	1	120	NA	195.844377789001	0	0.8	5.53	1	183.851371390001	183.855180974	"15"	13620.272774904	13614.597645304	1.5	0.1
0.01	1	0.00393694300146308	1	120	NA	195.844377789001	0	0.8	5.53	1	184.085205095	184.089142038001	"15"	13620.272774904	13614.597645304	1.5	0.1
0.01	1	0.00394676500036439	1	120	NA	195.844377789001	0	0.8	5.53	1	184.318912225001	184.322858990001	"15"	13620.272774904	13614.597645304	1.5	0.1
0.01	1	0.00461375500162831	1	120	NA	195.844377789001	0	0.8	5.53	1	184.552725795	184.557339550001	"15"	13620.272774904	13614.597645304	1.5	0.1
0.01	1	0.0033219699998881	1	120	NA	195.844377789001	0	0.8	5.53	1	184.786293320001	184.789615290001	"15"	13620.272774904	13614.597645304	1.5	0.1
0.01	1	0.00374086100055138	1	120	NA	195.844377789001	0	0.8	5.53	1	185.020043095001	185.023783956001	"15"	13620.272774904	13614.597645304	1.5	0.1
0.01	1	0.00412498699915886	1	120	NA	195.844377789001	0	0.8	5.53	1	185.253841785001	185.257966772	"15"	13620.272774904	13614.597645304	1.5	0.1
0.01	1	0.00403055199967639	1	120	NA	195.844377789001	0	0.8	5.53	1	185.48749447	185.491525022	"15"	13620.272774904	13614.597645304	1.5	0.1
0.01	1	0.00407838600040122	1	120	NA	195.844377789001	0	0.8	5.53	1	185.72111769	185.725196076	"15"	13620.272774904	13614.597645304	1.5	0.1
0.01	1	0.00390995599991584	1	120	NA	195.844377789001	0	0.8	5.53	1	185.954900442001	185.958810398	"15"	13620.272774904	13614.597645304	1.5	0.1
0.01	1	0.00400831700062554	1	120	NA	195.844377789001	0	0.8	5.53	1	186.188724815	186.192733132	"15"	13620.272774904	13614.597645304	1.5	0.1
0.01	1	0.0039545569998154	1	120	NA	195.844377789001	0	0.8	5.53	1	186.422446227001	186.426400784001	"15"	13620.272774904	13614.597645304	1.5	0.1
0.01	1	0.00440291100130707	1	120	NA	195.844377789001	0	0.8	5.53	1	186.656165589	186.660568500001	"15"	13620.272774904	13614.597645304	1.5	0.1
0.01	1	0.00390893100120593	1	120	NA	195.844377789001	0	0.8	5.53	1	186.889906347	186.893815278001	"15"	13620.272774904	13614.597645304	1.5	0.1
0.01	1	0.00350133400024788	1	120	NA	195.844377789001	0	0.8	5.53	1	187.123503340001	187.127004674001	"15"	13620.272774904	13614.597645304	1.5	0.1
0.01	1	0.0046460620014841	1	120	NA	195.844377789001	0	0.8	5.53	1	187.357303985	187.361950047001	"15"	13620.272774904	13614.597645304	1.5	0.1
0.01	1	0.00393126200106053	1	120	NA	195.844377789001	0	0.8	5.53	1	187.59091601	187.594847272001	"15"	13620.272774904	13614.597645304	1.5	0.1
0.01	1	0.00395748499977344	1	120	NA	195.844377789001	0	0.8	5.53	1	187.824785087001	187.828742572001	"15"	13620.272774904	13614.597645304	1.5	0.1
0.01	1	0.00408638800035988	1	120	NA	195.844377789001	0	0.8	5.53	1	188.058499820001	188.062586208001	"15"	13620.272774904	13614.597645304	1.5	0.1
0.01	1	0.00379248700119206	1	120	NA	195.844377789001	0	0.8	5.53	1	188.292156967	188.295949454001	"15"	13620.272774904	13614.597645304	1.5	0.1
0.01	1	0.0039057980011421	1	120	NA	195.844377789001	0	0.8	5.53	1	188.52595924	188.529865038001	"15"	13620.272774904	13614.597645304	1.5	0.1
0.01	1	0.00392518800072139	1	120	NA	195.844377789001	0	0.8	5.53	1	188.7597274	188.763652588001	"15"	13620.272774904	13614.597645304	1.5	0.1
0.01	1	0.00464371000089159	1	120	NA	195.844377789001	0	0.8	5.53	1	188.993466255	188.998109965001	"15"	13620.272774904	13614.597645304	1.5	0.1
0.01	1	0.00468626499969105	1	120	NA	195.844377789001	0	0.8	5.53	1	189.227108455001	189.231794720001	"15"	13620.272774904	13614.597645304	1.5	0.1
0.01	1	0.00224264300049981	1	120	NA	195.844377789001	0	0.8	5.53	1	189.460836050001	189.463078693001	"15"	13620.272774904	13614.597645304	1.5	0.1
0.01	1	0.00211105799826328	1	120	NA	195.844377789001	0	0.8	5.53	1	189.694560716001	189.696671774	"15"	13620.272774904	13614.597645304	1.5	0.1
0.01	1	0.00387118100115913	1	120	NA	195.844377789001	0	0.8	5.53	1	189.928325977	189.932197158001	"15"	13620.272774904	13614.597645304	1.5	0.1
0.01	1	0.00457660499887425	1	120	NA	195.844377789001	0	0.8	5.53	1	190.161958730001	190.166535335	"15"	13620.272774904	13614.597645304	1.5	0.1
0.01	1	0.00371177200031525	1	120	NA	195.844377789001	0	0.8	5.53	1	190.395652180001	190.399363952001	"15"	13620.272774904	13614.597645304	1.5	0.1
0.01	1	0.00395492800089414	1	120	NA	195.844377789001	0	0.8	5.53	1	190.62946842	190.633423348001	"15"	13620.272774904	13614.597645304	1.5	0.1
0.01	1	0.00395032100095705	1	120	NA	195.844377789001	0	0.8	5.53	1	190.863176207	190.867126528001	"15"	13620.272774904	13614.597645304	1.5	0.1
0.01	1	0.00387578099980601	1	120	NA	195.844377789001	0	0.8	5.53	1	191.096956537001	191.100832318001	"15"	13620.272774904	13614.597645304	1.5	0.1
0.01	1	0.0046547769998142	1	120	NA	195.844377789001	0	0.8	5.53	1	191.330633430001	191.335288207001	"15"	13620.272774904	13614.597645304	1.5	0.1
0.01	1	0.00385930600168649	1	120	NA	195.844377789001	0	0.8	5.53	1	191.5643119	191.568171206001	"15"	13620.272774904	13614.597645304	1.5	0.1
0.01	1	0.00468393200026185	1	120	NA	195.844377789001	0	0.8	5.53	1	191.79812874	191.802812672	"15"	13620.272774904	13614.597645304	1.5	0.1
0.01	1	0.00398178700015706	1	120	NA	195.844377789001	0	0.8	5.53	1	192.031792565	192.035774352	"15"	13620.272774904	13614.597645304	1.5	0.1
0.01	1	0.00457363300120051	1	120	NA	195.844377789001	0	0.8	5.53	1	192.265517312	192.270090945001	"15"	13620.272774904	13614.597645304	1.5	0.1
0.01	1	0.00407884299966099	1	120	NA	195.844377789001	0	0.8	5.53	1	192.499383107001	192.50346195	"15"	13620.272774904	13614.597645304	1.5	0.1
0.01	1	0.0037741760006611	1	120	NA	195.844377789001	0	0.8	5.53	1	192.732959282001	192.736733458001	"15"	13620.272774904	13614.597645304	1.5	0.1
0.01	1	0.00389172700124618	1	120	NA	195.844377789001	0	0.8	5.53	1	192.966760947	192.970652674001	"15"	13620.272774904	13614.597645304	1.5	0.1
0.01	1	0.00376415799837559	1	120	NA	195.844377789001	0	0.8	5.53	1	193.200398632001	193.20416279	"15"	13620.272774904	13614.597645304	1.5	0.1
0.01	1	0.00471278199984226	1	120	NA	195.844377789001	0	0.8	5.53	1	193.43426745	193.438980232	"15"	13620.272774904	13614.597645304	1.5	0.1
0.01	1	0.00465948500095692	1	120	NA	195.844377789001	0	0.8	5.53	1	193.668008520001	193.672668005001	"15"	13620.272774904	13614.597645304	1.5	0.1
0.01	1	0.00378477899903373	1	120	NA	195.844377789001	0	0.8	5.53	1	193.901657235001	193.905442014	"15"	13620.272774904	13614.597645304	1.5	0.1
0.01	1	0.00411770500068087	1	120	NA	195.844377789001	0	0.8	5.53	1	194.135340495	194.139458200001	"15"	13620.272774904	13614.597645304	1.5	0.1
0.01	1	0.00465194199932739	1	120	NA	195.844377789001	0	0.8	5.53	1	194.369100305001	194.373752247	"15"	13620.272774904	13614.597645304	1.5	0.1
0.01	1	0.00467148200004885	1	120	NA	195.844377789001	0	0.8	5.53	1	194.602826910001	194.607498392001	"15"	13620.272774904	13614.597645304	1.5	0.1
0.01	1	0.00405964399942604	1	120	NA	195.844377789001	0	0.8	5.53	1	194.836439012	194.840498656	"15"	13620.272774904	13614.597645304	1.5	0.1
0.01	1	0.0038972010006546	1	120	NA	195.844377789001	0	0.8	5.53	1	195.070249357001	195.074146558001	"15"	13620.272774904	13614.597645304	1.5	0.1
0.01	1	0.538955963000262	2	120	NA	195.844377789001	0	0.8	5.53	1	195.303918525	195.842874488	"15"	13620.272774904	13614.597645304	1.5	0.1
0.01	1	3.66233678999924	1	109	NA	214.608905736	0	0.54	6.07	1	197.891626120001	201.55396291	"16"	13620.272774904	13614.597645304	1.5	0.1
0.01	1	0.00431594100155053	1	109	NA	214.608905736	0	0.54	6.07	1	201.781585416	201.785901357001	"16"	13620.272774904	13614.597645304	1.5	0.1
0.01	1	0.00447216499924252	1	109	NA	214.608905736	0	0.54	6.07	1	202.015289765	202.01976193	"16"	13620.272774904	13614.597645304	1.5	0.1
0.01	1	0.00395659000059823	1	109	NA	214.608905736	0	0.54	6.07	1	202.2489556	202.252912190001	"16"	13620.272774904	13614.597645304	1.5	0.1
0.01	1	0.00338819599892304	1	109	NA	214.608905736	0	0.54	6.07	1	202.482815638001	202.486203834	"16"	13620.272774904	13614.597645304	1.5	0.1
0.01	1	0.00436826899931475	1	109	NA	214.608905736	0	0.54	6.07	1	202.716390146001	202.720758415	"16"	13620.272774904	13614.597645304	1.5	0.1
0.01	1	0.0448967450010969	1	109	NA	214.608905736	0	0.54	6.07	1	202.950146595	202.995043340001	"16"	13620.272774904	13614.597645304	1.5	0.1
0.01	1	0.104257634999158	1	109	NA	214.608905736	0	0.54	6.07	1	203.217254005001	203.321511640001	"16"	13620.272774904	13614.597645304	1.5	0.1
0.01	1	0.0996403690005536	1	109	NA	214.608905736	0	0.54	6.07	1	203.551149815001	203.650790184001	"16"	13620.272774904	13614.597645304	1.5	0.1
0.01	1	0.0921027019994654	1	109	NA	214.608905736	0	0.54	6.07	1	203.885124670001	203.977227372001	"16"	13620.272774904	13614.597645304	1.5	0.1
0.01	1	0.128142601000945	1	109	NA	214.608905736	0	0.54	6.07	1	204.202287435	204.330430036001	"16"	13620.272774904	13614.597645304	1.5	0.1
0.01	1	0.00479427299978852	1	109	NA	214.608905736	0	0.54	6.07	1	204.552840999	204.557635272	"16"	13620.272774904	13614.597645304	1.5	0.1
0.01	1	0.0041157089999615	1	109	NA	214.608905736	0	0.54	6.07	1	204.786568655001	204.790684364001	"16"	13620.272774904	13614.597645304	1.5	0.1
0.01	1	0.00464119699972798	1	109	NA	214.608905736	0	0.54	6.07	1	205.020507410001	205.025148607001	"16"	13620.272774904	13614.597645304	1.5	0.1
0.01	1	0.00464029500108154	1	109	NA	214.608905736	0	0.54	6.07	1	205.25424602	205.258886315001	"16"	13620.272774904	13614.597645304	1.5	0.1
0.01	1	0.00369154599866306	1	109	NA	214.608905736	0	0.54	6.07	1	205.487769160001	205.491460706	"16"	13620.272774904	13614.597645304	1.5	0.1
0.01	1	0.00391614000000118	1	109	NA	214.608905736	0	0.54	6.07	1	205.721508070001	205.725424210001	"16"	13620.272774904	13614.597645304	1.5	0.1
0.01	1	0.00476726200031408	1	109	NA	214.608905736	0	0.54	6.07	1	205.955221635	205.959988897001	"16"	13620.272774904	13614.597645304	1.5	0.1
0.01	1	0.00410265400023491	1	109	NA	214.608905736	0	0.54	6.07	1	206.188990628001	206.193093282001	"16"	13620.272774904	13614.597645304	1.5	0.1
0.01	1	0.00341882599968812	1	109	NA	214.608905736	0	0.54	6.07	1	206.422711928	206.426130754	"16"	13620.272774904	13614.597645304	1.5	0.1
0.01	1	0.00397384900134057	1	109	NA	214.608905736	0	0.54	6.07	1	206.656321175	206.660295024001	"16"	13620.272774904	13614.597645304	1.5	0.1
0.01	1	0.00375483800053189	1	109	NA	214.608905736	0	0.54	6.07	1	206.89014881	206.893903648001	"16"	13620.272774904	13614.597645304	1.5	0.1
0.01	1	0.00397876400165842	1	109	NA	214.608905736	0	0.54	6.07	1	207.12382207	207.127800834001	"16"	13620.272774904	13614.597645304	1.5	0.1
0.01	1	0.00399892399946111	1	109	NA	214.608905736	0	0.54	6.07	1	207.357664180001	207.361663104	"16"	13620.272774904	13614.597645304	1.5	0.1
0.01	1	0.00344179599960626	1	109	NA	214.608905736	0	0.54	6.07	1	207.591287332001	207.594729128001	"16"	13620.272774904	13614.597645304	1.5	0.1
0.01	1	0.00336624400006258	1	109	NA	214.608905736	0	0.54	6.07	1	207.82497338	207.828339624	"16"	13620.272774904	13614.597645304	1.5	0.1
0.01	1	0.00462402999983169	1	109	NA	214.608905736	0	0.54	6.07	1	208.058862555001	208.063486585001	"16"	13620.272774904	13614.597645304	1.5	0.1
0.01	1	0.0039040390001901	1	109	NA	214.608905736	0	0.54	6.07	1	208.292541697001	208.296445736001	"16"	13620.272774904	13614.597645304	1.5	0.1
0.01	1	0.00385083999935887	1	109	NA	214.608905736	0	0.54	6.07	1	208.526182510001	208.53003335	"16"	13620.272774904	13614.597645304	1.5	0.1
0.01	1	0.00397606500155234	1	109	NA	214.608905736	0	0.54	6.07	1	208.759953395	208.763929460001	"16"	13620.272774904	13614.597645304	1.5	0.1
0.01	1	0.00388212299912993	1	109	NA	214.608905736	0	0.54	6.07	1	208.993649535001	208.997531658	"16"	13620.272774904	13614.597645304	1.5	0.1
0.01	1	0.00469450200034771	1	109	NA	214.608905736	0	0.54	6.07	1	209.227490915	209.232185417	"16"	13620.272774904	13614.597645304	1.5	0.1
0.01	1	0.00469339200026297	1	109	NA	214.608905736	0	0.54	6.07	1	209.46126962	209.465963012	"16"	13620.272774904	13614.597645304	1.5	0.1
0.01	1	0.00398427999971318	1	109	NA	214.608905736	0	0.54	6.07	1	209.694835972001	209.698820252001	"16"	13620.272774904	13614.597645304	1.5	0.1
0.01	1	0.00474599699919054	1	109	NA	214.608905736	0	0.54	6.07	1	209.928585330001	209.933331327	"16"	13620.272774904	13614.597645304	1.5	0.1
0.01	1	0.00400819600145041	1	109	NA	214.608905736	0	0.54	6.07	1	210.162289782	210.166297978001	"16"	13620.272774904	13614.597645304	1.5	0.1
0.01	1	0.00405031499940378	1	109	NA	214.608905736	0	0.54	6.07	1	210.395997305	210.40004762	"16"	13620.272774904	13614.597645304	1.5	0.1
0.01	1	0.00464114700116625	1	109	NA	214.608905736	0	0.54	6.07	1	210.629728213	210.634369360001	"16"	13620.272774904	13614.597645304	1.5	0.1
0.01	1	0.0045305699986784	1	109	NA	214.608905736	0	0.54	6.07	1	210.863490335001	210.868020905	"16"	13620.272774904	13614.597645304	1.5	0.1
0.01	1	0.00397480699939479	1	109	NA	214.608905736	0	0.54	6.07	1	211.097230627001	211.101205434001	"16"	13620.272774904	13614.597645304	1.5	0.1
0.01	1	0.00393562200042652	1	109	NA	214.608905736	0	0.54	6.07	1	211.33093118	211.334866802001	"16"	13620.272774904	13614.597645304	1.5	0.1
0.01	1	0.00401259299906087	1	109	NA	214.608905736	0	0.54	6.07	1	211.564682747001	211.56869534	"16"	13620.272774904	13614.597645304	1.5	0.1
0.01	1	0.00377729799947701	1	109	NA	214.608905736	0	0.54	6.07	1	211.798382292001	211.802159590001	"16"	13620.272774904	13614.597645304	1.5	0.1
0.01	1	0.00340062199938984	1	109	NA	214.608905736	0	0.54	6.07	1	212.032076760001	212.035477382	"16"	13620.272774904	13614.597645304	1.5	0.1
0.01	1	0.0028038149994245	1	109	NA	214.608905736	0	0.54	6.07	1	212.265866718	212.268670533	"16"	13620.272774904	13614.597645304	1.5	0.1
0.01	1	0.0040540999998484	1	109	NA	214.608905736	0	0.54	6.07	1	212.499540832001	212.503594932001	"16"	13620.272774904	13614.597645304	1.5	0.1
0.01	1	0.00388838600156305	1	109	NA	214.608905736	0	0.54	6.07	1	212.73334189	212.737230276001	"16"	13620.272774904	13614.597645304	1.5	0.1
0.01	1	0.00402446699990833	1	109	NA	214.608905736	0	0.54	6.07	1	212.967055967001	212.971080434001	"16"	13620.272774904	13614.597645304	1.5	0.1
0.01	1	0.00359315599962429	1	109	NA	214.608905736	0	0.54	6.07	1	213.200752730001	213.204345886001	"16"	13620.272774904	13614.597645304	1.5	0.1
0.01	1	0.00391200299964112	1	109	NA	214.608905736	0	0.54	6.07	1	213.434498585	213.438410588	"16"	13620.272774904	13614.597645304	1.5	0.1
0.01	1	0.00442691500029468	1	109	NA	214.608905736	0	0.54	6.07	1	213.668283380001	213.672710295001	"16"	13620.272774904	13614.597645304	1.5	0.1
0.01	1	0.00388637700052641	1	109	NA	214.608905736	0	0.54	6.07	1	213.901977325	213.905863702001	"16"	13620.272774904	13614.597645304	1.5	0.1
0.01	1	0.00392138300048828	1	109	NA	214.608905736	0	0.54	6.07	1	214.135684687	214.139606070001	"16"	13620.272774904	13614.597645304	1.5	0.1
0.01	1	0.00365460099965276	1	109	NA	214.608905736	0	0.54	6.07	1	214.369399877001	214.373054478001	"16"	13620.272774904	13614.597645304	1.5	0.1
0.01	1	0.00390963899917551	2	109	NA	214.608905736	0	0.54	6.07	1	214.603171747001	214.607081386001	"16"	13620.272774904	13614.597645304	1.5	0.1
0.01	1	0.00455778499963344	1	71	NA	232.378913934001	0	0.66	6.73	1	216.656545202	216.661102987	"17"	13620.272774904	13614.597645304	1.5	0.1
0.01	1	0.00382702400020207	1	71	NA	232.378913934001	0	0.66	6.73	1	216.890211852	216.894038876	"17"	13620.272774904	13614.597645304	1.5	0.1
0.01	1	0.00382074400113197	1	71	NA	232.378913934001	0	0.66	6.73	1	217.123950432	217.127771176001	"17"	13620.272774904	13614.597645304	1.5	0.1
0.01	1	0.00469503200110921	1	71	NA	232.378913934001	0	0.66	6.73	1	217.35777389	217.362468922001	"17"	13620.272774904	13614.597645304	1.5	0.1
0.01	1	0.00384044400016137	1	71	NA	232.378913934001	0	0.66	6.73	1	217.591489140001	217.595329584001	"17"	13620.272774904	13614.597645304	1.5	0.1
0.01	1	0.00471117500092078	1	71	NA	232.378913934001	0	0.66	6.73	1	217.82512232	217.829833495001	"17"	13620.272774904	13614.597645304	1.5	0.1
0.01	1	0.00370596100037801	1	71	NA	232.378913934001	0	0.66	6.73	1	218.058943407001	218.062649368001	"17"	13620.272774904	13614.597645304	1.5	0.1
0.01	1	0.0047688869999547	1	71	NA	232.378913934001	0	0.66	6.73	1	218.292628810001	218.297397697001	"17"	13620.272774904	13614.597645304	1.5	0.1
0.01	1	0.00459240000054706	1	71	NA	232.378913934001	0	0.66	6.73	1	218.526370060001	218.530962460001	"17"	13620.272774904	13614.597645304	1.5	0.1
0.01	1	0.00394328099901031	1	71	NA	232.378913934001	0	0.66	6.73	1	218.760103717001	218.764046998	"17"	13620.272774904	13614.597645304	1.5	0.1
0.01	1	0.00370114100041974	1	71	NA	232.378913934001	0	0.66	6.73	1	218.993862817	218.997563958001	"17"	13620.272774904	13614.597645304	1.5	0.1
0.01	1	0.0038126760009618	1	71	NA	232.378913934001	0	0.66	6.73	1	219.227555382	219.231368058001	"17"	13620.272774904	13614.597645304	1.5	0.1
0.01	1	0.00404480900033377	1	71	NA	232.378913934001	0	0.66	6.73	1	219.461261017001	219.465305826001	"17"	13620.272774904	13614.597645304	1.5	0.1
0.01	1	0.00401741099994979	1	71	NA	232.378913934001	0	0.66	6.73	1	219.695074665	219.699092076	"17"	13620.272774904	13614.597645304	1.5	0.1
0.01	1	0.00225140799921064	1	71	NA	232.378913934001	0	0.66	6.73	1	219.928745577001	219.930996985	"17"	13620.272774904	13614.597645304	1.5	0.1
0.01	1	0.00221745100134285	1	71	NA	232.378913934001	0	0.66	6.73	1	220.162404564	220.164622015001	"17"	13620.272774904	13614.597645304	1.5	0.1
0.01	1	0.00483787499979371	1	71	NA	232.378913934001	0	0.66	6.73	1	220.3961027	220.400940575	"17"	13620.272774904	13614.597645304	1.5	0.1
0.01	1	0.00406029499936267	1	71	NA	232.378913934001	0	0.66	6.73	1	220.629822245	220.63388254	"17"	13620.272774904	13614.597645304	1.5	0.1
0.01	1	0.00470978999874205	1	71	NA	232.378913934001	0	0.66	6.73	1	220.863656135001	220.868365925	"17"	13620.272774904	13614.597645304	1.5	0.1
0.01	1	0.00347916899954726	1	71	NA	232.378913934001	0	0.66	6.73	1	221.097386575	221.100865744	"17"	13620.272774904	13614.597645304	1.5	0.1
0.01	1	0.00373720500101626	1	71	NA	232.378913934001	0	0.66	6.73	1	221.331107307	221.334844512001	"17"	13620.272774904	13614.597645304	1.5	0.1
0.01	1	0.00388327800101251	1	71	NA	232.378913934001	0	0.66	6.73	1	221.56478072	221.568663998001	"17"	13620.272774904	13614.597645304	1.5	0.1
0.01	1	0.00454005200117535	1	71	NA	232.378913934001	0	0.66	6.73	1	221.798607625	221.803147677001	"17"	13620.272774904	13614.597645304	1.5	0.1
0.01	1	0.0039103189992602	1	71	NA	232.378913934001	0	0.66	6.73	1	222.032274545001	222.036184864	"17"	13620.272774904	13614.597645304	1.5	0.1
0.01	1	0.00356882300002326	1	71	NA	232.378913934001	0	0.66	6.73	1	222.265965025001	222.269533848001	"17"	13620.272774904	13614.597645304	1.5	0.1
0.01	1	0.00384579099954863	1	71	NA	232.378913934001	0	0.66	6.73	1	222.499692007001	222.503537798	"17"	13620.272774904	13614.597645304	1.5	0.1
0.01	1	0.0035817190000671	1	71	NA	232.378913934001	0	0.66	6.73	1	222.733456885	222.737038604	"17"	13620.272774904	13614.597645304	1.5	0.1
0.01	1	0.00475322999955097	1	71	NA	232.378913934001	0	0.66	6.73	1	222.96723238	222.97198561	"17"	13620.272774904	13614.597645304	1.5	0.1
0.01	1	0.00402676900012011	1	71	NA	232.378913934001	0	0.66	6.73	1	223.200926547001	223.204953316001	"17"	13620.272774904	13614.597645304	1.5	0.1
0.01	1	0.00382037700001092	1	71	NA	232.378913934001	0	0.66	6.73	1	223.434652807	223.438473184	"17"	13620.272774904	13614.597645304	1.5	0.1
0.01	1	0.00403773800098861	1	71	NA	232.378913934001	0	0.66	6.73	1	223.66841785	223.672455588001	"17"	13620.272774904	13614.597645304	1.5	0.1
0.01	1	0.00397017900104402	1	71	NA	232.378913934001	0	0.66	6.73	1	223.902083137	223.906053316001	"17"	13620.272774904	13614.597645304	1.5	0.1
0.01	1	0.00387763400067342	1	71	NA	232.378913934001	0	0.66	6.73	1	224.13585024	224.139727874001	"17"	13620.272774904	13614.597645304	1.5	0.1
0.01	1	0.00335994000124629	1	71	NA	232.378913934001	0	0.66	6.73	1	224.36947695	224.372836890001	"17"	13620.272774904	13614.597645304	1.5	0.1
0.01	1	0.00371128500046325	1	71	NA	232.378913934001	0	0.66	6.73	1	224.603235277	224.606946562	"17"	13620.272774904	13614.597645304	1.5	0.1
0.01	1	0.00404115399942384	1	71	NA	232.378913934001	0	0.66	6.73	1	224.836980670001	224.841021824001	"17"	13620.272774904	13614.597645304	1.5	0.1
0.01	1	0.00396901800013438	1	71	NA	232.378913934001	0	0.66	6.73	1	225.070633040001	225.074602058001	"17"	13620.272774904	13614.597645304	1.5	0.1
0.01	1	0.00464274500154715	1	71	NA	232.378913934001	0	0.66	6.73	1	225.304464735	225.309107480001	"17"	13620.272774904	13614.597645304	1.5	0.1
0.01	1	0.0033918419994734	1	71	NA	232.378913934001	0	0.66	6.73	1	225.538186358001	225.5415782	"17"	13620.272774904	13614.597645304	1.5	0.1
0.01	1	0.00386432899904321	1	71	NA	232.378913934001	0	0.66	6.73	1	225.771888615001	225.775752944	"17"	13620.272774904	13614.597645304	1.5	0.1
0.01	1	0.00391402599962021	1	71	NA	232.378913934001	0	0.66	6.73	1	226.005561052001	226.009475078001	"17"	13620.272774904	13614.597645304	1.5	0.1
0.01	1	0.00393923799856566	1	71	NA	232.378913934001	0	0.66	6.73	1	226.239380660001	226.243319898	"17"	13620.272774904	13614.597645304	1.5	0.1
0.01	1	0.00400028399963048	1	71	NA	232.378913934001	0	0.66	6.73	1	226.473102960001	226.477103244	"17"	13620.272774904	13614.597645304	1.5	0.1
0.01	1	0.00396180499956245	1	71	NA	232.378913934001	0	0.66	6.73	1	226.740129715001	226.74409152	"17"	13620.272774904	13614.597645304	1.5	0.1
0.01	1	0.00324904199987941	1	71	NA	232.378913934001	0	0.66	6.73	1	226.973856660001	226.977105702001	"17"	13620.272774904	13614.597645304	1.5	0.1
0.01	1	0.0037727269991592	1	71	NA	232.378913934001	0	0.66	6.73	1	227.207570377001	227.211343104	"17"	13620.272774904	13614.597645304	1.5	0.1
0.01	1	0.00468281000030402	1	71	NA	232.378913934001	0	0.66	6.73	1	227.441381225	227.446064035001	"17"	13620.272774904	13614.597645304	1.5	0.1
0.01	1	0.00387827700069465	1	71	NA	232.378913934001	0	0.66	6.73	1	227.675153427001	227.679031704001	"17"	13620.272774904	13614.597645304	1.5	0.1
0.01	1	0.00442111200027284	1	71	NA	232.378913934001	0	0.66	6.73	1	227.908878865001	227.913299977001	"17"	13620.272774904	13614.597645304	1.5	0.1
0.01	1	0.00337947399930272	1	71	NA	232.378913934001	0	0.66	6.73	1	228.142536270001	228.145915744	"17"	13620.272774904	13614.597645304	1.5	0.1
0.01	1	0.00363318800009438	1	71	NA	232.378913934001	0	0.66	6.73	1	228.37629317	228.379926358	"17"	13620.272774904	13614.597645304	1.5	0.1
