"payoff.level"	"balloon"	"rt"	"resp"	"explode.trial"	"explode.time"	"finish.time"	"exploded"	"trial.total"	"cumulative.total"	"finished"	"trial.start"	"trial.end"	"trial.num"	"secs"	"start.time"	"iti"	"isi"
0.01	1	1.74407750099999	1	64	NA	58.5108401669986	0	0.56	0.56	1	0.0139820469994447	1.75805954799944	"1"	12432.994146544	12427.754596846	1.5	0.1
0.01	1	0.450903029999608	1	64	NA	58.5108401669986	0	0.56	0.56	1	2.05070567499934	2.50160870499894	"1"	12432.994146544	12427.754596846	1.5	0.1
0.01	1	0.437552846000472	1	64	NA	58.5108401669986	0	0.56	0.56	1	2.73516404699876	3.17271689299923	"1"	12432.994146544	12427.754596846	1.5	0.1
0.01	1	0.409531945000708	1	64	NA	58.5108401669986	0	0.56	0.56	1	3.40303607999886	3.81256802499956	"1"	12432.994146544	12427.754596846	1.5	0.1
0.01	1	0.335521352999422	1	64	NA	58.5108401669986	0	0.56	0.56	1	4.0374269469994	4.37294829999882	"1"	12432.994146544	12427.754596846	1.5	0.1
0.01	1	0.0331739810008003	1	64	NA	58.5108401669986	0	0.56	0.56	1	4.60494551999909	4.63811950099989	"1"	12432.994146544	12427.754596846	1.5	0.1
0.01	1	0.140366277000794	1	64	NA	58.5108401669986	0	0.56	0.56	1	4.8721967249985	5.0125630019993	"1"	12432.994146544	12427.754596846	1.5	0.1
0.01	1	0.765063730999827	1	64	NA	58.5108401669986	0	0.56	0.56	1	5.23944872999891	6.00451246099874	"1"	12432.994146544	12427.754596846	1.5	0.1
0.01	1	0.404466705000232	1	64	NA	58.5108401669986	0	0.56	0.56	1	6.24111709999852	6.64558380499875	"1"	12432.994146544	12427.754596846	1.5	0.1
0.01	1	0.385177290001593	1	64	NA	58.5108401669986	0	0.56	0.56	1	6.87555771499865	7.26073500500024	"1"	12432.994146544	12427.754596846	1.5	0.1
0.01	1	0.50402610600031	1	64	NA	58.5108401669986	0	0.56	0.56	1	7.49328138999954	7.99730749599985	"1"	12432.994146544	12427.754596846	1.5	0.1
0.01	1	0.392440485000407	1	64	NA	58.5108401669986	0	0.56	0.56	1	8.22792489999847	8.62036538499888	"1"	12432.994146544	12427.754596846	1.5	0.1
0.01	1	0.42431087300065	1	64	NA	58.5108401669986	0	0.56	0.56	1	8.84547354499955	9.2697844180002	"1"	12432.994146544	12427.754596846	1.5	0.1
0.01	1	0.364064753999628	1	64	NA	58.5108401669986	0	0.56	0.56	1	9.49659454999892	9.86065930399855	"1"	12432.994146544	12427.754596846	1.5	0.1
0.01	1	0.468383621000612	1	64	NA	58.5108401669986	0	0.56	0.56	1	10.0976524199996	10.5660360410002	"1"	12432.994146544	12427.754596846	1.5	0.1
0.01	1	0.382192879000286	1	64	NA	58.5108401669986	0	0.56	0.56	1	10.7988578289987	11.181050707999	"1"	12432.994146544	12427.754596846	1.5	0.1
0.01	1	0.331881362999411	1	64	NA	58.5108401669986	0	0.56	0.56	1	11.4166981149992	11.7485794779986	"1"	12432.994146544	12427.754596846	1.5	0.1
0.01	1	0.388487476999217	1	64	NA	58.5108401669986	0	0.56	0.56	1	11.9841484749995	12.3726359519987	"1"	12432.994146544	12427.754596846	1.5	0.1
0.01	1	0.427713893001055	1	64	NA	58.5108401669986	0	0.56	0.56	1	12.6018680149991	13.0295819080002	"1"	12432.994146544	12427.754596846	1.5	0.1
0.01	1	0.479469193000114	1	64	NA	58.5108401669986	0	0.56	0.56	1	13.269579808999	13.7490490019991	"1"	12432.994146544	12427.754596846	1.5	0.1
0.01	1	0.473031969999283	1	64	NA	58.5108401669986	0	0.56	0.56	1	13.9873889749997	14.460420944999	"1"	12432.994146544	12427.754596846	1.5	0.1
0.01	1	0.485383597999316	1	64	NA	58.5108401669986	0	0.56	0.56	1	14.6886529769999	15.1740365749993	"1"	12432.994146544	12427.754596846	1.5	0.1
0.01	1	0.430599078001251	1	64	NA	58.5108401669986	0	0.56	0.56	1	15.406615296999	15.8372143750003	"1"	12432.994146544	12427.754596846	1.5	0.1
0.01	1	0.45012534200032	1	64	NA	58.5108401669986	0	0.56	0.56	1	16.0743990769988	16.5245244189991	"1"	12432.994146544	12427.754596846	1.5	0.1
0.01	1	0.447278928999367	1	64	NA	58.5108401669986	0	0.56	0.56	1	16.7589025950001	17.2061815239995	"1"	12432.994146544	12427.754596846	1.5	0.1
0.01	1	0.481719616000191	1	64	NA	58.5108401669986	0	0.56	0.56	1	17.443353617	17.9250732330001	"1"	12432.994146544	12427.754596846	1.5	0.1
0.01	1	0.435828972000309	1	64	NA	58.5108401669986	0	0.56	0.56	1	18.1611936499994	18.5970226219997	"1"	12432.994146544	12427.754596846	1.5	0.1
0.01	1	0.471364428000015	1	64	NA	58.5108401669986	0	0.56	0.56	1	18.8289428869994	19.3003073149994	"1"	12432.994146544	12427.754596846	1.5	0.1
0.01	1	0.674405735000619	1	64	NA	58.5108401669986	0	0.56	0.56	1	19.530106279999	20.2045120149996	"1"	12432.994146544	12427.754596846	1.5	0.1
0.01	1	0.486556437001127	1	64	NA	58.5108401669986	0	0.56	0.56	1	20.431694429999	20.9182508670001	"1"	12432.994146544	12427.754596846	1.5	0.1
0.01	1	0.488204360000964	1	64	NA	58.5108401669986	0	0.56	0.56	1	21.1496092799989	21.6378136399999	"1"	12432.994146544	12427.754596846	1.5	0.1
0.01	1	0.569511994001004	1	64	NA	58.5108401669986	0	0.56	0.56	1	21.8674479099991	22.4369599040001	"1"	12432.994146544	12427.754596846	1.5	0.1
0.01	1	0.576673949000906	1	64	NA	58.5108401669986	0	0.56	0.56	1	22.6687061559987	23.2453801049996	"1"	12432.994146544	12427.754596846	1.5	0.1
0.01	1	0.631935867999346	1	64	NA	58.5108401669986	0	0.56	0.56	1	23.4700684899999	24.1020043579992	"1"	12432.994146544	12427.754596846	1.5	0.1
0.01	1	0.715775146998567	1	64	NA	58.5108401669986	0	0.56	0.56	1	24.3381805720001	25.0539557189986	"1"	12432.994146544	12427.754596846	1.5	0.1
0.01	1	1.12354571200012	1	64	NA	58.5108401669986	0	0.56	0.56	1	25.2898443969989	26.413390108999	"1"	12432.994146544	12427.754596846	1.5	0.1
0.01	1	2.27614017499945	1	64	NA	58.5108401669986	0	0.56	0.56	1	26.6421205299994	28.9182607049988	"1"	12432.994146544	12427.754596846	1.5	0.1
0.01	1	0.483089228000608	1	64	NA	58.5108401669986	0	0.56	0.56	1	29.1464428849995	29.6295321130001	"1"	12432.994146544	12427.754596846	1.5	0.1
0.01	1	0.670217306998893	1	64	NA	58.5108401669986	0	0.56	0.56	1	29.8641802519996	30.5343975589985	"1"	12432.994146544	12427.754596846	1.5	0.1
0.01	1	0.599517448999904	1	64	NA	58.5108401669986	0	0.56	0.56	1	30.7656941749992	31.3652116239991	"1"	12432.994146544	12427.754596846	1.5	0.1
0.01	1	0.596116197999436	1	64	NA	58.5108401669986	0	0.56	0.56	1	31.6004574149993	32.1965736129987	"1"	12432.994146544	12427.754596846	1.5	0.1
0.01	1	3.790126504	1	64	NA	58.5108401669986	0	0.56	0.56	1	32.4351284519998	36.2252549559998	"1"	12432.994146544	12427.754596846	1.5	0.1
0.01	1	0.430866419999802	1	64	NA	58.5108401669986	0	0.56	0.56	1	36.4586187249988	36.8894851449986	"1"	12432.994146544	12427.754596846	1.5	0.1
0.01	1	0.426739200000156	1	64	NA	58.5108401669986	0	0.56	0.56	1	37.1264700699994	37.5532092699996	"1"	12432.994146544	12427.754596846	1.5	0.1
0.01	1	0.542760369999087	1	64	NA	58.5108401669986	0	0.56	0.56	1	37.7776042549995	38.3203646249985	"1"	12432.994146544	12427.754596846	1.5	0.1
0.01	1	0.494916692001425	1	64	NA	58.5108401669986	0	0.56	0.56	1	38.5454363399986	39.040353032	"1"	12432.994146544	12427.754596846	1.5	0.1
0.01	1	0.650672124000266	1	64	NA	58.5108401669986	0	0.56	0.56	1	39.263284749999	39.9139568739993	"1"	12432.994146544	12427.754596846	1.5	0.1
0.01	1	0.989208445000259	1	64	NA	58.5108401669986	0	0.56	0.56	1	40.1481365999989	41.1373450449992	"1"	12432.994146544	12427.754596846	1.5	0.1
0.01	1	0.689537886000835	1	64	NA	58.5108401669986	0	0.56	0.56	1	41.3668659149989	42.0564038009998	"1"	12432.994146544	12427.754596846	1.5	0.1
0.01	1	0.539838497999881	1	64	NA	58.5108401669986	0	0.56	0.56	1	42.2850736	42.8249120979999	"1"	12432.994146544	12427.754596846	1.5	0.1
0.01	1	0.475490739998349	1	64	NA	58.5108401669986	0	0.56	0.56	1	43.0531008050002	43.5285915449986	"1"	12432.994146544	12427.754596846	1.5	0.1
0.01	1	9.9536810160007	1	64	NA	58.5108401669986	0	0.56	0.56	1	43.7542412719995	53.7079222880002	"1"	12432.994146544	12427.754596846	1.5	0.1
0.01	1	0.473867007000081	1	64	NA	58.5108401669986	0	0.56	0.56	1	53.9380303769994	54.4118973839995	"1"	12432.994146544	12427.754596846	1.5	0.1
0.01	1	0.532940646999123	1	64	NA	58.5108401669986	0	0.56	0.56	1	54.6391864569996	55.1721271039987	"1"	12432.994146544	12427.754596846	1.5	0.1
0.01	1	0.558100187001401	1	64	NA	58.5108401669986	0	0.56	0.56	1	55.4072006649985	55.9653008519999	"1"	12432.994146544	12427.754596846	1.5	0.1
0.01	1	0.541054248000364	1	64	NA	58.5108401669986	0	0.56	0.56	1	56.1918712469997	56.732925495	"1"	12432.994146544	12427.754596846	1.5	0.1
0.01	1	1.54931854700044	2	64	NA	58.5108401669986	0	0.56	0.56	1	56.9598367299986	58.5091552769991	"1"	12432.994146544	12427.754596846	1.5	0.1
0.01	1	1.6946790810016	2	102	NA	62.2622619609992	0	0	0.56	1	60.5658841899985	62.2605632710001	"2"	12432.994146544	12427.754596846	1.5	0.1
0.01	1	0.545533775999502	2	97	NA	64.8693906839999	0	0	0.56	1	64.3221716219996	64.8677053979991	"3"	12432.994146544	12427.754596846	1.5	0.1
0.01	1	1.54103088000011	1	51	89.7181672369989	NA	1	0	0.56	1	66.926659544999	68.4676904249991	"4"	12432.994146544	12427.754596846	1.5	0.1
0.01	1	0.340013303999513	1	51	89.7181672369989	NA	1	0	0.56	1	68.6963010769996	69.0363143809991	"4"	12432.994146544	12427.754596846	1.5	0.1
0.01	1	0.388518794999982	1	51	89.7181672369989	NA	1	0	0.56	1	69.2639000700001	69.6524188650001	"4"	12432.994146544	12427.754596846	1.5	0.1
0.01	1	0.419293794999248	1	51	89.7181672369989	NA	1	0	0.56	1	69.881609045	70.3009028399993	"4"	12432.994146544	12427.754596846	1.5	0.1
0.01	1	0.447032883999782	1	51	89.7181672369989	NA	1	0	0.56	1	70.5326874769999	70.9797203609996	"4"	12432.994146544	12427.754596846	1.5	0.1
0.01	1	0.427986868999142	1	51	89.7181672369989	NA	1	0	0.56	1	71.2171176659995	71.6451045349986	"4"	12432.994146544	12427.754596846	1.5	0.1
0.01	1	0.351273807000325	1	51	89.7181672369989	NA	1	0	0.56	1	71.8683253719992	72.2195991789995	"4"	12432.994146544	12427.754596846	1.5	0.1
0.01	1	0.224027442000079	1	51	89.7181672369989	NA	1	0	0.56	1	72.452443496999	72.676470938999	"4"	12432.994146544	12427.754596846	1.5	0.1
0.01	1	0.21222504599973	1	51	89.7181672369989	NA	1	0	0.56	1	72.9033425159996	73.1155675619993	"4"	12432.994146544	12427.754596846	1.5	0.1
0.01	1	0.211708827999246	1	51	89.7181672369989	NA	1	0	0.56	1	73.3372695899998	73.548978417999	"4"	12432.994146544	12427.754596846	1.5	0.1
0.01	1	0.193120584999633	1	51	89.7181672369989	NA	1	0	0.56	1	73.7714734799993	73.9645940649989	"4"	12432.994146544	12427.754596846	1.5	0.1
0.01	1	0.200344852999478	1	51	89.7181672369989	NA	1	0	0.56	1	74.1886986249992	74.3890434779987	"4"	12432.994146544	12427.754596846	1.5	0.1
0.01	1	0.196571606998987	1	51	89.7181672369989	NA	1	0	0.56	1	74.6229012069998	74.8194728139988	"4"	12432.994146544	12427.754596846	1.5	0.1
0.01	1	0.146677662000002	1	51	89.7181672369989	NA	1	0	0.56	1	75.0568803999995	75.2035580619995	"4"	12432.994146544	12427.754596846	1.5	0.1
0.01	1	0.172141787999863	1	51	89.7181672369989	NA	1	0	0.56	1	75.4408941999991	75.613035987999	"4"	12432.994146544	12427.754596846	1.5	0.1
0.01	1	0.146380128000601	1	51	89.7181672369989	NA	1	0	0.56	1	75.8417115499997	75.9880916780003	"4"	12432.994146544	12427.754596846	1.5	0.1
0.01	1	0.15562897700147	1	51	89.7181672369989	NA	1	0	0.56	1	76.2256753249985	76.381304302	"4"	12432.994146544	12427.754596846	1.5	0.1
0.01	1	0.170557843999632	1	51	89.7181672369989	NA	1	0	0.56	1	76.6095490749994	76.7801069189991	"4"	12432.994146544	12427.754596846	1.5	0.1
0.01	1	0.154536983000071	1	51	89.7181672369989	NA	1	0	0.56	1	77.0102082069989	77.1647451899989	"4"	12432.994146544	12427.754596846	1.5	0.1
0.01	1	0.122132171998601	1	51	89.7181672369989	NA	1	0	0.56	1	77.3941598199999	77.5162919919985	"4"	12432.994146544	12427.754596846	1.5	0.1
0.01	1	0.180598329001441	1	51	89.7181672369989	NA	1	0	0.56	1	77.7447389649988	77.9253372940002	"4"	12432.994146544	12427.754596846	1.5	0.1
0.01	1	0.16245212800095	1	51	89.7181672369989	NA	1	0	0.56	1	78.1621420969987	78.3245942249996	"4"	12432.994146544	12427.754596846	1.5	0.1
0.01	1	0.194688165000116	1	51	89.7181672369989	NA	1	0	0.56	1	78.5460509749992	78.7407391399993	"4"	12432.994146544	12427.754596846	1.5	0.1
0.01	1	0.184309422000297	1	51	89.7181672369989	NA	1	0	0.56	1	78.9634707899986	79.1477802119989	"4"	12432.994146544	12427.754596846	1.5	0.1
0.01	1	0.192543413999374	1	51	89.7181672369989	NA	1	0	0.56	1	79.3808213800003	79.5733647939996	"4"	12432.994146544	12427.754596846	1.5	0.1
0.01	1	0.198335467001016	1	51	89.7181672369989	NA	1	0	0.56	1	79.7982029799987	79.9965384469997	"4"	12432.994146544	12427.754596846	1.5	0.1
0.01	1	0.157030233000114	1	51	89.7181672369989	NA	1	0	0.56	1	80.2323163199999	80.389346553	"4"	12432.994146544	12427.754596846	1.5	0.1
0.01	1	0.155747883998629	1	51	89.7181672369989	NA	1	0	0.56	1	80.6162929900001	80.7720408739988	"4"	12432.994146544	12427.754596846	1.5	0.1
0.01	1	0.180441160000555	1	51	89.7181672369989	NA	1	0	0.56	1	81.0002029049992	81.1806440649998	"4"	12432.994146544	12427.754596846	1.5	0.1
0.01	1	0.195799224000439	1	51	89.7181672369989	NA	1	0	0.56	1	81.4175296499998	81.6133288740002	"4"	12432.994146544	12427.754596846	1.5	0.1
0.01	1	0.136670675999994	1	51	89.7181672369989	NA	1	0	0.56	1	81.8516398049996	81.9883104809996	"4"	12432.994146544	12427.754596846	1.5	0.1
0.01	1	0.168636697999318	1	51	89.7181672369989	NA	1	0	0.56	1	82.2191459869991	82.3877826849985	"4"	12432.994146544	12427.754596846	1.5	0.1
0.01	1	0.16152647600029	1	51	89.7181672369989	NA	1	0	0.56	1	82.6196244599996	82.7811509359999	"4"	12432.994146544	12427.754596846	1.5	0.1
0.01	1	0.175960513000973	1	51	89.7181672369989	NA	1	0	0.56	1	83.0036036949987	83.1795642079996	"4"	12432.994146544	12427.754596846	1.5	0.1
0.01	1	0.175976546999664	1	51	89.7181672369989	NA	1	0	0.56	1	83.4042589399996	83.5802354869993	"4"	12432.994146544	12427.754596846	1.5	0.1
0.01	1	0.150683588000902	1	51	89.7181672369989	NA	1	0	0.56	1	83.8049495919986	83.9556331799995	"4"	12432.994146544	12427.754596846	1.5	0.1
0.01	1	0.152029665001464	1	51	89.7181672369989	NA	1	0	0.56	1	84.1889645269985	84.3409941919999	"4"	12432.994146544	12427.754596846	1.5	0.1
0.01	1	0.152033813999878	1	51	89.7181672369989	NA	1	0	0.56	1	84.5729151389987	84.7249489529986	"4"	12432.994146544	12427.754596846	1.5	0.1
0.01	1	0.144149039000695	1	51	89.7181672369989	NA	1	0	0.56	1	84.9569817399988	85.1011307789995	"4"	12432.994146544	12427.754596846	1.5	0.1
0.01	1	0.145025173000249	1	51	89.7181672369989	NA	1	0	0.56	1	85.3242695169993	85.4692946899995	"4"	12432.994146544	12427.754596846	1.5	0.1
0.01	1	0.151486557999306	1	51	89.7181672369989	NA	1	0	0.56	1	85.7081596349999	85.8596461929992	"4"	12432.994146544	12427.754596846	1.5	0.1
0.01	1	0.127274713000588	1	51	89.7181672369989	NA	1	0	0.56	1	86.0922152599996	86.2194899730002	"4"	12432.994146544	12427.754596846	1.5	0.1
0.01	1	0.169235411000045	1	51	89.7181672369989	NA	1	0	0.56	1	86.4428072519986	86.6120426629986	"4"	12432.994146544	12427.754596846	1.5	0.1
0.01	1	0.176859993000107	1	51	89.7181672369989	NA	1	0	0.56	1	86.8433396849996	87.0201996779997	"4"	12432.994146544	12427.754596846	1.5	0.1
0.01	1	0.215488058000119	1	51	89.7181672369989	NA	1	0	0.56	1	87.2440765599986	87.4595646179987	"4"	12432.994146544	12427.754596846	1.5	0.1
0.01	1	0.166097421999439	1	51	89.7181672369989	NA	1	0	0.56	1	87.6948134049999	87.8609108269993	"4"	12432.994146544	12427.754596846	1.5	0.1
0.01	1	0.102110101001017	1	51	89.7181672369989	NA	1	0	0.56	1	88.0954752519992	88.1975853530002	"4"	12432.994146544	12427.754596846	1.5	0.1
0.01	1	0.151121795999643	1	51	89.7181672369989	NA	1	0	0.56	1	88.429316832	88.5804386279997	"4"	12432.994146544	12427.754596846	1.5	0.1
0.01	1	0.110634202001165	1	51	89.7181672369989	NA	1	0	0.56	1	88.8134524999987	88.9240867019998	"4"	12432.994146544	12427.754596846	1.5	0.1
0.01	1	0.137165718999313	1	51	89.7181672369989	NA	1	0	0.56	1	89.147292185	89.2844579039993	"4"	12432.994146544	12427.754596846	1.5	0.1
0.01	1	0.0898267009997653	1	51	89.7181672369989	NA	1	0	0.56	1	89.5145754669993	89.6044021679991	"4"	12432.994146544	12427.754596846	1.5	0.1
0.01	1	0.396646203000273	1	116	NA	105.477230861999	0	0.47	1.03	1	91.7683281849986	92.1649743879989	"5"	12432.994146544	12427.754596846	1.5	0.1
0.01	1	0.00216253899998264	1	116	NA	105.477230861999	0	0.47	1.03	1	92.402661189999	92.404823728999	"5"	12432.994146544	12427.754596846	1.5	0.1
0.01	1	0.0631333669989544	1	116	NA	105.477230861999	0	0.47	1.03	1	92.6364369200001	92.699570286999	"5"	12432.994146544	12427.754596846	1.5	0.1
0.01	1	0.068208971999411	1	116	NA	105.477230861999	0	0.47	1.03	1	92.9368980449999	93.0051070169993	"5"	12432.994146544	12427.754596846	1.5	0.1
0.01	1	0.00399210099931224	1	116	NA	105.477230861999	0	0.47	1.03	1	93.237440375	93.2414324759993	"5"	12432.994146544	12427.754596846	1.5	0.1
0.01	1	0.00228736699864385	1	116	NA	105.477230861999	0	0.47	1.03	1	93.4711568809998	93.4734442479985	"5"	12432.994146544	12427.754596846	1.5	0.1
0.01	1	0.123462208001001	1	116	NA	105.477230861999	0	0.47	1.03	1	93.7049629599987	93.8284251679997	"5"	12432.994146544	12427.754596846	1.5	0.1
0.01	1	0.221786632999283	1	116	NA	105.477230861999	0	0.47	1.03	1	94.0554529199999	94.2772395529992	"5"	12432.994146544	12427.754596846	1.5	0.1
0.01	1	0.00411280900152633	1	116	NA	105.477230861999	0	0.47	1.03	1	94.5062718849986	94.5103846940001	"5"	12432.994146544	12427.754596846	1.5	0.1
0.01	1	0.00464400700002443	1	116	NA	105.477230861999	0	0.47	1.03	1	94.7400491099997	94.7446931169998	"5"	12432.994146544	12427.754596846	1.5	0.1
0.01	1	0.00406397000006109	1	116	NA	105.477230861999	0	0.47	1.03	1	94.9737916119993	94.9778555819994	"5"	12432.994146544	12427.754596846	1.5	0.1
0.01	1	0.0683032749984704	1	116	NA	105.477230861999	0	0.47	1.03	1	95.2074592600002	95.2757625349986	"5"	12432.994146544	12427.754596846	1.5	0.1
0.01	1	0.00406827299957513	1	116	NA	105.477230861999	0	0.47	1.03	1	95.5079654450001	95.5120337179997	"5"	12432.994146544	12427.754596846	1.5	0.1
0.01	1	0.126604248000149	1	116	NA	105.477230861999	0	0.47	1.03	1	95.7417236959991	95.8683279439992	"5"	12432.994146544	12427.754596846	1.5	0.1
0.01	1	0.00208502199893701	1	116	NA	105.477230861999	0	0.47	1.03	1	96.0922544599998	96.0943394819988	"5"	12432.994146544	12427.754596846	1.5	0.1
0.01	1	0.117674416000227	1	116	NA	105.477230861999	0	0.47	1.03	1	96.3260758369997	96.443750253	"5"	12432.994146544	12427.754596846	1.5	0.1
0.01	1	0.00229156099885586	1	116	NA	105.477230861999	0	0.47	1.03	1	96.676624402	96.6789159629989	"5"	12432.994146544	12427.754596846	1.5	0.1
0.01	1	0.00469789500129991	1	116	NA	105.477230861999	0	0.47	1.03	1	96.910331359999	96.9150292550003	"5"	12432.994146544	12427.754596846	1.5	0.1
0.01	1	0.00467297999966831	1	116	NA	105.477230861999	0	0.47	1.03	1	97.1441113299989	97.1487843099985	"5"	12432.994146544	12427.754596846	1.5	0.1
0.01	1	0.0905673950001074	1	116	NA	105.477230861999	0	0.47	1.03	1	97.3778421199986	97.4684095149987	"5"	12432.994146544	12427.754596846	1.5	0.1
0.01	1	0.002078392999465	1	116	NA	105.477230861999	0	0.47	1.03	1	97.6949767999995	97.697055192999	"5"	12432.994146544	12427.754596846	1.5	0.1
0.01	1	0.00399075799941784	1	116	NA	105.477230861999	0	0.47	1.03	1	97.9286180599993	97.9326088179987	"5"	12432.994146544	12427.754596846	1.5	0.1
0.01	1	0.00209335599902261	1	116	NA	105.477230861999	0	0.47	1.03	1	98.1624117800002	98.1645051359992	"5"	12432.994146544	12427.754596846	1.5	0.1
0.01	1	0.120426595000026	1	116	NA	105.477230861999	0	0.47	1.03	1	98.3961517319985	98.5165783269986	"5"	12432.994146544	12427.754596846	1.5	0.1
0.01	1	0.0046851120005158	1	116	NA	105.477230861999	0	0.47	1.03	1	98.7467637049995	98.751448817	"5"	12432.994146544	12427.754596846	1.5	0.1
0.01	1	0.0046951700005593	1	116	NA	105.477230861999	0	0.47	1.03	1	98.9805016249993	98.9851967949999	"5"	12432.994146544	12427.754596846	1.5	0.1
0.01	1	0.117309672999909	1	116	NA	105.477230861999	0	0.47	1.03	1	99.214269099999	99.3315787729989	"5"	12432.994146544	12427.754596846	1.5	0.1
0.01	1	0.00219570199988084	1	116	NA	105.477230861999	0	0.47	1.03	1	99.564850879	99.5670465809999	"5"	12432.994146544	12427.754596846	1.5	0.1
0.01	1	0.00392943699989701	1	116	NA	105.477230861999	0	0.47	1.03	1	99.798590254999	99.8025196919989	"5"	12432.994146544	12427.754596846	1.5	0.1
0.01	1	0.108064428999569	1	116	NA	105.477230861999	0	0.47	1.03	1	100.032260287	100.140324716	"5"	12432.994146544	12427.754596846	1.5	0.1
0.01	1	0.00212330899921653	1	116	NA	105.477230861999	0	0.47	1.03	1	100.366100409999	100.368223718999	"5"	12432.994146544	12427.754596846	1.5	0.1
0.01	1	0.00211034700078017	1	116	NA	105.477230861999	0	0.47	1.03	1	100.599871696999	100.601982044	"5"	12432.994146544	12427.754596846	1.5	0.1
0.01	1	0.00208019299861917	1	116	NA	105.477230861999	0	0.47	1.03	1	100.833580835	100.835661027999	"5"	12432.994146544	12427.754596846	1.5	0.1
0.01	1	0.105945421000797	1	116	NA	105.477230861999	0	0.47	1.03	1	101.067321099999	101.173266521	"5"	12432.994146544	12427.754596846	1.5	0.1
0.01	1	0.00475239499974123	1	116	NA	105.477230861999	0	0.47	1.03	1	101.40123195	101.405984345	"5"	12432.994146544	12427.754596846	1.5	0.1
0.01	1	0.00211513499925786	1	116	NA	105.477230861999	0	0.47	1.03	1	101.634935908	101.637051042999	"5"	12432.994146544	12427.754596846	1.5	0.1
0.01	1	0.00212090399872977	1	116	NA	105.477230861999	0	0.47	1.03	1	101.868723193	101.870844096999	"5"	12432.994146544	12427.754596846	1.5	0.1
0.01	1	0.00401904399950581	1	116	NA	105.477230861999	0	0.47	1.03	1	102.102428099999	102.106447143999	"5"	12432.994146544	12427.754596846	1.5	0.1
0.01	1	0.00403313900096691	1	116	NA	105.477230861999	0	0.47	1.03	1	102.336116496999	102.340149636	"5"	12432.994146544	12427.754596846	1.5	0.1
0.01	1	0.0038826780000818	1	116	NA	105.477230861999	0	0.47	1.03	1	102.56984776	102.573730438	"5"	12432.994146544	12427.754596846	1.5	0.1
0.01	1	0.00407123799959663	1	116	NA	105.477230861999	0	0.47	1.03	1	102.803484959999	102.807556197999	"5"	12432.994146544	12427.754596846	1.5	0.1
0.01	1	0.00476133499978459	1	116	NA	105.477230861999	0	0.47	1.03	1	103.037289234999	103.042050569999	"5"	12432.994146544	12427.754596846	1.5	0.1
0.01	1	0.00209281600109534	1	116	NA	105.477230861999	0	0.47	1.03	1	103.271068680999	103.273161497	"5"	12432.994146544	12427.754596846	1.5	0.1
0.01	1	0.0281705769994005	1	116	NA	105.477230861999	0	0.47	1.03	1	103.504738312	103.532908888999	"5"	12432.994146544	12427.754596846	1.5	0.1
0.01	1	0.129403720999107	1	116	NA	105.477230861999	0	0.47	1.03	1	103.75513899	103.884542710999	"5"	12432.994146544	12427.754596846	1.5	0.1
0.01	1	0.105165958000725	1	116	NA	105.477230861999	0	0.47	1.03	1	104.122448594999	104.227614553	"5"	12432.994146544	12427.754596846	1.5	0.1
0.01	1	0.212343909999618	1	116	NA	105.477230861999	0	0.47	1.03	1	104.45636803	104.668711939999	"5"	12432.994146544	12427.754596846	1.5	0.1
0.01	1	0.568384235999474	2	116	NA	105.477230861999	0	0.47	1.03	1	104.907193781999	105.475578017998	"5"	12432.994146544	12427.754596846	1.5	0.1
0.01	1	0.109960372999922	1	118	NA	145.078717773	0	0.59	1.62	1	107.511479031999	107.621439404998	"6"	12432.994146544	12427.754596846	1.5	0.1
0.01	1	0.0700831519989151	1	118	NA	145.078717773	0	0.59	1.62	1	107.862155092	107.932238243999	"6"	12432.994146544	12427.754596846	1.5	0.1
0.01	1	0.144956153000749	1	118	NA	145.078717773	0	0.59	1.62	1	108.162672864999	108.307629018	"6"	12432.994146544	12427.754596846	1.5	0.1
0.01	1	0.178328354999394	1	118	NA	145.078717773	0	0.59	1.62	1	108.529872915	108.708201269999	"6"	12432.994146544	12427.754596846	1.5	0.1
0.01	1	0.123163668000416	1	118	NA	145.078717773	0	0.59	1.62	1	108.930493279999	109.053656947999	"6"	12432.994146544	12427.754596846	1.5	0.1
0.01	1	0.131044878000466	1	118	NA	145.078717773	0	0.59	1.62	1	109.281144355999	109.412189233999	"6"	12432.994146544	12427.754596846	1.5	0.1
0.01	1	0.12490697100111	1	118	NA	145.078717773	0	0.59	1.62	1	109.648473026999	109.773379998	"6"	12432.994146544	12427.754596846	1.5	0.1
0.01	1	0.125271234999673	1	118	NA	145.078717773	0	0.59	1.62	1	109.999008888999	110.124280123999	"6"	12432.994146544	12427.754596846	1.5	0.1
0.01	1	0.102865292001297	1	118	NA	145.078717773	0	0.59	1.62	1	110.349523989998	110.452389282	"6"	12432.994146544	12427.754596846	1.5	0.1
0.01	1	0.177144320001389	1	118	NA	145.078717773	0	0.59	1.62	1	110.683547691999	110.860692012	"6"	12432.994146544	12427.754596846	1.5	0.1
0.01	1	0.2245242959998	1	118	NA	145.078717773	0	0.59	1.62	1	111.08424122	111.308765516	"6"	12432.994146544	12427.754596846	1.5	0.1
0.01	1	0.0941369370011671	1	118	NA	145.078717773	0	0.59	1.62	1	111.534965318999	111.629102256	"6"	12432.994146544	12427.754596846	1.5	0.1
0.01	1	0.103503584999999	1	118	NA	145.078717773	0	0.59	1.62	1	111.852207599999	111.955711184999	"6"	12432.994146544	12427.754596846	1.5	0.1
0.01	1	0.123591371000657	1	118	NA	145.078717773	0	0.59	1.62	1	112.18608937	112.309680741	"6"	12432.994146544	12427.754596846	1.5	0.1
0.01	1	0.124094206001246	1	118	NA	145.078717773	0	0.59	1.62	1	112.536598929999	112.660693136	"6"	12432.994146544	12427.754596846	1.5	0.1
0.01	1	0.109373605000656	1	118	NA	145.078717773	0	0.59	1.62	1	112.887260116999	112.996633721999	"6"	12432.994146544	12427.754596846	1.5	0.1
0.01	1	0.150706270000228	1	118	NA	145.078717773	0	0.59	1.62	1	113.221080152	113.371786422	"6"	12432.994146544	12427.754596846	1.5	0.1
0.01	1	0.120016369999576	1	118	NA	145.078717773	0	0.59	1.62	1	113.605047105	113.725063475	"6"	12432.994146544	12427.754596846	1.5	0.1
0.01	1	0.113490223000554	1	118	NA	145.078717773	0	0.59	1.62	1	113.955627615	114.069117838	"6"	12432.994146544	12427.754596846	1.5	0.1
0.01	1	0.130165884000235	1	118	NA	145.078717773	0	0.59	1.62	1	114.306288289999	114.436454174	"6"	12432.994146544	12427.754596846	1.5	0.1
0.01	1	0.132048928000586	1	118	NA	145.078717773	0	0.59	1.62	1	114.673585824999	114.805634753	"6"	12432.994146544	12427.754596846	1.5	0.1
0.01	1	0.0919837830006145	1	118	NA	145.078717773	0	0.59	1.62	1	115.040894234999	115.132878017999	"6"	12432.994146544	12427.754596846	1.5	0.1
0.01	1	0.141794622999441	1	118	NA	145.078717773	0	0.59	1.62	1	115.358098766999	115.499893389999	"6"	12432.994146544	12427.754596846	1.5	0.1
0.01	1	0.142284374000155	1	118	NA	145.078717773	0	0.59	1.62	1	115.725348006999	115.867632381	"6"	12432.994146544	12427.754596846	1.5	0.1
0.01	1	0.175234129999808	1	118	NA	145.078717773	0	0.59	1.62	1	116.092606397	116.267840527	"6"	12432.994146544	12427.754596846	1.5	0.1
0.01	1	0.159600590999617	1	118	NA	145.078717773	0	0.59	1.62	1	116.493225366999	116.652825957999	"6"	12432.994146544	12427.754596846	1.5	0.1
0.01	1	0.110547944001155	1	118	NA	145.078717773	0	0.59	1.62	1	116.893970784999	117.004518729	"6"	12432.994146544	12427.754596846	1.5	0.1
0.01	1	0.209286199999042	1	118	NA	145.078717773	0	0.59	1.62	1	117.227757347	117.437043546999	"6"	12432.994146544	12427.754596846	1.5	0.1
0.01	1	0.310917957000129	1	118	NA	145.078717773	0	0.59	1.62	1	117.66188446	117.972802417	"6"	12432.994146544	12427.754596846	1.5	0.1
0.01	1	0.328729090999332	1	118	NA	145.078717773	0	0.59	1.62	1	118.196199585	118.524928675999	"6"	12432.994146544	12427.754596846	1.5	0.1
0.01	1	0.241709777999858	1	118	NA	145.078717773	0	0.59	1.62	1	118.747002049999	118.988711827998	"6"	12432.994146544	12427.754596846	1.5	0.1
0.01	1	0.253467820000878	1	118	NA	145.078717773	0	0.59	1.62	1	119.214556109999	119.46802393	"6"	12432.994146544	12427.754596846	1.5	0.1
0.01	1	0.225993575999382	1	118	NA	145.078717773	0	0.59	1.62	1	119.698590829999	119.924584405999	"6"	12432.994146544	12427.754596846	1.5	0.1
0.01	1	0.255401287000495	1	118	NA	145.078717773	0	0.59	1.62	1	120.149373176999	120.404774463999	"6"	12432.994146544	12427.754596846	1.5	0.1
0.01	1	0.251627793999432	1	118	NA	145.078717773	0	0.59	1.62	1	120.633636818	120.885264611999	"6"	12432.994146544	12427.754596846	1.5	0.1
0.01	1	0.246688205001192	1	118	NA	145.078717773	0	0.59	1.62	1	121.117723939999	121.364412145	"6"	12432.994146544	12427.754596846	1.5	0.1
0.01	1	0.25941899299869	1	118	NA	145.078717773	0	0.59	1.62	1	121.601913425	121.861332417999	"6"	12432.994146544	12427.754596846	1.5	0.1
0.01	1	0.271404549999716	1	118	NA	145.078717773	0	0.59	1.62	1	122.085967651999	122.357372201999	"6"	12432.994146544	12427.754596846	1.5	0.1
0.01	1	0.296974330000012	1	118	NA	145.078717773	0	0.59	1.62	1	122.586889234999	122.883863564999	"6"	12432.994146544	12427.754596846	1.5	0.1
0.01	1	0.218679268000415	1	118	NA	145.078717773	0	0.59	1.62	1	123.121043859999	123.339723128	"6"	12432.994146544	12427.754596846	1.5	0.1
0.01	1	0.296629513999505	1	118	NA	145.078717773	0	0.59	1.62	1	123.571926482	123.868555995999	"6"	12432.994146544	12427.754596846	1.5	0.1
0.01	1	0.346343914001409	1	118	NA	145.078717773	0	0.59	1.62	1	124.106097131998	124.452441046	"6"	12432.994146544	12427.754596846	1.5	0.1
0.01	1	0.313552215999152	1	118	NA	145.078717773	0	0.59	1.62	1	124.690470017	125.004022232999	"6"	12432.994146544	12427.754596846	1.5	0.1
0.01	1	0.387365738000881	1	118	NA	145.078717773	0	0.59	1.62	1	125.241243299999	125.628609038	"6"	12432.994146544	12427.754596846	1.5	0.1
0.01	1	0.418566919001023	1	118	NA	145.078717773	0	0.59	1.62	1	125.859009054999	126.277575974	"6"	12432.994146544	12427.754596846	1.5	0.1
0.01	1	0.581664882000041	1	118	NA	145.078717773	0	0.59	1.62	1	126.510201039999	127.091865921999	"6"	12432.994146544	12427.754596846	1.5	0.1
0.01	1	1.05125332800162	1	118	NA	145.078717773	0	0.59	1.62	1	127.328193124999	128.379446453	"6"	12432.994146544	12427.754596846	1.5	0.1
0.01	1	0.662229768000543	1	118	NA	145.078717773	0	0.59	1.62	1	128.61367345	129.275903218	"6"	12432.994146544	12427.754596846	1.5	0.1
0.01	1	0.736420121000265	1	118	NA	145.078717773	0	0.59	1.62	1	129.515121459999	130.251541580999	"6"	12432.994146544	12427.754596846	1.5	0.1
0.01	1	1.40998986200066	1	118	NA	145.078717773	0	0.59	1.62	1	130.483489714999	131.893479577	"6"	12432.994146544	12427.754596846	1.5	0.1
0.01	1	0.733704685999328	1	118	NA	145.078717773	0	0.59	1.62	1	132.119528275	132.853232960999	"6"	12432.994146544	12427.754596846	1.5	0.1
0.01	1	0.732331485000032	1	118	NA	145.078717773	0	0.59	1.62	1	133.087946509	133.820277994	"6"	12432.994146544	12427.754596846	1.5	0.1
0.01	1	1.4121535860013	1	118	NA	145.078717773	0	0.59	1.62	1	134.056120759999	135.468274346	"6"	12432.994146544	12427.754596846	1.5	0.1
0.01	1	1.44868793899877	1	118	NA	145.078717773	0	0.59	1.62	1	135.69219944	137.140887378999	"6"	12432.994146544	12427.754596846	1.5	0.1
0.01	1	1.35335596599907	1	118	NA	145.078717773	0	0.59	1.62	1	137.378341696	138.731697661999	"6"	12432.994146544	12427.754596846	1.5	0.1
0.01	1	0.591425671998877	1	118	NA	145.078717773	0	0.59	1.62	1	138.96438614	139.555811811999	"6"	12432.994146544	12427.754596846	1.5	0.1
0.01	1	0.798092787999849	1	118	NA	145.078717773	0	0.59	1.62	1	139.78248217	140.580574957999	"6"	12432.994146544	12427.754596846	1.5	0.1
0.01	1	0.681986583000253	1	118	NA	145.078717773	0	0.59	1.62	1	140.817499889999	141.499486473	"6"	12432.994146544	12427.754596846	1.5	0.1
0.01	1	1.05217212699972	1	118	NA	145.078717773	0	0.59	1.62	1	141.735880476999	142.788052603999	"6"	12432.994146544	12427.754596846	1.5	0.1
0.01	1	2.05597116100034	2	118	NA	145.078717773	0	0.59	1.62	1	143.021189134999	145.077160295999	"6"	12432.994146544	12427.754596846	1.5	0.1
0.01	1	0.476405450001039	1	87	177.032373939999	NA	1	0	1.62	1	147.128136829999	147.60454228	"7"	12432.994146544	12427.754596846	1.5	0.1
0.01	1	0.270103789000132	1	87	177.032373939999	NA	1	0	1.62	1	147.845975216	148.116079005	"7"	12432.994146544	12427.754596846	1.5	0.1
0.01	1	0.273157685000115	1	87	177.032373939999	NA	1	0	1.62	1	148.346903706999	148.620061391999	"7"	12432.994146544	12427.754596846	1.5	0.1
0.01	1	0.284248584999659	1	87	177.032373939999	NA	1	0	1.62	1	148.84772331	149.131971895	"7"	12432.994146544	12427.754596846	1.5	0.1
0.01	1	0.318958070000008	1	87	177.032373939999	NA	1	0	1.62	1	149.365272339999	149.684230409999	"7"	12432.994146544	12427.754596846	1.5	0.1
0.01	1	0.28040503199918	1	87	177.032373939999	NA	1	0	1.62	1	149.916206424999	150.196611456999	"7"	12432.994146544	12427.754596846	1.5	0.1
0.01	1	0.339908771999035	1	87	177.032373939999	NA	1	0	1.62	1	150.433714414999	150.773623186999	"7"	12432.994146544	12427.754596846	1.5	0.1
0.01	1	0.291960702001234	1	87	177.032373939999	NA	1	0	1.62	1	151.001303469999	151.293264172	"7"	12432.994146544	12427.754596846	1.5	0.1
0.01	1	0.00393681899913645	1	87	177.032373939999	NA	1	0	1.62	1	151.518779436999	151.522716255999	"7"	12432.994146544	12427.754596846	1.5	0.1
0.01	1	0.0140779900011694	1	87	177.032373939999	NA	1	0	1.62	1	151.752638201999	151.766716192	"7"	12432.994146544	12427.754596846	1.5	0.1
0.01	1	0.00403819699931773	1	87	177.032373939999	NA	1	0	1.62	1	152.003005347	152.007043543999	"7"	12432.994146544	12427.754596846	1.5	0.1
0.01	1	0.102758335000544	1	87	177.032373939999	NA	1	0	1.62	1	152.236758629999	152.339516964999	"7"	12432.994146544	12427.754596846	1.5	0.1
0.01	1	0.305332431998977	1	87	177.032373939999	NA	1	0	1.62	1	152.570671975	152.876004406999	"7"	12432.994146544	12427.754596846	1.5	0.1
0.01	1	0.332272048000959	1	87	177.032373939999	NA	1	0	1.62	1	153.104783876999	153.437055925	"7"	12432.994146544	12427.754596846	1.5	0.1
0.01	1	0.00376221400074428	1	87	177.032373939999	NA	1	0	1.62	1	153.672476939999	153.676239154	"7"	12432.994146544	12427.754596846	1.5	0.1
0.01	1	0.0984437549996073	1	87	177.032373939999	NA	1	0	1.62	1	153.90626887	154.004712624999	"7"	12432.994146544	12427.754596846	1.5	0.1
0.01	1	0.00367385200115677	1	87	177.032373939999	NA	1	0	1.62	1	154.240097259999	154.243771112	"7"	12432.994146544	12427.754596846	1.5	0.1
0.01	1	0.0750425959995482	1	87	177.032373939999	NA	1	0	1.62	1	154.473766657	154.548809252999	"7"	12432.994146544	12427.754596846	1.5	0.1
0.01	1	0.00395429200034414	1	87	177.032373939999	NA	1	0	1.62	1	154.77436797	154.778322262	"7"	12432.994146544	12427.754596846	1.5	0.1
0.01	1	0.0838623849995201	1	87	177.032373939999	NA	1	0	1.62	1	155.008086079999	155.091948464998	"7"	12432.994146544	12427.754596846	1.5	0.1
0.01	1	0.00465567700121028	1	87	177.032373939999	NA	1	0	1.62	1	155.325409539999	155.330065217	"7"	12432.994146544	12427.754596846	1.5	0.1
0.01	1	0.0687678400008735	1	87	177.032373939999	NA	1	0	1.62	1	155.558973321999	155.627741161999	"7"	12432.994146544	12427.754596846	1.5	0.1
0.01	1	0.0043827549998241	1	87	177.032373939999	NA	1	0	1.62	1	155.859440201999	155.863822956999	"7"	12432.994146544	12427.754596846	1.5	0.1
0.01	1	0.1041588829994	1	87	177.032373939999	NA	1	0	1.62	1	156.093229827	156.197388709999	"7"	12432.994146544	12427.754596846	1.5	0.1
0.01	1	0.00472687500041502	1	87	177.032373939999	NA	1	0	1.62	1	156.427192469999	156.431919344999	"7"	12432.994146544	12427.754596846	1.5	0.1
0.01	1	0.0628031039996131	1	87	177.032373939999	NA	1	0	1.62	1	156.660940369	156.723743473	"7"	12432.994146544	12427.754596846	1.5	0.1
0.01	1	0.00389509100023133	1	87	177.032373939999	NA	1	0	1.62	1	156.961324004998	156.965219095999	"7"	12432.994146544	12427.754596846	1.5	0.1
0.01	1	0.105260306998389	1	87	177.032373939999	NA	1	0	1.62	1	157.195106555	157.300366861999	"7"	12432.994146544	12427.754596846	1.5	0.1
0.01	1	0.00468514000021969	1	87	177.032373939999	NA	1	0	1.62	1	157.52900015	157.53368529	"7"	12432.994146544	12427.754596846	1.5	0.1
0.01	1	0.10511149499871	1	87	177.032373939999	NA	1	0	1.62	1	157.762702737	157.867814231999	"7"	12432.994146544	12427.754596846	1.5	0.1
0.01	1	0.00384279899844842	1	87	177.032373939999	NA	1	0	1.62	1	158.096552465	158.100395263999	"7"	12432.994146544	12427.754596846	1.5	0.1
0.01	1	0.0495119959996373	1	87	177.032373939999	NA	1	0	1.62	1	158.330368165	158.379880160999	"7"	12432.994146544	12427.754596846	1.5	0.1
0.01	1	0.0038740180007153	1	87	177.032373939999	NA	1	0	1.62	1	158.614083639999	158.617957658	"7"	12432.994146544	12427.754596846	1.5	0.1
0.01	1	0.100804884001263	1	87	177.032373939999	NA	1	0	1.62	1	158.847880194999	158.948685079	"7"	12432.994146544	12427.754596846	1.5	0.1
0.01	1	0.00386914199953026	1	87	177.032373939999	NA	1	0	1.62	1	159.18177537	159.185644511999	"7"	12432.994146544	12427.754596846	1.5	0.1
0.01	1	0.117980103001173	1	87	177.032373939999	NA	1	0	1.62	1	159.415515969999	159.533496073	"7"	12432.994146544	12427.754596846	1.5	0.1
0.01	1	0.00467686999945727	1	87	177.032373939999	NA	1	0	1.62	1	159.766039405	159.770716274999	"7"	12432.994146544	12427.754596846	1.5	0.1
0.01	1	0.093029010000464	1	87	177.032373939999	NA	1	0	1.62	1	159.999834316999	160.092863327	"7"	12432.994146544	12427.754596846	1.5	0.1
0.01	1	0.00414264400023967	1	87	177.032373939999	NA	1	0	1.62	1	160.317059069999	160.321201713999	"7"	12432.994146544	12427.754596846	1.5	0.1
0.01	1	0.117667394999444	1	87	177.032373939999	NA	1	0	1.62	1	160.550719594999	160.668386989999	"7"	12432.994146544	12427.754596846	1.5	0.1
0.01	1	0.00474568200115755	1	87	177.032373939999	NA	1	0	1.62	1	160.901330724999	160.906076407	"7"	12432.994146544	12427.754596846	1.5	0.1
0.01	1	0.164729541998895	1	87	177.032373939999	NA	1	0	1.62	1	161.135041582	161.299771123999	"7"	12432.994146544	12427.754596846	1.5	0.1
0.01	1	0.00483259000066028	1	87	177.032373939999	NA	1	0	1.62	1	161.535687879999	161.54052047	"7"	12432.994146544	12427.754596846	1.5	0.1
0.01	1	0.0666070140014199	1	87	177.032373939999	NA	1	0	1.62	1	161.769381287999	161.835988302	"7"	12432.994146544	12427.754596846	1.5	0.1
0.01	1	0.00401255799988576	1	87	177.032373939999	NA	1	0	1.62	1	162.069964329999	162.073976887999	"7"	12432.994146544	12427.754596846	1.5	0.1
0.01	1	0.109943209001358	1	87	177.032373939999	NA	1	0	1.62	1	162.303616104999	162.413559314	"7"	12432.994146544	12427.754596846	1.5	0.1
0.01	1	0.00398807099918486	1	87	177.032373939999	NA	1	0	1.62	1	162.637553836999	162.641541907999	"7"	12432.994146544	12427.754596846	1.5	0.1
0.01	1	0.141014679000364	1	87	177.032373939999	NA	1	0	1.62	1	162.871312095	163.012326774	"7"	12432.994146544	12427.754596846	1.5	0.1
0.01	1	0.00390895899909083	1	87	177.032373939999	NA	1	0	1.62	1	163.238591587	163.242500545999	"7"	12432.994146544	12427.754596846	1.5	0.1
0.01	1	0.203420611000183	1	87	177.032373939999	NA	1	0	1.62	1	163.47229883	163.675719441	"7"	12432.994146544	12427.754596846	1.5	0.1
0.01	1	0.00406547400052659	1	87	177.032373939999	NA	1	0	1.62	1	163.906301199999	163.910366673999	"7"	12432.994146544	12427.754596846	1.5	0.1
0.01	1	0.176560111998697	1	87	177.032373939999	NA	1	0	1.62	1	164.140088635	164.316648746999	"7"	12432.994146544	12427.754596846	1.5	0.1
0.01	1	0.407812198000101	1	87	177.032373939999	NA	1	0	1.62	1	164.540838129999	164.948650327999	"7"	12432.994146544	12427.754596846	1.5	0.1
0.01	1	0.0047980950002966	1	87	177.032373939999	NA	1	0	1.62	1	165.175252859999	165.180050954999	"7"	12432.994146544	12427.754596846	1.5	0.1
0.01	1	0.147834314999272	1	87	177.032373939999	NA	1	0	1.62	1	165.408849879999	165.556684194999	"7"	12432.994146544	12427.754596846	1.5	0.1
0.01	1	0.0037656659987988	1	87	177.032373939999	NA	1	0	1.62	1	165.7928737	165.796639365999	"7"	12432.994146544	12427.754596846	1.5	0.1
0.01	1	0.154558116999397	1	87	177.032373939999	NA	1	0	1.62	1	166.02671228	166.181270396999	"7"	12432.994146544	12427.754596846	1.5	0.1
0.01	1	0.00394760199924349	1	87	177.032373939999	NA	1	0	1.62	1	166.410580352	166.414527953999	"7"	12432.994146544	12427.754596846	1.5	0.1
0.01	1	0.184235742000965	1	87	177.032373939999	NA	1	0	1.62	1	166.644341244999	166.828576987	"7"	12432.994146544	12427.754596846	1.5	0.1
0.01	1	0.00476412200077903	1	87	177.032373939999	NA	1	0	1.62	1	167.061767634999	167.066531757	"7"	12432.994146544	12427.754596846	1.5	0.1
0.01	1	0.189040047000162	1	87	177.032373939999	NA	1	0	1.62	1	167.295494529999	167.484534576999	"7"	12432.994146544	12427.754596846	1.5	0.1
0.01	1	0.00480557000082626	1	87	177.032373939999	NA	1	0	1.62	1	167.712786124999	167.717591695	"7"	12432.994146544	12427.754596846	1.5	0.1
0.01	1	0.178506509999352	1	87	177.032373939999	NA	1	0	1.62	1	167.946543374999	168.125049884999	"7"	12432.994146544	12427.754596846	1.5	0.1
0.01	1	0.00224434200026735	1	87	177.032373939999	NA	1	0	1.62	1	168.347100556999	168.349344898999	"7"	12432.994146544	12427.754596846	1.5	0.1
0.01	1	0.142654461000348	1	87	177.032373939999	NA	1	0	1.62	1	168.580954899999	168.723609360999	"7"	12432.994146544	12427.754596846	1.5	0.1
0.01	1	0.376551694998852	1	87	177.032373939999	NA	1	0	1.62	1	168.96483327	169.341384964999	"7"	12432.994146544	12427.754596846	1.5	0.1
0.01	1	0.00467758699960541	1	87	177.032373939999	NA	1	0	1.62	1	169.565943289999	169.570620876999	"7"	12432.994146544	12427.754596846	1.5	0.1
0.01	1	0.156629903000066	1	87	177.032373939999	NA	1	0	1.62	1	169.79969905	169.956328953	"7"	12432.994146544	12427.754596846	1.5	0.1
0.01	1	0.341678215001593	1	87	177.032373939999	NA	1	0	1.62	1	170.183581681998	170.525259897	"7"	12432.994146544	12427.754596846	1.5	0.1
0.01	1	0.00407115000052727	1	87	177.032373939999	NA	1	0	1.62	1	170.751178151999	170.755249301999	"7"	12432.994146544	12427.754596846	1.5	0.1
0.01	1	0.188597820000723	1	87	177.032373939999	NA	1	0	1.62	1	170.984983909999	171.17358173	"7"	12432.994146544	12427.754596846	1.5	0.1
0.01	1	0.00384017800024594	1	87	177.032373939999	NA	1	0	1.62	1	171.402344951999	171.406185129999	"7"	12432.994146544	12427.754596846	1.5	0.1
0.01	1	0.20845270099926	1	87	177.032373939999	NA	1	0	1.62	1	171.636006498	171.844459198999	"7"	12432.994146544	12427.754596846	1.5	0.1
0.01	1	0.00406734900025185	1	87	177.032373939999	NA	1	0	1.62	1	172.070113886999	172.074181235999	"7"	12432.994146544	12427.754596846	1.5	0.1
0.01	1	0.259674536999228	1	87	177.032373939999	NA	1	0	1.62	1	172.30386077	172.563535306999	"7"	12432.994146544	12427.754596846	1.5	0.1
0.01	1	0.00457984500098974	1	87	177.032373939999	NA	1	0	1.62	1	172.804798339999	172.809378185	"7"	12432.994146544	12427.754596846	1.5	0.1
0.01	1	0.198132488998453	1	87	177.032373939999	NA	1	0	1.62	1	173.03834024	173.236472728999	"7"	12432.994146544	12427.754596846	1.5	0.1
0.01	1	0.00466480700015381	1	87	177.032373939999	NA	1	0	1.62	1	173.472442282999	173.477107089999	"7"	12432.994146544	12427.754596846	1.5	0.1
0.01	1	0.187029003998759	1	87	177.032373939999	NA	1	0	1.62	1	173.706114895	173.893143898998	"7"	12432.994146544	12427.754596846	1.5	0.1
0.01	1	0.00380180199863389	1	87	177.032373939999	NA	1	0	1.62	1	174.12352569	174.127327491999	"7"	12432.994146544	12427.754596846	1.5	0.1
0.01	1	0.232357781998871	1	87	177.032373939999	NA	1	0	1.62	1	174.35725223	174.589610011999	"7"	12432.994146544	12427.754596846	1.5	0.1
0.01	1	0.00472615699982271	1	87	177.032373939999	NA	1	0	1.62	1	174.824717199999	174.829443356999	"7"	12432.994146544	12427.754596846	1.5	0.1
0.01	1	0.13819519000026	1	87	177.032373939999	NA	1	0	1.62	1	175.058433392	175.196628582	"7"	12432.994146544	12427.754596846	1.5	0.1
0.01	1	0.00403029699918989	1	87	177.032373939999	NA	1	0	1.62	1	175.425769685	175.429799981999	"7"	12432.994146544	12427.754596846	1.5	0.1
0.01	1	0.296592525999586	1	87	177.032373939999	NA	1	0	1.62	1	175.659560214999	175.956152740999	"7"	12432.994146544	12427.754596846	1.5	0.1
0.01	1	0.490291545000218	1	87	177.032373939999	NA	1	0	1.62	1	176.193688256999	176.683979801999	"7"	12432.994146544	12427.754596846	1.5	0.1
0.01	1	0.00466249499913829	1	87	177.032373939999	NA	1	0	1.62	1	176.911547225	176.916209719999	"7"	12432.994146544	12427.754596846	1.5	0.1
0.01	1	0.491098806998707	1	6	181.004828929999	NA	1	0	1.62	1	179.065228009	179.556326815999	"8"	12432.994146544	12427.754596846	1.5	0.1
0.01	1	0.132700788000875	1	6	181.004828929999	NA	1	0	1.62	1	179.783076275999	179.915777063999	"8"	12432.994146544	12427.754596846	1.5	0.1
0.01	1	0.0217411260000517	1	6	181.004828929999	NA	1	0	1.62	1	180.150299252	180.172040378	"8"	12432.994146544	12427.754596846	1.5	0.1
0.01	1	0.0199427609986742	1	6	181.004828929999	NA	1	0	1.62	1	180.400853985	180.420796745999	"8"	12432.994146544	12427.754596846	1.5	0.1
0.01	1	0.00444921300004353	1	6	181.004828929999	NA	1	0	1.62	1	180.651224722	180.655673935	"8"	12432.994146544	12427.754596846	1.5	0.1
0.01	1	0.00215209700036212	1	6	181.004828929999	NA	1	0	1.62	1	180.884917189	180.887069286	"8"	12432.994146544	12427.754596846	1.5	0.1
0.01	1	0.294889881999552	1	106	NA	216.486173673999	0	0.6	2.22	1	183.038594416999	183.333484298999	"9"	12432.994146544	12427.754596846	1.5	0.1
0.01	1	0.104536913000629	1	106	NA	216.486173673999	0	0.6	2.22	1	183.572803556999	183.67734047	"9"	12432.994146544	12427.754596846	1.5	0.1
0.01	1	0.112780645000385	1	106	NA	216.486173673999	0	0.6	2.22	1	183.906716726999	184.019497371999	"9"	12432.994146544	12427.754596846	1.5	0.1
0.01	1	0.0834755230007431	1	106	NA	216.486173673999	0	0.6	2.22	1	184.257317989999	184.340793513	"9"	12432.994146544	12427.754596846	1.5	0.1
0.01	1	0.118357061999632	1	106	NA	216.486173673999	0	0.6	2.22	1	184.574500249999	184.692857311999	"9"	12432.994146544	12427.754596846	1.5	0.1
0.01	1	0.151166665000346	1	106	NA	216.486173673999	0	0.6	2.22	1	184.925132274999	185.076298939999	"9"	12432.994146544	12427.754596846	1.5	0.1
0.01	1	0.0464173159998609	1	106	NA	216.486173673999	0	0.6	2.22	1	185.309046437	185.355463753	"9"	12432.994146544	12427.754596846	1.5	0.1
0.01	1	0.0587982299985015	1	106	NA	216.486173673999	0	0.6	2.22	1	185.592811515	185.651609744998	"9"	12432.994146544	12427.754596846	1.5	0.1
0.01	1	0.0717439939999167	1	106	NA	216.486173673999	0	0.6	2.22	1	185.876599834999	185.948343828999	"9"	12432.994146544	12427.754596846	1.5	0.1
0.01	1	0.107577715998559	1	106	NA	216.486173673999	0	0.6	2.22	1	186.17718649	186.284764205999	"9"	12432.994146544	12427.754596846	1.5	0.1
0.01	1	0.109921154000403	1	106	NA	216.486173673999	0	0.6	2.22	1	186.511117025999	186.621038179999	"9"	12432.994146544	12427.754596846	1.5	0.1
0.01	1	0.0868734329997096	1	106	NA	216.486173673999	0	0.6	2.22	1	186.861650291999	186.948523724999	"9"	12432.994146544	12427.754596846	1.5	0.1
0.01	1	0.106646381000246	1	106	NA	216.486173673999	0	0.6	2.22	1	187.17884316	187.285489541	"9"	12432.994146544	12427.754596846	1.5	0.1
0.01	1	0.107875272999081	1	106	NA	216.486173673999	0	0.6	2.22	1	187.512822032	187.620697304999	"9"	12432.994146544	12427.754596846	1.5	0.1
0.01	1	0.11870288099999	1	106	NA	216.486173673999	0	0.6	2.22	1	187.846607717	187.965310598	"9"	12432.994146544	12427.754596846	1.5	0.1
0.01	1	0.135938256998998	1	106	NA	216.486173673999	0	0.6	2.22	1	188.19742271	188.333360966999	"9"	12432.994146544	12427.754596846	1.5	0.1
0.01	1	0.137066911000147	1	106	NA	216.486173673999	0	0.6	2.22	1	188.564547264999	188.701614176	"9"	12432.994146544	12427.754596846	1.5	0.1
0.01	1	0.12858843200047	1	106	NA	216.486173673999	0	0.6	2.22	1	188.931798194999	189.060386626999	"9"	12432.994146544	12427.754596846	1.5	0.1
0.01	1	0.170657839000341	1	106	NA	216.486173673999	0	0.6	2.22	1	189.282411414999	189.453069253999	"9"	12432.994146544	12427.754596846	1.5	0.1
0.01	1	0.106138495000778	1	106	NA	216.486173673999	0	0.6	2.22	1	189.683053044999	189.78919154	"9"	12432.994146544	12427.754596846	1.5	0.1
0.01	1	0.114812169000288	1	106	NA	216.486173673999	0	0.6	2.22	1	190.016923244999	190.131735413999	"9"	12432.994146544	12427.754596846	1.5	0.1
0.01	1	0.100703734999115	1	106	NA	216.486173673999	0	0.6	2.22	1	190.367556517	190.468260251999	"9"	12432.994146544	12427.754596846	1.5	0.1
0.01	1	0.127847859001122	1	106	NA	216.486173673999	0	0.6	2.22	1	190.701445109999	190.829292969	"9"	12432.994146544	12427.754596846	1.5	0.1
0.01	1	0.183599743000741	1	106	NA	216.486173673999	0	0.6	2.22	1	191.052061024999	191.235660767999	"9"	12432.994146544	12427.754596846	1.5	0.1
0.01	1	0.166939977998481	1	106	NA	216.486173673999	0	0.6	2.22	1	191.469351017	191.636290994998	"9"	12432.994146544	12427.754596846	1.5	0.1
0.01	1	0.197687386000325	1	106	NA	216.486173673999	0	0.6	2.22	1	191.870093829999	192.067781215999	"9"	12432.994146544	12427.754596846	1.5	0.1
0.01	1	0.24437288900117	1	106	NA	216.486173673999	0	0.6	2.22	1	192.304302249999	192.548675139	"9"	12432.994146544	12427.754596846	1.5	0.1
0.01	1	0.127415299999484	1	106	NA	216.486173673999	0	0.6	2.22	1	192.78831421	192.915729509999	"9"	12432.994146544	12427.754596846	1.5	0.1
0.01	1	0.296720960001039	1	106	NA	216.486173673999	0	0.6	2.22	1	193.138846746999	193.435567707	"9"	12432.994146544	12427.754596846	1.5	0.1
0.01	1	0.380251287999272	1	106	NA	216.486173673999	0	0.6	2.22	1	193.656366069999	194.036617357999	"9"	12432.994146544	12427.754596846	1.5	0.1
0.01	1	0.178573163999317	1	106	NA	216.486173673999	0	0.6	2.22	1	194.27410083	194.452673993999	"9"	12432.994146544	12427.754596846	1.5	0.1
0.01	1	0.314748885000881	1	106	NA	216.486173673999	0	0.6	2.22	1	194.674820819999	194.989569705	"9"	12432.994146544	12427.754596846	1.5	0.1
0.01	1	0.338310418001129	1	106	NA	216.486173673999	0	0.6	2.22	1	195.225763229999	195.564073648	"9"	12432.994146544	12427.754596846	1.5	0.1
0.01	1	0.306253557000673	1	106	NA	216.486173673999	0	0.6	2.22	1	195.793311431999	196.099564988999	"9"	12432.994146544	12427.754596846	1.5	0.1
0.01	1	0.325164169000345	1	106	NA	216.486173673999	0	0.6	2.22	1	196.327626347	196.652790516	"9"	12432.994146544	12427.754596846	1.5	0.1
0.01	1	0.365868191998743	1	106	NA	216.486173673999	0	0.6	2.22	1	196.878454075	197.244322266999	"9"	12432.994146544	12427.754596846	1.5	0.1
0.01	1	0.356949462000557	1	106	NA	216.486173673999	0	0.6	2.22	1	197.479559559999	197.836509022	"9"	12432.994146544	12427.754596846	1.5	0.1
0.01	1	0.373306703999333	1	106	NA	216.486173673999	0	0.6	2.22	1	198.063859284999	198.437165988998	"9"	12432.994146544	12427.754596846	1.5	0.1
0.01	1	0.516818086000058	1	106	NA	216.486173673999	0	0.6	2.22	1	198.664774854999	199.181592940999	"9"	12432.994146544	12427.754596846	1.5	0.1
0.01	1	0.500179843000296	1	106	NA	216.486173673999	0	0.6	2.22	1	199.416090772	199.916270615	"9"	12432.994146544	12427.754596846	1.5	0.1
0.01	1	0.39892565000082	1	106	NA	216.486173673999	0	0.6	2.22	1	200.150642754999	200.549568405	"9"	12432.994146544	12427.754596846	1.5	0.1
0.01	1	0.474945560999913	1	106	NA	216.486173673999	0	0.6	2.22	1	200.785069046999	201.260014607999	"9"	12432.994146544	12427.754596846	1.5	0.1
0.01	1	0.583446071001163	1	106	NA	216.486173673999	0	0.6	2.22	1	201.486195706999	202.069641778	"9"	12432.994146544	12427.754596846	1.5	0.1
0.01	1	0.547728478000863	1	106	NA	216.486173673999	0	0.6	2.22	1	202.304317373999	202.852045852	"9"	12432.994146544	12427.754596846	1.5	0.1
0.01	1	0.482889117998639	1	106	NA	216.486173673999	0	0.6	2.22	1	203.088964847	203.571853964999	"9"	12432.994146544	12427.754596846	1.5	0.1
0.01	1	0.492986176999693	1	106	NA	216.486173673999	0	0.6	2.22	1	203.806853425	204.299839601999	"9"	12432.994146544	12427.754596846	1.5	0.1
0.01	1	0.528753345000951	1	106	NA	216.486173673999	0	0.6	2.22	1	204.524757441999	205.053510787	"9"	12432.994146544	12427.754596846	1.5	0.1
0.01	1	0.544312476000414	1	106	NA	216.486173673999	0	0.6	2.22	1	205.275991151999	205.820303627999	"9"	12432.994146544	12427.754596846	1.5	0.1
0.01	1	0.432620531999419	1	106	NA	216.486173673999	0	0.6	2.22	1	206.04397522	206.476595751999	"9"	12432.994146544	12427.754596846	1.5	0.1
0.01	1	0.741440999001497	1	106	NA	216.486173673999	0	0.6	2.22	1	206.711733884998	207.453174884	"9"	12432.994146544	12427.754596846	1.5	0.1
0.01	1	1.10869050300062	1	106	NA	216.486173673999	0	0.6	2.22	1	207.679983189999	208.788673693	"9"	12432.994146544	12427.754596846	1.5	0.1
0.01	1	0.572797779001121	1	106	NA	216.486173673999	0	0.6	2.22	1	209.015656656999	209.588454436	"9"	12432.994146544	12427.754596846	1.5	0.1
0.01	1	0.563954904000639	1	106	NA	216.486173673999	0	0.6	2.22	1	209.816931919999	210.380886823999	"9"	12432.994146544	12427.754596846	1.5	0.1
0.01	1	0.473970359000305	1	106	NA	216.486173673999	0	0.6	2.22	1	210.618302056999	211.092272415999	"9"	12432.994146544	12427.754596846	1.5	0.1
0.01	1	0.517877686999782	1	106	NA	216.486173673999	0	0.6	2.22	1	211.31943946	211.837317146999	"9"	12432.994146544	12427.754596846	1.5	0.1
0.01	1	0.518717270000707	1	106	NA	216.486173673999	0	0.6	2.22	1	212.070723184999	212.589440455	"9"	12432.994146544	12427.754596846	1.5	0.1
0.01	1	0.710538270001052	1	106	NA	216.486173673999	0	0.6	2.22	1	212.821988099999	213.53252637	"9"	12432.994146544	12427.754596846	1.5	0.1
0.01	1	0.583206753999548	1	106	NA	216.486173673999	0	0.6	2.22	1	213.77365447	214.356861224	"9"	12432.994146544	12427.754596846	1.5	0.1
0.01	1	0.420680911998716	1	106	NA	216.486173673999	0	0.6	2.22	1	214.591638725	215.012319636999	"9"	12432.994146544	12427.754596846	1.5	0.1
0.01	1	0.49744220499997	1	106	NA	216.486173673999	0	0.6	2.22	1	215.242759629999	215.740201834999	"9"	12432.994146544	12427.754596846	1.5	0.1
0.01	1	0.507380510000075	2	106	NA	216.486173673999	0	0.6	2.22	1	215.977229876999	216.484610386999	"9"	12432.994146544	12427.754596846	1.5	0.1
0.01	1	2.0578803999997	1	21	229.520565867	NA	1	0	2.22	1	218.53157322	220.589453619999	"10"	12432.994146544	12427.754596846	1.5	0.1
0.01	1	0.160777924000286	1	21	229.520565867	NA	1	0	2.22	1	220.818847535	220.979625459	"10"	12432.994146544	12427.754596846	1.5	0.1
0.01	1	0.208857515001	1	21	229.520565867	NA	1	0	2.22	1	221.219493789999	221.428351305	"10"	12432.994146544	12427.754596846	1.5	0.1
0.01	1	0.206438371000331	1	21	229.520565867	NA	1	0	2.22	1	221.653550876999	221.859989248	"10"	12432.994146544	12427.754596846	1.5	0.1
0.01	1	0.188295908001237	1	21	229.520565867	NA	1	0	2.22	1	222.087566164999	222.275862073	"10"	12432.994146544	12427.754596846	1.5	0.1
0.01	1	0.21121262700035	1	21	229.520565867	NA	1	0	2.22	1	222.50495318	222.716165807	"10"	12432.994146544	12427.754596846	1.5	0.1
0.01	1	0.2341831979993	1	21	229.520565867	NA	1	0	2.22	1	222.93904026	223.173223457999	"10"	12432.994146544	12427.754596846	1.5	0.1
0.01	1	0.165256523001517	1	21	229.520565867	NA	1	0	2.22	1	223.406450126999	223.57170665	"10"	12432.994146544	12427.754596846	1.5	0.1
0.01	1	0.205077949000042	1	21	229.520565867	NA	1	0	2.22	1	223.807202954999	224.012280903999	"10"	12432.994146544	12427.754596846	1.5	0.1
0.01	1	0.219629559000168	1	21	229.520565867	NA	1	0	2.22	1	224.241229174999	224.460858733999	"10"	12432.994146544	12427.754596846	1.5	0.1
0.01	1	0.192062140000417	1	21	229.520565867	NA	1	0	2.22	1	224.691958689999	224.884020829999	"10"	12432.994146544	12427.754596846	1.5	0.1
0.01	1	0.247055773999818	1	21	229.520565867	NA	1	0	2.22	1	225.109359099999	225.356414873999	"10"	12432.994146544	12427.754596846	1.5	0.1
0.01	1	0.179145396001331	1	21	229.520565867	NA	1	0	2.22	1	225.593509941998	225.772655338	"10"	12432.994146544	12427.754596846	1.5	0.1
0.01	1	0.178341475000707	1	21	229.520565867	NA	1	0	2.22	1	226.010863731999	226.189205207	"10"	12432.994146544	12427.754596846	1.5	0.1
0.01	1	0.26450893800029	1	21	229.520565867	NA	1	0	2.22	1	226.411536447	226.676045385	"10"	12432.994146544	12427.754596846	1.5	0.1
0.01	1	0.203399543999694	1	21	229.520565867	NA	1	0	2.22	1	226.91232478	227.115724324	"10"	12432.994146544	12427.754596846	1.5	0.1
0.01	1	0.281000003000372	1	21	229.520565867	NA	1	0	2.22	1	227.346505554999	227.627505557999	"10"	12432.994146544	12427.754596846	1.5	0.1
0.01	1	0.204837242999929	1	21	229.520565867	NA	1	0	2.22	1	227.863929035	228.068766278	"10"	12432.994146544	12427.754596846	1.5	0.1
0.01	1	0.203094794000208	1	21	229.520565867	NA	1	0	2.22	1	228.298043524999	228.501138318999	"10"	12432.994146544	12427.754596846	1.5	0.1
0.01	1	0.192270806999659	1	21	229.520565867	NA	1	0	2.22	1	228.732097425	228.924368231999	"10"	12432.994146544	12427.754596846	1.5	0.1
0.01	1	0.262302171000556	1	21	229.520565867	NA	1	0	2.22	1	229.149414449999	229.411716621	"10"	12432.994146544	12427.754596846	1.5	0.1
0.01	1	0.00449484999990091	1	19	239.302896615	NA	1	0	2.22	1	231.570231905	231.574726755	"11"	12432.994146544	12427.754596846	1.5	0.1
0.01	1	0.0483594199995423	1	19	239.302896615	NA	1	0	2.22	1	231.803906812	231.852266231999	"11"	12432.994146544	12427.754596846	1.5	0.1
0.01	1	0.0932074200009083	1	19	239.302896615	NA	1	0	2.22	1	232.087804254999	232.181011675	"11"	12432.994146544	12427.754596846	1.5	0.1
0.01	1	0.174784906999776	1	19	239.302896615	NA	1	0	2.22	1	232.405104815	232.579889721999	"11"	12432.994146544	12427.754596846	1.5	0.1
0.01	1	0.239413412999056	1	19	239.302896615	NA	1	0	2.22	1	232.805647906	233.045061318999	"11"	12432.994146544	12427.754596846	1.5	0.1
0.01	1	0.274867268999515	1	19	239.302896615	NA	1	0	2.22	1	233.27311308	233.547980349	"11"	12432.994146544	12427.754596846	1.5	0.1
0.01	1	0.231482576000417	1	19	239.302896615	NA	1	0	2.22	1	233.77390717	234.005389746	"11"	12432.994146544	12427.754596846	1.5	0.1
0.01	1	0.20314707199941	1	19	239.302896615	NA	1	0	2.22	1	234.241318925	234.444465996999	"11"	12432.994146544	12427.754596846	1.5	0.1
0.01	1	0.185646038000414	1	19	239.302896615	NA	1	0	2.22	1	234.675417555	234.861063593	"11"	12432.994146544	12427.754596846	1.5	0.1
0.01	1	0.183093679999729	1	19	239.302896615	NA	1	0	2.22	1	235.092873095	235.275966775	"11"	12432.994146544	12427.754596846	1.5	0.1
0.01	1	0.237606632999814	1	19	239.302896615	NA	1	0	2.22	1	235.510129251999	235.747735884999	"11"	12432.994146544	12427.754596846	1.5	0.1
0.01	1	0.154747966000286	1	19	239.302896615	NA	1	0	2.22	1	235.977539289999	236.132287255999	"11"	12432.994146544	12427.754596846	1.5	0.1
0.01	1	0.259183936999761	1	19	239.302896615	NA	1	0	2.22	1	236.361601114999	236.620785051999	"11"	12432.994146544	12427.754596846	1.5	0.1
0.01	1	0.150127918999715	1	19	239.302896615	NA	1	0	2.22	1	236.845757502999	236.995885421999	"11"	12432.994146544	12427.754596846	1.5	0.1
0.01	1	0.174978680999629	1	19	239.302896615	NA	1	0	2.22	1	237.229666415	237.404645096	"11"	12432.994146544	12427.754596846	1.5	0.1
0.01	1	0.246779778000928	1	19	239.302896615	NA	1	0	2.22	1	237.630437029999	237.877216808	"11"	12432.994146544	12427.754596846	1.5	0.1
0.01	1	0.194485301999521	1	19	239.302896615	NA	1	0	2.22	1	238.114507631999	238.308992933999	"11"	12432.994146544	12427.754596846	1.5	0.1
0.01	1	0.200561141000435	1	19	239.302896615	NA	1	0	2.22	1	238.531874184999	238.732435325999	"11"	12432.994146544	12427.754596846	1.5	0.1
0.01	1	0.215014814999449	1	19	239.302896615	NA	1	0	2.22	1	238.965936074999	239.180950889999	"11"	12432.994146544	12427.754596846	1.5	0.1
0.01	1	0.251385687999573	1	63	NA	262.342868729	0	0.4	2.62	1	241.336805319999	241.588191007999	"12"	12432.994146544	12427.754596846	1.5	0.1
0.01	1	0.0326515469987498	1	63	NA	262.342868729	0	0.4	2.62	1	241.82071776	241.853369306999	"12"	12432.994146544	12427.754596846	1.5	0.1
0.01	1	0.0852895320003881	1	63	NA	262.342868729	0	0.4	2.62	1	242.087905319999	242.173194851999	"12"	12432.994146544	12427.754596846	1.5	0.1
0.01	1	0.0947668759999942	1	63	NA	262.342868729	0	0.4	2.62	1	242.405075354	242.49984223	"12"	12432.994146544	12427.754596846	1.5	0.1
0.01	1	0.105795888999637	1	63	NA	262.342868729	0	0.4	2.62	1	242.722286374999	242.828082263999	"12"	12432.994146544	12427.754596846	1.5	0.1
0.01	1	0.0840893050008162	1	63	NA	262.342868729	0	0.4	2.62	1	243.056118659999	243.140207965	"12"	12432.994146544	12427.754596846	1.5	0.1
0.01	1	0.0943910519999918	1	63	NA	262.342868729	0	0.4	2.62	1	243.373438511999	243.467829563999	"12"	12432.994146544	12427.754596846	1.5	0.1
0.01	1	0.0897871069992107	1	63	NA	262.342868729	0	0.4	2.62	1	243.690572179999	243.780359286999	"12"	12432.994146544	12427.754596846	1.5	0.1
0.01	1	0.101329459001136	1	63	NA	262.342868729	0	0.4	2.62	1	244.007854779999	244.109184239	"12"	12432.994146544	12427.754596846	1.5	0.1
0.01	1	0.054287919001581	1	63	NA	262.342868729	0	0.4	2.62	1	244.341722874999	244.396010794	"12"	12432.994146544	12427.754596846	1.5	0.1
0.01	1	0.0911036289999174	1	63	NA	262.342868729	0	0.4	2.62	1	244.625549406999	244.716653035999	"12"	12432.994146544	12427.754596846	1.5	0.1
0.01	1	0.11067301500043	1	63	NA	262.342868729	0	0.4	2.62	1	244.942785345	245.05345836	"12"	12432.994146544	12427.754596846	1.5	0.1
0.01	1	0.0790814829997544	1	63	NA	262.342868729	0	0.4	2.62	1	245.276545575	245.355627057999	"12"	12432.994146544	12427.754596846	1.5	0.1
0.01	1	0.0838838260006014	1	63	NA	262.342868729	0	0.4	2.62	1	245.593717701999	245.677601527999	"12"	12432.994146544	12427.754596846	1.5	0.1
0.01	1	0.125802292999651	1	63	NA	262.342868729	0	0.4	2.62	1	245.911008592	246.036810885	"12"	12432.994146544	12427.754596846	1.5	0.1
0.01	1	0.118818988999919	1	63	NA	262.342868729	0	0.4	2.62	1	246.261499886999	246.380318875999	"12"	12432.994146544	12427.754596846	1.5	0.1
0.01	1	0.159989903000678	1	63	NA	262.342868729	0	0.4	2.62	1	246.612224229999	246.772214133	"12"	12432.994146544	12427.754596846	1.5	0.1
0.01	1	0.184924356999545	1	63	NA	262.342868729	0	0.4	2.62	1	246.99623649	247.181160847	"12"	12432.994146544	12427.754596846	1.5	0.1
0.01	1	0.142919841000548	1	63	NA	262.342868729	0	0.4	2.62	1	247.413484196999	247.556404038	"12"	12432.994146544	12427.754596846	1.5	0.1
0.01	1	0.160411012999248	1	63	NA	262.342868729	0	0.4	2.62	1	247.797485331999	247.957896344999	"12"	12432.994146544	12427.754596846	1.5	0.1
0.01	1	0.207814129000326	1	63	NA	262.342868729	0	0.4	2.62	1	248.1814239	248.389238029	"12"	12432.994146544	12427.754596846	1.5	0.1
0.01	1	0.38810191399898	1	63	NA	262.342868729	0	0.4	2.62	1	248.615518572	249.003620485999	"12"	12432.994146544	12427.754596846	1.5	0.1
0.01	1	0.404054825999992	1	63	NA	262.342868729	0	0.4	2.62	1	249.233252672	249.637307498	"12"	12432.994146544	12427.754596846	1.5	0.1
0.01	1	0.488105293999979	1	63	NA	262.342868729	0	0.4	2.62	1	249.867769319999	250.355874613999	"12"	12432.994146544	12427.754596846	1.5	0.1
0.01	1	0.450549127999693	1	63	NA	262.342868729	0	0.4	2.62	1	250.585541356999	251.036090484999	"12"	12432.994146544	12427.754596846	1.5	0.1
0.01	1	0.422918509000738	1	63	NA	262.342868729	0	0.4	2.62	1	251.270067269999	251.692985779	"12"	12432.994146544	12427.754596846	1.5	0.1
0.01	1	0.371546921998743	1	63	NA	262.342868729	0	0.4	2.62	1	251.921051997	252.292598918999	"12"	12432.994146544	12427.754596846	1.5	0.1
0.01	1	0.377544573000705	1	63	NA	262.342868729	0	0.4	2.62	1	252.522134744999	252.899679317999	"12"	12432.994146544	12427.754596846	1.5	0.1
0.01	1	0.473186848001205	1	63	NA	262.342868729	0	0.4	2.62	1	253.123105806999	253.596292655	"12"	12432.994146544	12427.754596846	1.5	0.1
0.01	1	0.435596569001063	1	63	NA	262.342868729	0	0.4	2.62	1	253.824369766999	254.259966336	"12"	12432.994146544	12427.754596846	1.5	0.1
0.01	1	0.369686949999959	1	63	NA	262.342868729	0	0.4	2.62	1	254.492044257	254.861731207	"12"	12432.994146544	12427.754596846	1.5	0.1
0.01	1	0.390492566999455	1	63	NA	262.342868729	0	0.4	2.62	1	255.093167277	255.483659844	"12"	12432.994146544	12427.754596846	1.5	0.1
0.01	1	0.438813830000072	1	63	NA	262.342868729	0	0.4	2.62	1	255.71074323	256.14955706	"12"	12432.994146544	12427.754596846	1.5	0.1
0.01	1	0.362988730001234	1	63	NA	262.342868729	0	0.4	2.62	1	256.378608019999	256.74159675	"12"	12432.994146544	12427.754596846	1.5	0.1
0.01	1	0.00404023500050243	1	63	NA	262.342868729	0	0.4	2.62	1	256.979611196999	256.983651432	"12"	12432.994146544	12427.754596846	1.5	0.1
0.01	1	0.183828028000789	1	63	NA	262.342868729	0	0.4	2.62	1	257.213357081999	257.39718511	"12"	12432.994146544	12427.754596846	1.5	0.1
0.01	1	0.557808384999589	1	63	NA	262.342868729	0	0.4	2.62	1	257.63066164	258.188470024999	"12"	12432.994146544	12427.754596846	1.5	0.1
0.01	1	0.566197332000229	1	63	NA	262.342868729	0	0.4	2.62	1	258.415374175	258.981571507	"12"	12432.994146544	12427.754596846	1.5	0.1
0.01	1	0.907989658999213	1	63	NA	262.342868729	0	0.4	2.62	1	259.216746919999	260.124736578999	"12"	12432.994146544	12427.754596846	1.5	0.1
0.01	1	0.523809669999537	1	63	NA	262.342868729	0	0.4	2.62	1	260.352010536999	260.875820206998	"12"	12432.994146544	12427.754596846	1.5	0.1
0.01	1	1.23807282500093	2	63	NA	262.342868729	0	0.4	2.62	1	261.103226719999	262.341299545	"12"	12432.994146544	12427.754596846	1.5	0.1
0.01	1	0.0518302220007172	1	54	NA	280.198435098	0	0.53	3.15	1	264.392086329999	264.443916552	"13"	12432.994146544	12427.754596846	1.5	0.1
0.01	1	0.113084655000421	1	54	NA	280.198435098	0	0.53	3.15	1	264.675936824999	264.789021479999	"13"	12432.994146544	12427.754596846	1.5	0.1
0.01	1	0.129455969999981	1	54	NA	280.198435098	0	0.53	3.15	1	265.026538765	265.155994735	"13"	12432.994146544	12427.754596846	1.5	0.1
0.01	1	0.12194936800006	1	54	NA	280.198435098	0	0.53	3.15	1	265.393827467	265.515776835	"13"	12432.994146544	12427.754596846	1.5	0.1
0.01	1	0.131477647999418	1	54	NA	280.198435098	0	0.53	3.15	1	265.744321635	265.875799283	"13"	12432.994146544	12427.754596846	1.5	0.1
0.01	1	0.109687069998472	1	54	NA	280.198435098	0	0.53	3.15	1	266.111666085	266.221353154999	"13"	12432.994146544	12427.754596846	1.5	0.1
0.01	1	0.151582548000079	1	54	NA	280.198435098	0	0.53	3.15	1	266.445560299999	266.597142847999	"13"	12432.994146544	12427.754596846	1.5	0.1
0.01	1	0.11077386100078	1	54	NA	280.198435098	0	0.53	3.15	1	266.829591484999	266.940365345999	"13"	12432.994146544	12427.754596846	1.5	0.1
0.01	1	0.113437363999765	1	54	NA	280.198435098	0	0.53	3.15	1	267.1633805	267.276817864	"13"	12432.994146544	12427.754596846	1.5	0.1
0.01	1	0.0509399510010553	1	54	NA	280.198435098	0	0.53	3.15	1	267.514020536999	267.564960488	"13"	12432.994146544	12427.754596846	1.5	0.1
0.01	1	0.0543223330005276	1	54	NA	280.198435098	0	0.53	3.15	1	267.797713234999	267.852035567999	"13"	12432.994146544	12427.754596846	1.5	0.1
0.01	1	0.0195989840012771	1	54	NA	280.198435098	0	0.53	3.15	1	268.081627894999	268.101226879	"13"	12432.994146544	12427.754596846	1.5	0.1
0.01	1	0.00320189000012761	1	54	NA	280.198435098	0	0.53	3.15	1	268.332018547999	268.335220437999	"13"	12432.994146544	12427.754596846	1.5	0.1
0.01	1	0.00472866000018257	1	54	NA	280.198435098	0	0.53	3.15	1	268.565790619999	268.57051928	"13"	12432.994146544	12427.754596846	1.5	0.1
0.01	1	0.00390932700065605	1	54	NA	280.198435098	0	0.53	3.15	1	268.799543604999	268.803452931999	"13"	12432.994146544	12427.754596846	1.5	0.1
0.01	1	0.11501201000101	1	54	NA	280.198435098	0	0.53	3.15	1	269.033217869999	269.14822988	"13"	12432.994146544	12427.754596846	1.5	0.1
0.01	1	0.00207057800071198	1	54	NA	280.198435098	0	0.53	3.15	1	269.383829394999	269.385899973	"13"	12432.994146544	12427.754596846	1.5	0.1
0.01	1	0.00207951700031117	1	54	NA	280.198435098	0	0.53	3.15	1	269.617565477	269.619644994	"13"	12432.994146544	12427.754596846	1.5	0.1
0.01	1	0.120815423000749	1	54	NA	280.198435098	0	0.53	3.15	1	269.851184618999	269.972000042	"13"	12432.994146544	12427.754596846	1.5	0.1
0.01	1	0.00304924000010942	1	54	NA	280.198435098	0	0.53	3.15	1	270.201832928	270.204882168	"13"	12432.994146544	12427.754596846	1.5	0.1
0.01	1	0.00225755299834418	1	54	NA	280.198435098	0	0.53	3.15	1	270.435602325	270.437859877999	"13"	12432.994146544	12427.754596846	1.5	0.1
0.01	1	0.00235124299979361	1	54	NA	280.198435098	0	0.53	3.15	1	270.669389331999	270.671740574999	"13"	12432.994146544	12427.754596846	1.5	0.1
0.01	1	0.00403898900003696	1	54	NA	280.198435098	0	0.53	3.15	1	270.903040784999	270.907079773999	"13"	12432.994146544	12427.754596846	1.5	0.1
0.01	1	0.00399355799891055	1	54	NA	280.198435098	0	0.53	3.15	1	271.13667611	271.140669667999	"13"	12432.994146544	12427.754596846	1.5	0.1
0.01	1	0.00394336299905262	1	54	NA	280.198435098	0	0.53	3.15	1	271.370598005	271.374541367999	"13"	12432.994146544	12427.754596846	1.5	0.1
0.01	1	0.0963049999991199	1	54	NA	280.198435098	0	0.53	3.15	1	271.604165246999	271.700470246999	"13"	12432.994146544	12427.754596846	1.5	0.1
0.01	1	0.00413601500076766	1	54	NA	280.198435098	0	0.53	3.15	1	271.938133144999	271.942269159999	"13"	12432.994146544	12427.754596846	1.5	0.1
0.01	1	0.0021255130013742	1	54	NA	280.198435098	0	0.53	3.15	1	272.171824395999	272.173949909	"13"	12432.994146544	12427.754596846	1.5	0.1
0.01	1	0.00213596199864696	1	54	NA	280.198435098	0	0.53	3.15	1	272.405585065	272.407721026999	"13"	12432.994146544	12427.754596846	1.5	0.1
0.01	1	0.00228914800027269	1	54	NA	280.198435098	0	0.53	3.15	1	272.639230119999	272.641519268	"13"	12432.994146544	12427.754596846	1.5	0.1
0.01	1	0.0122443749987724	1	54	NA	280.198435098	0	0.53	3.15	1	272.872957222	272.885201596999	"13"	12432.994146544	12427.754596846	1.5	0.1
0.01	1	0.169016166000802	1	54	NA	280.198435098	0	0.53	3.15	1	273.123465449999	273.292481615999	"13"	12432.994146544	12427.754596846	1.5	0.1
0.01	1	0.0653100380004616	1	54	NA	280.198435098	0	0.53	3.15	1	273.524067171998	273.589377209999	"13"	12432.994146544	12427.754596846	1.5	0.1
0.01	1	0.0274921669988544	1	54	NA	280.198435098	0	0.53	3.15	1	273.824563937	273.852056103999	"13"	12432.994146544	12427.754596846	1.5	0.1
0.01	1	0.0177701390002767	1	54	NA	280.198435098	0	0.53	3.15	1	274.074953084999	274.092723223999	"13"	12432.994146544	12427.754596846	1.5	0.1
0.01	1	0.0157998229988152	1	54	NA	280.198435098	0	0.53	3.15	1	274.325439262	274.341239084999	"13"	12432.994146544	12427.754596846	1.5	0.1
0.01	1	0.043563801998971	1	54	NA	280.198435098	0	0.53	3.15	1	274.575904776	274.619468577999	"13"	12432.994146544	12427.754596846	1.5	0.1
0.01	1	0.0427172079998854	1	54	NA	280.198435098	0	0.53	3.15	1	274.84294017	274.885657377999	"13"	12432.994146544	12427.754596846	1.5	0.1
0.01	1	0.0533181789996888	1	54	NA	280.198435098	0	0.53	3.15	1	275.110111405	275.163429583999	"13"	12432.994146544	12427.754596846	1.5	0.1
0.01	1	0.194284122000681	1	54	NA	280.198435098	0	0.53	3.15	1	275.393901019999	275.588185142	"13"	12432.994146544	12427.754596846	1.5	0.1
0.01	1	0.54513697999937	1	54	NA	280.198435098	0	0.53	3.15	1	275.81125277	276.356389749999	"13"	12432.994146544	12427.754596846	1.5	0.1
0.01	1	0.0329398100002436	1	54	NA	280.198435098	0	0.53	3.15	1	276.595927077	276.628866887	"13"	12432.994146544	12427.754596846	1.5	0.1
0.01	1	0.0134044860005815	1	54	NA	280.198435098	0	0.53	3.15	1	276.863006756999	276.876411243	"13"	12432.994146544	12427.754596846	1.5	0.1
0.01	1	0.00413419799951953	1	54	NA	280.198435098	0	0.53	3.15	1	277.113420539999	277.117554737999	"13"	12432.994146544	12427.754596846	1.5	0.1
0.01	1	0.0483053480002127	1	54	NA	280.198435098	0	0.53	3.15	1	277.347259347	277.395564695	"13"	12432.994146544	12427.754596846	1.5	0.1
0.01	1	0.0544299900011538	1	54	NA	280.198435098	0	0.53	3.15	1	277.631063944998	277.685493935	"13"	12432.994146544	12427.754596846	1.5	0.1
0.01	1	0.0974119430011342	1	54	NA	280.198435098	0	0.53	3.15	1	277.914856194999	278.012268138	"13"	12432.994146544	12427.754596846	1.5	0.1
0.01	1	0.0429844520003826	1	54	NA	280.198435098	0	0.53	3.15	1	278.248923674999	278.291908126999	"13"	12432.994146544	12427.754596846	1.5	0.1
0.01	1	0.0733282340006554	1	54	NA	280.198435098	0	0.53	3.15	1	278.515782466999	278.589110700999	"13"	12432.994146544	12427.754596846	1.5	0.1
0.01	1	0.0595615250003902	1	54	NA	280.198435098	0	0.53	3.15	1	278.816336509999	278.875898034999	"13"	12432.994146544	12427.754596846	1.5	0.1
0.01	1	0.0795153279996157	1	54	NA	280.198435098	0	0.53	3.15	1	279.100078166999	279.179593494999	"13"	12432.994146544	12427.754596846	1.5	0.1
0.01	1	0.0426432530002785	1	54	NA	280.198435098	0	0.53	3.15	1	279.417365251998	279.460008504999	"13"	12432.994146544	12427.754596846	1.5	0.1
0.01	1	0.152135581000039	1	54	NA	280.198435098	0	0.53	3.15	1	279.684384676999	279.836520257999	"13"	12432.994146544	12427.754596846	1.5	0.1
0.01	1	0.128407899999729	2	54	NA	280.198435098	0	0.53	3.15	1	280.068501315	280.196909214999	"13"	12432.994146544	12427.754596846	1.5	0.1
0.01	1	0.133622776000266	1	103	NA	297.582978537999	0	0.59	3.74	1	282.222094799999	282.355717576	"14"	12432.994146544	12427.754596846	1.5	0.1
0.01	1	0.00205379600083688	1	103	NA	297.582978537999	0	0.59	3.74	1	282.589337003999	282.5913908	"14"	12432.994146544	12427.754596846	1.5	0.1
0.01	1	0.00404462799997418	1	103	NA	297.582978537999	0	0.59	3.74	1	282.82312368	282.827168308	"14"	12432.994146544	12427.754596846	1.5	0.1
0.01	1	0.0513993250006024	1	103	NA	297.582978537999	0	0.59	3.74	1	283.056766971999	283.108166296999	"14"	12432.994146544	12427.754596846	1.5	0.1
0.01	1	0.00411834300030023	1	103	NA	297.582978537999	0	0.59	3.74	1	283.340583374998	283.344701717999	"14"	12432.994146544	12427.754596846	1.5	0.1
0.01	1	0.0211885870012338	1	103	NA	297.582978537999	0	0.59	3.74	1	283.574293636999	283.595482224	"14"	12432.994146544	12427.754596846	1.5	0.1
0.01	1	0.00394931000118959	1	103	NA	297.582978537999	0	0.59	3.74	1	283.824689019999	283.82863833	"14"	12432.994146544	12427.754596846	1.5	0.1
0.01	1	0.0179040639995947	1	103	NA	297.582978537999	0	0.59	3.74	1	284.05848281	284.076386874	"14"	12432.994146544	12427.754596846	1.5	0.1
0.01	1	0.00208797999948729	1	103	NA	297.582978537999	0	0.59	3.74	1	284.308910287	284.310998266999	"14"	12432.994146544	12427.754596846	1.5	0.1
0.01	1	0.00395681700138084	1	103	NA	297.582978537999	0	0.59	3.74	1	284.542680744999	284.546637562	"14"	12432.994146544	12427.754596846	1.5	0.1
0.01	1	0.00404057100058708	1	103	NA	297.582978537999	0	0.59	3.74	1	284.776295566999	284.780336137999	"14"	12432.994146544	12427.754596846	1.5	0.1
0.01	1	0.0507221979987662	1	103	NA	297.582978537999	0	0.59	3.74	1	285.010062657	285.060784854999	"14"	12432.994146544	12427.754596846	1.5	0.1
0.01	1	0.00441972399858059	1	103	NA	297.582978537999	0	0.59	3.74	1	285.293928543	285.298348266999	"14"	12432.994146544	12427.754596846	1.5	0.1
0.01	1	0.00409242299974721	1	103	NA	297.582978537999	0	0.59	3.74	1	285.527595576999	285.531687999999	"14"	12432.994146544	12427.754596846	1.5	0.1
0.01	1	0.0194420529987838	1	103	NA	297.582978537999	0	0.59	3.74	1	285.76141098	285.780853032998	"14"	12432.994146544	12427.754596846	1.5	0.1
0.01	1	0.00207677599973977	1	103	NA	297.582978537999	0	0.59	3.74	1	286.011782419	286.013859195	"14"	12432.994146544	12427.754596846	1.5	0.1
0.01	1	0.00381054799981939	1	103	NA	297.582978537999	0	0.59	3.74	1	286.24558173	286.249392278	"14"	12432.994146544	12427.754596846	1.5	0.1
0.01	1	0.0781364769991342	1	103	NA	297.582978537999	0	0.59	3.74	1	286.479249135	286.557385611999	"14"	12432.994146544	12427.754596846	1.5	0.1
0.01	1	0.00446006399943144	1	103	NA	297.582978537999	0	0.59	3.74	1	286.779713735999	286.784173799999	"14"	12432.994146544	12427.754596846	1.5	0.1
0.01	1	0.0626012590000755	1	103	NA	297.582978537999	0	0.59	3.74	1	287.013474404999	287.076075663999	"14"	12432.994146544	12427.754596846	1.5	0.1
0.01	1	0.00409739200040349	1	103	NA	297.582978537999	0	0.59	3.74	1	287.313903749999	287.318001141999	"14"	12432.994146544	12427.754596846	1.5	0.1
0.01	1	0.0962727469996025	1	103	NA	297.582978537999	0	0.59	3.74	1	287.547816414999	287.644089161999	"14"	12432.994146544	12427.754596846	1.5	0.1
0.01	1	0.00224696599980234	1	103	NA	297.582978537999	0	0.59	3.74	1	287.881706278	287.883953244	"14"	12432.994146544	12427.754596846	1.5	0.1
0.01	1	0.00207352500001434	1	103	NA	297.582978537999	0	0.59	3.74	1	288.115267679999	288.117341204999	"14"	12432.994146544	12427.754596846	1.5	0.1
0.01	1	0.112171834000037	1	103	NA	297.582978537999	0	0.59	3.74	1	288.348970514999	288.461142348999	"14"	12432.994146544	12427.754596846	1.5	0.1
0.01	1	0.00453190299958806	1	103	NA	297.582978537999	0	0.59	3.74	1	288.699593511999	288.704125414999	"14"	12432.994146544	12427.754596846	1.5	0.1
0.01	1	0.0718321149997792	1	103	NA	297.582978537999	0	0.59	3.74	1	288.933308599999	289.005140714999	"14"	12432.994146544	12427.754596846	1.5	0.1
0.01	1	0.00473354200039466	1	103	NA	297.582978537999	0	0.59	3.74	1	289.233936449999	289.238669991999	"14"	12432.994146544	12427.754596846	1.5	0.1
0.01	1	0.00397090499973274	1	103	NA	297.582978537999	0	0.59	3.74	1	289.467603207	289.471574112	"14"	12432.994146544	12427.754596846	1.5	0.1
0.01	1	0.00402357200073311	1	103	NA	297.582978537999	0	0.59	3.74	1	289.701276289999	289.705299862	"14"	12432.994146544	12427.754596846	1.5	0.1
0.01	1	0.00389689300027385	1	103	NA	297.582978537999	0	0.59	3.74	1	289.935059874999	289.938956767999	"14"	12432.994146544	12427.754596846	1.5	0.1
0.01	1	0.108160498999496	1	103	NA	297.582978537999	0	0.59	3.74	1	290.168789809999	290.276950308998	"14"	12432.994146544	12427.754596846	1.5	0.1
0.01	1	0.01407480799935	1	103	NA	297.582978537999	0	0.59	3.74	1	290.502734449999	290.516809257999	"14"	12432.994146544	12427.754596846	1.5	0.1
0.01	1	0.00476899499881256	1	103	NA	297.582978537999	0	0.59	3.74	1	290.753150945	290.757919939999	"14"	12432.994146544	12427.754596846	1.5	0.1
0.01	1	0.00215152099917759	1	103	NA	297.582978537999	0	0.59	3.74	1	290.986912435999	290.989063956999	"14"	12432.994146544	12427.754596846	1.5	0.1
0.01	1	0.0886664250010654	1	103	NA	297.582978537999	0	0.59	3.74	1	291.220538546999	291.309204972	"14"	12432.994146544	12427.754596846	1.5	0.1
0.01	1	0.00396577200081083	1	103	NA	297.582978537999	0	0.59	3.74	1	291.537754409999	291.541720182	"14"	12432.994146544	12427.754596846	1.5	0.1
0.01	1	0.00409660100012843	1	103	NA	297.582978537999	0	0.59	3.74	1	291.771501697	291.775598298	"14"	12432.994146544	12427.754596846	1.5	0.1
0.01	1	0.00403091599946492	1	103	NA	297.582978537999	0	0.59	3.74	1	292.00518319	292.009214105999	"14"	12432.994146544	12427.754596846	1.5	0.1
0.01	1	0.00392121299955761	1	103	NA	297.582978537999	0	0.59	3.74	1	292.238922867	292.242844079999	"14"	12432.994146544	12427.754596846	1.5	0.1
0.01	1	0.0922059820004506	1	103	NA	297.582978537999	0	0.59	3.74	1	292.472634256999	292.564840239	"14"	12432.994146544	12427.754596846	1.5	0.1
0.01	1	0.0156270050010789	1	103	NA	297.582978537999	0	0.59	3.74	1	292.789845084999	292.80547209	"14"	12432.994146544	12427.754596846	1.5	0.1
0.01	1	0.0120842729993456	1	103	NA	297.582978537999	0	0.59	3.74	1	293.040249745	293.052334017999	"14"	12432.994146544	12427.754596846	1.5	0.1
0.01	1	0.00227851800082135	1	103	NA	297.582978537999	0	0.59	3.74	1	293.290677580999	293.292956099	"14"	12432.994146544	12427.754596846	1.5	0.1
0.01	1	0.00221776500075066	1	103	NA	297.582978537999	0	0.59	3.74	1	293.524416286999	293.526634051999	"14"	12432.994146544	12427.754596846	1.5	0.1
0.01	1	0.13346164900031	1	103	NA	297.582978537999	0	0.59	3.74	1	293.758198975	293.891660624	"14"	12432.994146544	12427.754596846	1.5	0.1
0.01	1	0.0481501650010614	1	103	NA	297.582978537999	0	0.59	3.74	1	294.125413549998	294.173563715	"14"	12432.994146544	12427.754596846	1.5	0.1
0.01	1	0.00314832200092496	1	103	NA	297.582978537999	0	0.59	3.74	1	294.409149183999	294.412297506	"14"	12432.994146544	12427.754596846	1.5	0.1
0.01	1	0.00212335200012603	1	103	NA	297.582978537999	0	0.59	3.74	1	294.643013866	294.645137218	"14"	12432.994146544	12427.754596846	1.5	0.1
0.01	1	0.00947816400002921	1	103	NA	297.582978537999	0	0.59	3.74	1	294.876700252	294.886178416	"14"	12432.994146544	12427.754596846	1.5	0.1
0.01	1	0.00207354999838572	1	103	NA	297.582978537999	0	0.59	3.74	1	295.11045541	295.112528959999	"14"	12432.994146544	12427.754596846	1.5	0.1
0.01	1	0.00364672900104779	1	103	NA	297.582978537999	0	0.59	3.74	1	295.344166016999	295.347812746	"14"	12432.994146544	12427.754596846	1.5	0.1
0.01	1	0.00447535599960247	1	103	NA	297.582978537999	0	0.59	3.74	1	295.577900859	295.582376214999	"14"	12432.994146544	12427.754596846	1.5	0.1
0.01	1	0.146019191999585	1	103	NA	297.582978537999	0	0.59	3.74	1	295.811529234999	295.957548426999	"14"	12432.994146544	12427.754596846	1.5	0.1
0.01	1	0.00419710099959048	1	103	NA	297.582978537999	0	0.59	3.74	1	296.178894417	296.183091518	"14"	12432.994146544	12427.754596846	1.5	0.1
0.01	1	0.0955858790002821	1	103	NA	297.582978537999	0	0.59	3.74	1	296.412678576999	296.508264455999	"14"	12432.994146544	12427.754596846	1.5	0.1
0.01	1	0.0176150240004063	1	103	NA	297.582978537999	0	0.59	3.74	1	296.746489629999	296.764104653999	"14"	12432.994146544	12427.754596846	1.5	0.1
0.01	1	0.0309858139989956	1	103	NA	297.582978537999	0	0.59	3.74	1	296.99697038	297.027956193999	"14"	12432.994146544	12427.754596846	1.5	0.1
0.01	1	0.00727587900109938	1	103	NA	297.582978537999	0	0.59	3.74	1	297.264127794999	297.271403674	"14"	12432.994146544	12427.754596846	1.5	0.1
0.01	1	0.0836452920011652	2	103	NA	297.582978537999	0	0.59	3.74	1	297.497771561999	297.581416854	"14"	12432.994146544	12427.754596846	1.5	0.1
0.01	1	0.00402605800081801	1	120	NA	300.614133317998	0	0.02	3.76	1	299.634711569999	299.638737628	"15"	12432.994146544	12427.754596846	1.5	0.1
0.01	1	0.0870385380003427	1	120	NA	300.614133317998	0	0.02	3.76	1	299.868434436999	299.955472975	"15"	12432.994146544	12427.754596846	1.5	0.1
0.01	1	0.427018819000295	2	120	NA	300.614133317998	0	0.02	3.76	1	300.185569776999	300.612588595999	"15"	12432.994146544	12427.754596846	1.5	0.1
0.01	1	0.306254695000462	1	109	NA	322.726783369999	0	0.74	4.5	1	302.673198249999	302.979452944999	"16"	12432.994146544	12427.754596846	1.5	0.1
0.01	1	0.00395973199920263	1	109	NA	322.726783369999	0	0.74	4.5	1	303.207415232	303.211374963999	"16"	12432.994146544	12427.754596846	1.5	0.1
0.01	1	0.0348896579998836	1	109	NA	322.726783369999	0	0.74	4.5	1	303.441168956999	303.476058614999	"16"	12432.994146544	12427.754596846	1.5	0.1
0.01	1	0.00463057299930369	1	109	NA	322.726783369999	0	0.74	4.5	1	303.708228242	303.712858814999	"16"	12432.994146544	12427.754596846	1.5	0.1
0.01	1	0.0217776999998023	1	109	NA	322.726783369999	0	0.74	4.5	1	303.941972465	303.963750165	"16"	12432.994146544	12427.754596846	1.5	0.1
0.01	1	0.00394446400059678	1	109	NA	322.726783369999	0	0.74	4.5	1	304.192424089999	304.196368553999	"16"	12432.994146544	12427.754596846	1.5	0.1
0.01	1	0.0352652840010705	1	109	NA	322.726783369999	0	0.74	4.5	1	304.426127171999	304.461392456	"16"	12432.994146544	12427.754596846	1.5	0.1
0.01	1	0.00395788999958313	1	109	NA	322.726783369999	0	0.74	4.5	1	304.69319133	304.697149219999	"16"	12432.994146544	12427.754596846	1.5	0.1
0.01	1	0.0145750440005941	1	109	NA	322.726783369999	0	0.74	4.5	1	304.926933479999	304.941508524	"16"	12432.994146544	12427.754596846	1.5	0.1
0.01	1	0.0996831770007702	1	109	NA	322.726783369999	0	0.74	4.5	1	305.177439469999	305.277122646999	"16"	12432.994146544	12427.754596846	1.5	0.1
0.01	1	0.0777185249989998	1	109	NA	322.726783369999	0	0.74	4.5	1	305.511298812	305.589017336999	"16"	12432.994146544	12427.754596846	1.5	0.1
0.01	1	0.00444305900055042	1	109	NA	322.726783369999	0	0.74	4.5	1	305.811723367999	305.816166426999	"16"	12432.994146544	12427.754596846	1.5	0.1
0.01	1	0.0384473730009631	1	109	NA	322.726783369999	0	0.74	4.5	1	306.045487056999	306.08393443	"16"	12432.994146544	12427.754596846	1.5	0.1
0.01	1	0.0833155439995608	1	109	NA	322.726783369999	0	0.74	4.5	1	306.31263914	306.395954684	"16"	12432.994146544	12427.754596846	1.5	0.1
0.01	1	0.0951771750005719	1	109	NA	322.726783369999	0	0.74	4.5	1	306.629778511999	306.724955686999	"16"	12432.994146544	12427.754596846	1.5	0.1
0.01	1	0.00442902500071796	1	109	NA	322.726783369999	0	0.74	4.5	1	306.946918104999	306.95134713	"16"	12432.994146544	12427.754596846	1.5	0.1
0.01	1	0.0496957420000399	1	109	NA	322.726783369999	0	0.74	4.5	1	307.180739591999	307.230435333999	"16"	12432.994146544	12427.754596846	1.5	0.1
0.01	1	0.00393329100006667	1	109	NA	322.726783369999	0	0.74	4.5	1	307.464452816999	307.468386107999	"16"	12432.994146544	12427.754596846	1.5	0.1
0.01	1	0.0508498009985487	1	109	NA	322.726783369999	0	0.74	4.5	1	307.698263409	307.749113209999	"16"	12432.994146544	12427.754596846	1.5	0.1
0.01	1	0.0869281730010698	1	109	NA	322.726783369999	0	0.74	4.5	1	307.982184654998	308.069112828	"16"	12432.994146544	12427.754596846	1.5	0.1
0.01	1	0.0805008440001984	1	109	NA	322.726783369999	0	0.74	4.5	1	308.299296534999	308.379797378999	"16"	12432.994146544	12427.754596846	1.5	0.1
0.01	1	0.00382310999884794	1	109	NA	322.726783369999	0	0.74	4.5	1	308.61652537	308.620348479999	"16"	12432.994146544	12427.754596846	1.5	0.1
0.01	1	0.0271691930011002	1	109	NA	322.726783369999	0	0.74	4.5	1	308.850260931998	308.877430125	"16"	12432.994146544	12427.754596846	1.5	0.1
0.01	1	0.0045039850010653	1	109	NA	322.726783369999	0	0.74	4.5	1	309.100611611999	309.105115597	"16"	12432.994146544	12427.754596846	1.5	0.1
0.01	1	0.0216372039994894	1	109	NA	322.726783369999	0	0.74	4.5	1	309.334432225	309.356069428999	"16"	12432.994146544	12427.754596846	1.5	0.1
0.01	1	0.00383994500043627	1	109	NA	322.726783369999	0	0.74	4.5	1	309.584776827	309.588616772	"16"	12432.994146544	12427.754596846	1.5	0.1
0.01	1	0.0102709279999544	1	109	NA	322.726783369999	0	0.74	4.5	1	309.81845137	309.828722298	"16"	12432.994146544	12427.754596846	1.5	0.1
0.01	1	0.00430924499960383	1	109	NA	322.726783369999	0	0.74	4.5	1	310.052306202	310.056615447	"16"	12432.994146544	12427.754596846	1.5	0.1
0.01	1	0.0538380529997085	1	109	NA	322.726783369999	0	0.74	4.5	1	310.285989968999	310.339828021999	"16"	12432.994146544	12427.754596846	1.5	0.1
0.01	1	0.00407021499995608	1	109	NA	322.726783369999	0	0.74	4.5	1	310.569675257	310.573745472	"16"	12432.994146544	12427.754596846	1.5	0.1
0.01	1	0.0338135649999458	1	109	NA	322.726783369999	0	0.74	4.5	1	310.803523379	310.837336944	"16"	12432.994146544	12427.754596846	1.5	0.1
0.01	1	0.0039868869989732	1	109	NA	322.726783369999	0	0.74	4.5	1	311.070560097	311.074546983999	"16"	12432.994146544	12427.754596846	1.5	0.1
0.01	1	0.0371295040004043	1	109	NA	322.726783369999	0	0.74	4.5	1	311.304282436999	311.341411940999	"16"	12432.994146544	12427.754596846	1.5	0.1
0.01	1	0.00412923300063994	1	109	NA	322.726783369999	0	0.74	4.5	1	311.571471576999	311.57560081	"16"	12432.994146544	12427.754596846	1.5	0.1
0.01	1	0.0640877080004429	1	109	NA	322.726783369999	0	0.74	4.5	1	311.805130184999	311.869217893	"16"	12432.994146544	12427.754596846	1.5	0.1
0.01	1	0.00214060799953586	1	109	NA	322.726783369999	0	0.74	4.5	1	312.105753870999	312.107894478999	"16"	12432.994146544	12427.754596846	1.5	0.1
0.01	1	0.0493296469994675	1	109	NA	322.726783369999	0	0.74	4.5	1	312.339404605	312.388734251999	"16"	12432.994146544	12427.754596846	1.5	0.1
0.01	1	0.00382051599990518	1	109	NA	322.726783369999	0	0.74	4.5	1	312.623301039999	312.627121555999	"16"	12432.994146544	12427.754596846	1.5	0.1
0.01	1	0.0363760199998069	1	109	NA	322.726783369999	0	0.74	4.5	1	312.856960089999	312.893336109999	"16"	12432.994146544	12427.754596846	1.5	0.1
0.01	1	0.00208008099980361	1	109	NA	322.726783369999	0	0.74	4.5	1	313.124031498999	313.126111579999	"16"	12432.994146544	12427.754596846	1.5	0.1
0.01	1	0.087276746000498	1	109	NA	322.726783369999	0	0.74	4.5	1	313.357830474999	313.445107220999	"16"	12432.994146544	12427.754596846	1.5	0.1
0.01	1	0.00405440500071563	1	109	NA	322.726783369999	0	0.74	4.5	1	313.675020696999	313.679075102	"16"	12432.994146544	12427.754596846	1.5	0.1
0.01	1	0.0481613219999417	1	109	NA	322.726783369999	0	0.74	4.5	1	313.908778491999	313.956939813999	"16"	12432.994146544	12427.754596846	1.5	0.1
0.01	1	0.00435246200140682	1	109	NA	322.726783369999	0	0.74	4.5	1	314.192524864999	314.196877327	"16"	12432.994146544	12427.754596846	1.5	0.1
0.01	1	0.0350878440003726	1	109	NA	322.726783369999	0	0.74	4.5	1	314.426293785	314.461381629	"16"	12432.994146544	12427.754596846	1.5	0.1
0.01	1	0.384280408999985	1	109	NA	322.726783369999	0	0.74	4.5	1	314.693381915	315.077662324	"16"	12432.994146544	12427.754596846	1.5	0.1
0.01	1	0.0462185790001968	1	109	NA	322.726783369999	0	0.74	4.5	1	315.311114912	315.357333491	"16"	12432.994146544	12427.754596846	1.5	0.1
0.01	1	0.00477682699965953	1	109	NA	322.726783369999	0	0.74	4.5	1	315.594910025	315.599686852	"16"	12432.994146544	12427.754596846	1.5	0.1
0.01	1	0.0558791790008399	1	109	NA	322.726783369999	0	0.74	4.5	1	315.828625959999	315.884505139	"16"	12432.994146544	12427.754596846	1.5	0.1
0.01	1	0.00421526199897926	1	109	NA	322.726783369999	0	0.74	4.5	1	316.1124253	316.116640561999	"16"	12432.994146544	12427.754596846	1.5	0.1
0.01	1	0.00402749400018365	1	109	NA	322.726783369999	0	0.74	4.5	1	316.346176671999	316.350204165999	"16"	12432.994146544	12427.754596846	1.5	0.1
0.01	1	0.00394096700074442	1	109	NA	322.726783369999	0	0.74	4.5	1	316.579966714999	316.583907681999	"16"	12432.994146544	12427.754596846	1.5	0.1
0.01	1	0.0040743890003796	1	109	NA	322.726783369999	0	0.74	4.5	1	316.813599444999	316.817673833999	"16"	12432.994146544	12427.754596846	1.5	0.1
0.01	1	0.100238714001534	1	109	NA	322.726783369999	0	0.74	4.5	1	317.047404866998	317.147643581	"16"	12432.994146544	12427.754596846	1.5	0.1
0.01	1	0.00475021999955061	1	109	NA	322.726783369999	0	0.74	4.5	1	317.38116266	317.38591288	"16"	12432.994146544	12427.754596846	1.5	0.1
0.01	1	0.00410611799998151	1	109	NA	322.726783369999	0	0.74	4.5	1	317.614939199999	317.619045317999	"16"	12432.994146544	12427.754596846	1.5	0.1
0.01	1	0.0752334139997402	1	109	NA	322.726783369999	0	0.74	4.5	1	317.848780715	317.924014128999	"16"	12432.994146544	12427.754596846	1.5	0.1
0.01	1	0.00466587899973092	1	109	NA	322.726783369999	0	0.74	4.5	1	318.149162016	318.153827894999	"16"	12432.994146544	12427.754596846	1.5	0.1
0.01	1	0.133640186999401	1	109	NA	322.726783369999	0	0.74	4.5	1	318.38294281	318.516582996999	"16"	12432.994146544	12427.754596846	1.5	0.1
0.01	1	0.00214373200105911	1	109	NA	322.726783369999	0	0.74	4.5	1	318.750237434999	318.752381167	"16"	12432.994146544	12427.754596846	1.5	0.1
0.01	1	0.00408410099953471	1	109	NA	322.726783369999	0	0.74	4.5	1	318.983868806999	318.987952907999	"16"	12432.994146544	12427.754596846	1.5	0.1
0.01	1	0.0744985880010063	1	109	NA	322.726783369999	0	0.74	4.5	1	319.217669394999	319.292167983	"16"	12432.994146544	12427.754596846	1.5	0.1
0.01	1	0.00219889899926784	1	109	NA	322.726783369999	0	0.74	4.5	1	319.51813099	319.520329888999	"16"	12432.994146544	12427.754596846	1.5	0.1
0.01	1	0.00402010900143068	1	109	NA	322.726783369999	0	0.74	4.5	1	319.751815574999	319.755835684	"16"	12432.994146544	12427.754596846	1.5	0.1
0.01	1	0.130473450999489	1	109	NA	322.726783369999	0	0.74	4.5	1	319.985592614999	320.116066065999	"16"	12432.994146544	12427.754596846	1.5	0.1
0.01	1	0.00212004300010449	1	109	NA	322.726783369999	0	0.74	4.5	1	320.352875875999	320.354995918999	"16"	12432.994146544	12427.754596846	1.5	0.1
0.01	1	0.00405111500003841	1	109	NA	322.726783369999	0	0.74	4.5	1	320.586694244999	320.590745359999	"16"	12432.994146544	12427.754596846	1.5	0.1
0.01	1	0.160033567999562	1	109	NA	322.726783369999	0	0.74	4.5	1	320.820354584999	320.980388152999	"16"	12432.994146544	12427.754596846	1.5	0.1
0.01	1	0.00209122399974149	1	109	NA	322.726783369999	0	0.74	4.5	1	321.20428532	321.206376544	"16"	12432.994146544	12427.754596846	1.5	0.1
0.01	1	0.00392693200046779	1	109	NA	322.726783369999	0	0.74	4.5	1	321.438014109999	321.441941042	"16"	12432.994146544	12427.754596846	1.5	0.1
0.01	1	0.00744991499959724	1	109	NA	322.726783369999	0	0.74	4.5	1	321.671770445	321.67922036	"16"	12432.994146544	12427.754596846	1.5	0.1
0.01	1	0.0119480600005772	1	109	NA	322.726783369999	0	0.74	4.5	1	321.90554964	321.9174977	"16"	12432.994146544	12427.754596846	1.5	0.1
0.01	1	0.0021437799987325	1	109	NA	322.726783369999	0	0.74	4.5	1	322.155964144	322.158107923999	"16"	12432.994146544	12427.754596846	1.5	0.1
0.01	1	0.00475565700071456	1	109	NA	322.726783369999	0	0.74	4.5	1	322.389742579999	322.394498236999	"16"	12432.994146544	12427.754596846	1.5	0.1
0.01	1	0.10177742399901	2	109	NA	322.726783369999	0	0.74	4.5	1	322.623450215	322.725227638999	"16"	12432.994146544	12427.754596846	1.5	0.1
0.01	1	1.90755286199965	1	71	344.746994084999	NA	1	0	4.5	1	324.760335968	326.667888829999	"17"	12432.994146544	12427.754596846	1.5	0.1
0.01	1	0.0908094070000516	1	71	344.746994084999	NA	1	0	4.5	1	326.897183468	326.987992875	"17"	12432.994146544	12427.754596846	1.5	0.1
0.01	1	0.00207450500056439	1	71	344.746994084999	NA	1	0	4.5	1	327.214450468999	327.216524973999	"17"	12432.994146544	12427.754596846	1.5	0.1
0.01	1	0.100107823000144	1	71	344.746994084999	NA	1	0	4.5	1	327.448127656999	327.548235479999	"17"	12432.994146544	12427.754596846	1.5	0.1
0.01	1	0.00375610599985521	1	71	344.746994084999	NA	1	0	4.5	1	327.781998249999	327.785754355999	"17"	12432.994146544	12427.754596846	1.5	0.1
0.01	1	0.00470353499986231	1	71	344.746994084999	NA	1	0	4.5	1	328.015763724999	328.020467259999	"17"	12432.994146544	12427.754596846	1.5	0.1
0.01	1	0.00467175199992198	1	71	344.746994084999	NA	1	0	4.5	1	328.249482525	328.254154277	"17"	12432.994146544	12427.754596846	1.5	0.1
0.01	1	0.104872534999231	1	71	344.746994084999	NA	1	0	4.5	1	328.483238895	328.588111429999	"17"	12432.994146544	12427.754596846	1.5	0.1
0.01	1	0.00205168899992714	1	71	344.746994084999	NA	1	0	4.5	1	328.817157464999	328.819209153999	"17"	12432.994146544	12427.754596846	1.5	0.1
0.01	1	0.0039952209990588	1	71	344.746994084999	NA	1	0	4.5	1	329.050823107	329.054818327999	"17"	12432.994146544	12427.754596846	1.5	0.1
0.01	1	0.111526994000087	1	71	344.746994084999	NA	1	0	4.5	1	329.284467009998	329.395994003999	"17"	12432.994146544	12427.754596846	1.5	0.1
0.01	1	0.00401133900049899	1	71	344.746994084999	NA	1	0	4.5	1	329.618514496999	329.622525835999	"17"	12432.994146544	12427.754596846	1.5	0.1
0.01	1	0.00475421499868389	1	71	344.746994084999	NA	1	0	4.5	1	329.8522058	329.856960014999	"17"	12432.994146544	12427.754596846	1.5	0.1
0.01	1	0.134681538000223	1	71	344.746994084999	NA	1	0	4.5	1	330.08583251	330.220514048	"17"	12432.994146544	12427.754596846	1.5	0.1
0.01	1	0.00211399500039988	1	71	344.746994084999	NA	1	0	4.5	1	330.453174171	330.455288166	"17"	12432.994146544	12427.754596846	1.5	0.1
0.01	1	0.00406584400116117	1	71	344.746994084999	NA	1	0	4.5	1	330.686899049999	330.690964894	"17"	12432.994146544	12427.754596846	1.5	0.1
0.01	1	0.0992283530013083	1	71	344.746994084999	NA	1	0	4.5	1	330.920783599999	331.020011953	"17"	12432.994146544	12427.754596846	1.5	0.1
0.01	1	0.00213258599978872	1	71	344.746994084999	NA	1	0	4.5	1	331.254513043999	331.256645629999	"17"	12432.994146544	12427.754596846	1.5	0.1
0.01	1	0.108683356000256	1	71	344.746994084999	NA	1	0	4.5	1	331.488260999999	331.596944355999	"17"	12432.994146544	12427.754596846	1.5	0.1
0.01	1	0.00358215000051132	1	71	344.746994084999	NA	1	0	4.5	1	331.822157929999	331.825740079999	"17"	12432.994146544	12427.754596846	1.5	0.1
0.01	1	0.0292353840013675	1	71	344.746994084999	NA	1	0	4.5	1	332.055946384999	332.085181769	"17"	12432.994146544	12427.754596846	1.5	0.1
0.01	1	0.00210565399902407	1	71	344.746994084999	NA	1	0	4.5	1	332.323019312	332.325124965999	"17"	12432.994146544	12427.754596846	1.5	0.1
0.01	1	0.00215627000034146	1	71	344.746994084999	NA	1	0	4.5	1	332.556710822999	332.558867092999	"17"	12432.994146544	12427.754596846	1.5	0.1
0.01	1	0.00401273200077412	1	71	344.746994084999	NA	1	0	4.5	1	332.790523431999	332.794536164	"17"	12432.994146544	12427.754596846	1.5	0.1
0.01	1	0.00398485100049584	1	71	344.746994084999	NA	1	0	4.5	1	333.024116567	333.028101418	"17"	12432.994146544	12427.754596846	1.5	0.1
0.01	1	0.00208704900069279	1	71	344.746994084999	NA	1	0	4.5	1	333.257954575	333.260041624	"17"	12432.994146544	12427.754596846	1.5	0.1
0.01	1	0.00210340900048323	1	71	344.746994084999	NA	1	0	4.5	1	333.491609748999	333.493713157999	"17"	12432.994146544	12427.754596846	1.5	0.1
0.01	1	0.0020751840002049	1	71	344.746994084999	NA	1	0	4.5	1	333.725368990999	333.727444175	"17"	12432.994146544	12427.754596846	1.5	0.1
0.01	1	0.00412282999968738	1	71	344.746994084999	NA	1	0	4.5	1	333.95902427	333.963147099999	"17"	12432.994146544	12427.754596846	1.5	0.1
0.01	1	0.0999907490004261	1	71	344.746994084999	NA	1	0	4.5	1	334.192827789999	334.292818538999	"17"	12432.994146544	12427.754596846	1.5	0.1
0.01	1	0.00367650000043795	1	71	344.746994084999	NA	1	0	4.5	1	334.526685201999	334.530361702	"17"	12432.994146544	12427.754596846	1.5	0.1
0.01	1	0.00207940499967663	1	71	344.746994084999	NA	1	0	4.5	1	334.760488464999	334.762567869999	"17"	12432.994146544	12427.754596846	1.5	0.1
0.01	1	0.00396893200013437	1	71	344.746994084999	NA	1	0	4.5	1	334.99423522	334.998204152	"17"	12432.994146544	12427.754596846	1.5	0.1
0.01	1	0.0037905570006842	1	71	344.746994084999	NA	1	0	4.5	1	335.227944426999	335.231734984	"17"	12432.994146544	12427.754596846	1.5	0.1
0.01	1	0.00438845900134766	1	71	344.746994084999	NA	1	0	4.5	1	335.461635795999	335.466024255	"17"	12432.994146544	12427.754596846	1.5	0.1
0.01	1	0.00407534499936446	1	71	344.746994084999	NA	1	0	4.5	1	335.695323886999	335.699399231999	"17"	12432.994146544	12427.754596846	1.5	0.1
0.01	1	0.00471764999929292	1	71	344.746994084999	NA	1	0	4.5	1	335.929122789999	335.933840439999	"17"	12432.994146544	12427.754596846	1.5	0.1
0.01	1	0.00408732399955625	1	71	344.746994084999	NA	1	0	4.5	1	336.162740766	336.166828089999	"17"	12432.994146544	12427.754596846	1.5	0.1
0.01	1	0.120093858000473	1	71	344.746994084999	NA	1	0	4.5	1	336.396537789999	336.516631647999	"17"	12432.994146544	12427.754596846	1.5	0.1
0.01	1	0.00467511700117029	1	71	344.746994084999	NA	1	0	4.5	1	336.747150559999	336.751825677	"17"	12432.994146544	12427.754596846	1.5	0.1
0.01	1	0.00210614199932024	1	71	344.746994084999	NA	1	0	4.5	1	336.980866397	336.982972538999	"17"	12432.994146544	12427.754596846	1.5	0.1
0.01	1	0.00468866399933177	1	71	344.746994084999	NA	1	0	4.5	1	337.214610335999	337.219298999999	"17"	12432.994146544	12427.754596846	1.5	0.1
0.01	1	0.00468349499897158	1	71	344.746994084999	NA	1	0	4.5	1	337.448289655	337.452973149999	"17"	12432.994146544	12427.754596846	1.5	0.1
0.01	1	0.131609250998736	1	71	344.746994084999	NA	1	0	4.5	1	337.681960725	337.813569975999	"17"	12432.994146544	12427.754596846	1.5	0.1
0.01	1	0.00215576399932615	1	71	344.746994084999	NA	1	0	4.5	1	338.049402535	338.051558298999	"17"	12432.994146544	12427.754596846	1.5	0.1
0.01	1	0.00206840899954841	1	71	344.746994084999	NA	1	0	4.5	1	338.283013544	338.285081952999	"17"	12432.994146544	12427.754596846	1.5	0.1
0.01	1	0.00479052200171282	1	71	344.746994084999	NA	1	0	4.5	1	338.516771064998	338.521561587	"17"	12432.994146544	12427.754596846	1.5	0.1
0.01	1	0.004058600999997	1	71	344.746994084999	NA	1	0	4.5	1	338.750475756999	338.754534357999	"17"	12432.994146544	12427.754596846	1.5	0.1
0.01	1	0.00393139699917811	1	71	344.746994084999	NA	1	0	4.5	1	338.984178785	338.988110181999	"17"	12432.994146544	12427.754596846	1.5	0.1
0.01	1	0.0346201500015013	1	71	344.746994084999	NA	1	0	4.5	1	339.218073979999	339.25269413	"17"	12432.994146544	12427.754596846	1.5	0.1
0.01	1	0.00370206499974302	1	71	344.746994084999	NA	1	0	4.5	1	339.485082564999	339.488784629999	"17"	12432.994146544	12427.754596846	1.5	0.1
0.01	1	0.00469298999996681	1	71	344.746994084999	NA	1	0	4.5	1	339.719007694999	339.723700684999	"17"	12432.994146544	12427.754596846	1.5	0.1
0.01	1	0.00399256299897388	1	71	344.746994084999	NA	1	0	4.5	1	339.952515457	339.956508019999	"17"	12432.994146544	12427.754596846	1.5	0.1
0.01	1	0.115081347999876	1	71	344.746994084999	NA	1	0	4.5	1	340.186253889999	340.301335237999	"17"	12432.994146544	12427.754596846	1.5	0.1
0.01	1	0.00217439399966679	1	71	344.746994084999	NA	1	0	4.5	1	340.536806851	340.538981244999	"17"	12432.994146544	12427.754596846	1.5	0.1
0.01	1	0.00400533900028677	1	71	344.746994084999	NA	1	0	4.5	1	340.770579496999	340.774584835999	"17"	12432.994146544	12427.754596846	1.5	0.1
0.01	1	0.103231368999332	1	71	344.746994084999	NA	1	0	4.5	1	341.004338023	341.107569391999	"17"	12432.994146544	12427.754596846	1.5	0.1
0.01	1	0.00213728700146021	1	71	344.746994084999	NA	1	0	4.5	1	341.338256817999	341.340394105	"17"	12432.994146544	12427.754596846	1.5	0.1
0.01	1	0.00475532500058762	1	71	344.746994084999	NA	1	0	4.5	1	341.571936029999	341.576691355	"17"	12432.994146544	12427.754596846	1.5	0.1
0.01	1	0.00411823499962338	1	71	344.746994084999	NA	1	0	4.5	1	341.805636297	341.809754532	"17"	12432.994146544	12427.754596846	1.5	0.1
0.01	1	0.00388764199851721	1	71	344.746994084999	NA	1	0	4.5	1	342.0394127	342.043300341998	"17"	12432.994146544	12427.754596846	1.5	0.1
0.01	1	0.138924962000601	1	71	344.746994084999	NA	1	0	4.5	1	342.273070166999	342.411995128999	"17"	12432.994146544	12427.754596846	1.5	0.1
0.01	1	0.0191941690009116	1	71	344.746994084999	NA	1	0	4.5	1	342.640447358999	342.659641528	"17"	12432.994146544	12427.754596846	1.5	0.1
0.01	1	0.00230020600065473	1	71	344.746994084999	NA	1	0	4.5	1	342.891167334999	342.893467541	"17"	12432.994146544	12427.754596846	1.5	0.1
0.01	1	0.00396446599916089	1	71	344.746994084999	NA	1	0	4.5	1	343.1244508	343.128415265999	"17"	12432.994146544	12427.754596846	1.5	0.1
0.01	1	0.00404894100029196	1	71	344.746994084999	NA	1	0	4.5	1	343.358215406999	343.362264347999	"17"	12432.994146544	12427.754596846	1.5	0.1
0.01	1	0.101625665000029	1	71	344.746994084999	NA	1	0	4.5	1	343.5920011	343.693626765	"17"	12432.994146544	12427.754596846	1.5	0.1
0.01	1	0.00228912999955355	1	71	344.746994084999	NA	1	0	4.5	1	343.925956984	343.928246113999	"17"	12432.994146544	12427.754596846	1.5	0.1
0.01	1	0.00216464699951757	1	71	344.746994084999	NA	1	0	4.5	1	344.15954063	344.161705277	"17"	12432.994146544	12427.754596846	1.5	0.1
0.01	1	0.00404741400052444	1	71	344.746994084999	NA	1	0	4.5	1	344.393316889998	344.397364303999	"17"	12432.994146544	12427.754596846	1.5	0.1
0.01	1	0.00224442500075384	1	71	344.746994084999	NA	1	0	4.5	1	344.627121898999	344.629366323999	"17"	12432.994146544	12427.754596846	1.5	0.1
0.01	1	0.00214037200021266	1	96	NA	352.510740579999	0	0.19	4.69	1	346.797327017999	346.799467389999	"18"	12432.994146544	12427.754596846	1.5	0.1
