"payoff.level"	"balloon"	"rt"	"resp"	"explode.trial"	"explode.time"	"finish.time"	"exploded"	"trial.total"	"cumulative.total"	"finished"	"trial.start"	"trial.end"	"trial.num"	"secs"	"start.time"	"iti"	"isi"
0.01	1	5.3082850830001	1	64	NA	11.4735832059999	0	0.21	0.21	1	0.0191763529999207	5.32746143600002	"1"	895.266581423	892.572161196	1.5	0.1
0.01	1	0.00324452200004544	1	64	NA	11.4735832059999	0	0.21	0.21	1	5.62862541099992	5.63186993299996	"1"	895.266581423	892.572161196	1.5	0.1
0.01	1	0.0880011039999999	1	64	NA	11.4735832059999	0	0.21	0.21	1	5.86229602799995	5.95029713199995	"1"	895.266581423	892.572161196	1.5	0.1
0.01	1	0.00337051399992561	1	64	NA	11.4735832059999	0	0.21	0.21	1	6.17943986	6.18281037399993	"1"	895.266581423	892.572161196	1.5	0.1
0.01	1	0.00445529900002839	1	64	NA	11.4735832059999	0	0.21	0.21	1	6.41318467399992	6.41763997299995	"1"	895.266581423	892.572161196	1.5	0.1
0.01	1	0.0038696849999269	1	64	NA	11.4735832059999	0	0.21	0.21	1	6.64693763299999	6.65080731799992	"1"	895.266581423	892.572161196	1.5	0.1
0.01	1	0.00231672700010677	1	64	NA	11.4735832059999	0	0.21	0.21	1	6.88053793299991	6.88285466000002	"1"	895.266581423	892.572161196	1.5	0.1
0.01	1	0.00345709800001259	1	64	NA	11.4735832059999	0	0.21	0.21	1	7.11439221000001	7.11784930800002	"1"	895.266581423	892.572161196	1.5	0.1
0.01	1	0.00470692700002928	1	64	NA	11.4735832059999	0	0.21	0.21	1	7.34817353799997	7.352880465	"1"	895.266581423	892.572161196	1.5	0.1
0.01	1	0.00376492300006248	1	64	NA	11.4735832059999	0	0.21	0.21	1	7.58189339499995	7.58565831800001	"1"	895.266581423	892.572161196	1.5	0.1
0.01	1	0.00470511200001056	1	64	NA	11.4735832059999	0	0.21	0.21	1	7.81560347300001	7.82030858500002	"1"	895.266581423	892.572161196	1.5	0.1
0.01	1	0.00381534099994951	1	64	NA	11.4735832059999	0	0.21	0.21	1	8.04937811299999	8.05319345399994	"1"	895.266581423	892.572161196	1.5	0.1
0.01	1	0.00365754900008142	1	64	NA	11.4735832059999	0	0.21	0.21	1	8.28308839499994	8.28674594400002	"1"	895.266581423	892.572161196	1.5	0.1
0.01	1	0.00466619500002707	1	64	NA	11.4735832059999	0	0.21	0.21	1	8.51684197299994	8.52150816799997	"1"	895.266581423	892.572161196	1.5	0.1
0.01	1	0.0039931210000077	1	64	NA	11.4735832059999	0	0.21	0.21	1	8.75054003299999	8.754533154	"1"	895.266581423	892.572161196	1.5	0.1
0.01	1	0.00406735900003241	1	64	NA	11.4735832059999	0	0.21	0.21	1	8.98417148499993	8.98823884399997	"1"	895.266581423	892.572161196	1.5	0.1
0.01	1	0.00410339199993359	1	64	NA	11.4735832059999	0	0.21	0.21	1	9.21794726799999	9.22205065999992	"1"	895.266581423	892.572161196	1.5	0.1
0.01	1	0.00340081199999531	1	64	NA	11.4735832059999	0	0.21	0.21	1	9.45168638600001	9.455087198	"1"	895.266581423	892.572161196	1.5	0.1
0.01	1	0.00342192199991587	1	64	NA	11.4735832059999	0	0.21	0.21	1	9.68535385600001	9.68877577799992	"1"	895.266581423	892.572161196	1.5	0.1
0.01	1	0.00393983100002515	1	64	NA	11.4735832059999	0	0.21	0.21	1	9.91907966499991	9.92301949599994	"1"	895.266581423	892.572161196	1.5	0.1
0.01	1	0.00461921800001619	1	64	NA	11.4735832059999	0	0.21	0.21	1	10.1528221469999	10.157441365	"1"	895.266581423	892.572161196	1.5	0.1
0.01	1	1.08523567500004	2	64	NA	11.4735832059999	0	0.21	0.21	1	10.3866560079999	11.471891683	"1"	895.266581423	892.572161196	1.5	0.1
0.01	1	1.91685204499993	1	102	NA	26.092133094	0	0.43	0.64	1	13.525195833	15.4420478779999	"2"	895.266581423	892.572161196	1.5	0.1
0.01	1	0.00468223500001841	1	102	NA	26.092133094	0	0.43	0.64	1	15.6788489979999	15.6835312329999	"2"	895.266581423	892.572161196	1.5	0.1
0.01	1	0.00391782300005161	1	102	NA	26.092133094	0	0.43	0.64	1	15.9125315829999	15.916449406	"2"	895.266581423	892.572161196	1.5	0.1
0.01	1	0.00469180000004599	1	102	NA	26.092133094	0	0.43	0.64	1	16.146288908	16.150980708	"2"	895.266581423	892.572161196	1.5	0.1
0.01	1	0.00400106799997957	1	102	NA	26.092133094	0	0.43	0.64	1	16.37997001	16.3839710779999	"2"	895.266581423	892.572161196	1.5	0.1
0.01	1	0.00468829500005086	1	102	NA	26.092133094	0	0.43	0.64	1	16.6137818879999	16.618470183	"2"	895.266581423	892.572161196	1.5	0.1
0.01	1	0.00460203000000092	1	102	NA	26.092133094	0	0.43	0.64	1	16.847397828	16.851999858	"2"	895.266581423	892.572161196	1.5	0.1
0.01	1	0.00468563999993421	1	102	NA	26.092133094	0	0.43	0.64	1	17.081193803	17.085879443	"2"	895.266581423	892.572161196	1.5	0.1
0.01	1	0.00394900900005268	1	102	NA	26.092133094	0	0.43	0.64	1	17.314849883	17.318798892	"2"	895.266581423	892.572161196	1.5	0.1
0.01	1	0.0034190359999684	1	102	NA	26.092133094	0	0.43	0.64	1	17.548692468	17.552111504	"2"	895.266581423	892.572161196	1.5	0.1
0.01	1	0.00211058999991565	1	102	NA	26.092133094	0	0.43	0.64	1	17.782440243	17.7845508329999	"2"	895.266581423	892.572161196	1.5	0.1
0.01	1	0.00215043800005787	1	102	NA	26.092133094	0	0.43	0.64	1	18.016144278	18.018294716	"2"	895.266581423	892.572161196	1.5	0.1
0.01	1	0.00411241300002985	1	102	NA	26.092133094	0	0.43	0.64	1	18.249776033	18.253888446	"2"	895.266581423	892.572161196	1.5	0.1
0.01	1	0.00403589300003659	1	102	NA	26.092133094	0	0.43	0.64	1	18.4835475929999	18.4875834859999	"2"	895.266581423	892.572161196	1.5	0.1
0.01	1	0.00491445500006193	1	102	NA	26.092133094	0	0.43	0.64	1	18.717281968	18.722196423	"2"	895.266581423	892.572161196	1.5	0.1
0.01	1	0.00392585500003406	1	102	NA	26.092133094	0	0.43	0.64	1	18.950947825	18.95487368	"2"	895.266581423	892.572161196	1.5	0.1
0.01	1	0.00407048099998519	1	102	NA	26.092133094	0	0.43	0.64	1	19.184678075	19.188748556	"2"	895.266581423	892.572161196	1.5	0.1
0.01	1	0.0040478590000248	1	102	NA	26.092133094	0	0.43	0.64	1	19.418392565	19.422440424	"2"	895.266581423	892.572161196	1.5	0.1
0.01	1	0.00341655199997604	1	102	NA	26.092133094	0	0.43	0.64	1	19.652106774	19.655523326	"2"	895.266581423	892.572161196	1.5	0.1
0.01	1	0.00366392499995527	1	102	NA	26.092133094	0	0.43	0.64	1	19.885835833	19.8894997579999	"2"	895.266581423	892.572161196	1.5	0.1
0.01	1	0.00363775899995744	1	102	NA	26.092133094	0	0.43	0.64	1	20.119627575	20.1232653339999	"2"	895.266581423	892.572161196	1.5	0.1
0.01	1	0.0039498309999999	1	102	NA	26.092133094	0	0.43	0.64	1	20.353324705	20.357274536	"2"	895.266581423	892.572161196	1.5	0.1
0.01	1	0.0311220670000694	1	102	NA	26.092133094	0	0.43	0.64	1	20.5870623329999	20.6181844	"2"	895.266581423	892.572161196	1.5	0.1
0.01	1	0.0038604229999919	1	102	NA	26.092133094	0	0.43	0.64	1	20.854245593	20.858106016	"2"	895.266581423	892.572161196	1.5	0.1
0.01	1	0.004001154999969	1	102	NA	26.092133094	0	0.43	0.64	1	21.087972133	21.091973288	"2"	895.266581423	892.572161196	1.5	0.1
0.01	1	0.00342060800005584	1	102	NA	26.092133094	0	0.43	0.64	1	21.321632458	21.325053066	"2"	895.266581423	892.572161196	1.5	0.1
0.01	1	0.00410491699994964	1	102	NA	26.092133094	0	0.43	0.64	1	21.555265193	21.5593701099999	"2"	895.266581423	892.572161196	1.5	0.1
0.01	1	0.00386839500004044	1	102	NA	26.092133094	0	0.43	0.64	1	21.7890683329999	21.792936728	"2"	895.266581423	892.572161196	1.5	0.1
0.01	1	0.00399695800001609	1	102	NA	26.092133094	0	0.43	0.64	1	22.02280447	22.026801428	"2"	895.266581423	892.572161196	1.5	0.1
0.01	1	0.00408127200000763	1	102	NA	26.092133094	0	0.43	0.64	1	22.25651823	22.260599502	"2"	895.266581423	892.572161196	1.5	0.1
0.01	1	0.00975957800005745	1	102	NA	26.092133094	0	0.43	0.64	1	22.4902264679999	22.499986046	"2"	895.266581423	892.572161196	1.5	0.1
0.01	1	0.0139668890000166	1	102	NA	26.092133094	0	0.43	0.64	1	22.7240176299999	22.737984519	"2"	895.266581423	892.572161196	1.5	0.1
0.01	1	0.00823689100002412	1	102	NA	26.092133094	0	0.43	0.64	1	22.9744375629999	22.9826744539999	"2"	895.266581423	892.572161196	1.5	0.1
0.01	1	0.00392555100006575	1	102	NA	26.092133094	0	0.43	0.64	1	23.208181883	23.212107434	"2"	895.266581423	892.572161196	1.5	0.1
0.01	1	0.00408495200008474	1	102	NA	26.092133094	0	0.43	0.64	1	23.4418880879999	23.44597304	"2"	895.266581423	892.572161196	1.5	0.1
0.01	1	0.00405839500001548	1	102	NA	26.092133094	0	0.43	0.64	1	23.675663655	23.67972205	"2"	895.266581423	892.572161196	1.5	0.1
0.01	1	0.00432876500008206	1	102	NA	26.092133094	0	0.43	0.64	1	23.9093708429999	23.913699608	"2"	895.266581423	892.572161196	1.5	0.1
0.01	1	0.00363366399994902	1	102	NA	26.092133094	0	0.43	0.64	1	24.142971948	24.1466056119999	"2"	895.266581423	892.572161196	1.5	0.1
0.01	1	0.00379457400003957	1	102	NA	26.092133094	0	0.43	0.64	1	24.3767551679999	24.380549742	"2"	895.266581423	892.572161196	1.5	0.1
0.01	1	0.00404419599999528	1	102	NA	26.092133094	0	0.43	0.64	1	24.610423608	24.614467804	"2"	895.266581423	892.572161196	1.5	0.1
0.01	1	0.00391908899996452	1	102	NA	26.092133094	0	0.43	0.64	1	24.844226575	24.848145664	"2"	895.266581423	892.572161196	1.5	0.1
0.01	1	0.00406192000002648	1	102	NA	26.092133094	0	0.43	0.64	1	25.0779486079999	25.082010528	"2"	895.266581423	892.572161196	1.5	0.1
0.01	1	0.00425837399995999	1	102	NA	26.092133094	0	0.43	0.64	1	25.31160095	25.3158593239999	"2"	895.266581423	892.572161196	1.5	0.1
0.01	1	0.545024991999981	2	102	NA	26.092133094	0	0.43	0.64	1	25.545423033	26.090448025	"2"	895.266581423	892.572161196	1.5	0.1
0.01	1	1.06091757299998	1	97	NA	41.908173996	0	0.44	1.08	1	28.133043358	29.193960931	"3"	895.266581423	892.572161196	1.5	0.1
0.01	1	0.127032341000017	1	97	NA	41.908173996	0	0.44	1.08	1	29.43531349	29.562345831	"3"	895.266581423	892.572161196	1.5	0.1
0.01	1	0.00360122500001125	1	97	NA	41.908173996	0	0.44	1.08	1	29.785841365	29.78944259	"3"	895.266581423	892.572161196	1.5	0.1
0.01	1	0.112306929000056	1	97	NA	41.908173996	0	0.44	1.08	1	30.019508023	30.131814952	"3"	895.266581423	892.572161196	1.5	0.1
0.01	1	0.00378107200003797	1	97	NA	41.908173996	0	0.44	1.08	1	30.370122318	30.37390339	"3"	895.266581423	892.572161196	1.5	0.1
0.01	1	0.00385896900002081	1	97	NA	41.908173996	0	0.44	1.08	1	30.6039287149999	30.607787684	"3"	895.266581423	892.572161196	1.5	0.1
0.01	1	0.100827931999902	1	97	NA	41.908173996	0	0.44	1.08	1	30.837649778	30.9384777099999	"3"	895.266581423	892.572161196	1.5	0.1
0.01	1	0.00324861999990844	1	97	NA	41.908173996	0	0.44	1.08	1	31.171481706	31.1747303259999	"3"	895.266581423	892.572161196	1.5	0.1
0.01	1	0.00412250800002312	1	97	NA	41.908173996	0	0.44	1.08	1	31.405165918	31.409288426	"3"	895.266581423	892.572161196	1.5	0.1
0.01	1	0.00389508800003568	1	97	NA	41.908173996	0	0.44	1.08	1	31.638906758	31.642801846	"3"	895.266581423	892.572161196	1.5	0.1
0.01	1	0.00415184700000282	1	97	NA	41.908173996	0	0.44	1.08	1	31.8727177229999	31.8768695699999	"3"	895.266581423	892.572161196	1.5	0.1
0.01	1	0.00374818099999175	1	97	NA	41.908173996	0	0.44	1.08	1	32.106381133	32.110129314	"3"	895.266581423	892.572161196	1.5	0.1
0.01	1	0.00405859799991504	1	97	NA	41.908173996	0	0.44	1.08	1	32.34007863	32.3441372279999	"3"	895.266581423	892.572161196	1.5	0.1
0.01	1	0.00403046600001744	1	97	NA	41.908173996	0	0.44	1.08	1	32.5738783099999	32.577908776	"3"	895.266581423	892.572161196	1.5	0.1
0.01	1	0.00339985599998727	1	97	NA	41.908173996	0	0.44	1.08	1	32.807554556	32.810954412	"3"	895.266581423	892.572161196	1.5	0.1
0.01	1	0.138055285000064	1	97	NA	41.908173996	0	0.44	1.08	1	33.0414245879999	33.179479873	"3"	895.266581423	892.572161196	1.5	0.1
0.01	1	0.00471474699997998	1	97	NA	41.908173996	0	0.44	1.08	1	33.408589283	33.4133040299999	"3"	895.266581423	892.572161196	1.5	0.1
0.01	1	0.00465337000002819	1	97	NA	41.908173996	0	0.44	1.08	1	33.6423432529999	33.6469966229999	"3"	895.266581423	892.572161196	1.5	0.1
0.01	1	0.00448353999991014	1	97	NA	41.908173996	0	0.44	1.08	1	33.876029593	33.8805131329999	"3"	895.266581423	892.572161196	1.5	0.1
0.01	1	0.00408133399992039	1	97	NA	41.908173996	0	0.44	1.08	1	34.109816508	34.1138978419999	"3"	895.266581423	892.572161196	1.5	0.1
0.01	1	0.00476275999994868	1	97	NA	41.908173996	0	0.44	1.08	1	34.343551488	34.348314248	"3"	895.266581423	892.572161196	1.5	0.1
0.01	1	0.00473632000000634	1	97	NA	41.908173996	0	0.44	1.08	1	34.5771694079999	34.5819057279999	"3"	895.266581423	892.572161196	1.5	0.1
0.01	1	0.00479476500004239	1	97	NA	41.908173996	0	0.44	1.08	1	34.8108860479999	34.815680813	"3"	895.266581423	892.572161196	1.5	0.1
0.01	1	0.00454248899995946	1	97	NA	41.908173996	0	0.44	1.08	1	35.044621764	35.049164253	"3"	895.266581423	892.572161196	1.5	0.1
0.01	1	0.00380451299997731	1	97	NA	41.908173996	0	0.44	1.08	1	35.278452023	35.282256536	"3"	895.266581423	892.572161196	1.5	0.1
0.01	1	0.00400194000008014	1	97	NA	41.908173996	0	0.44	1.08	1	35.5121601799999	35.51616212	"3"	895.266581423	892.572161196	1.5	0.1
0.01	1	0.00365784799998892	1	97	NA	41.908173996	0	0.44	1.08	1	35.745849778	35.749507626	"3"	895.266581423	892.572161196	1.5	0.1
0.01	1	0.00370510700008708	1	97	NA	41.908173996	0	0.44	1.08	1	35.9795987829999	35.98330389	"3"	895.266581423	892.572161196	1.5	0.1
0.01	1	0.00384102999998959	1	97	NA	41.908173996	0	0.44	1.08	1	36.21330624	36.2171472699999	"3"	895.266581423	892.572161196	1.5	0.1
0.01	1	0.00437336699997104	1	97	NA	41.908173996	0	0.44	1.08	1	36.446989078	36.451362445	"3"	895.266581423	892.572161196	1.5	0.1
0.01	1	0.00387440999998034	1	97	NA	41.908173996	0	0.44	1.08	1	36.6807780299999	36.6846524399999	"3"	895.266581423	892.572161196	1.5	0.1
0.01	1	0.0963770609999983	1	97	NA	41.908173996	0	0.44	1.08	1	36.914529305	37.010906366	"3"	895.266581423	892.572161196	1.5	0.1
0.01	1	0.00363949100005811	1	97	NA	41.908173996	0	0.44	1.08	1	37.2484076229999	37.252047114	"3"	895.266581423	892.572161196	1.5	0.1
0.01	1	0.00346106200004215	1	97	NA	41.908173996	0	0.44	1.08	1	37.4821281879999	37.48558925	"3"	895.266581423	892.572161196	1.5	0.1
0.01	1	0.00473329999999805	1	97	NA	41.908173996	0	0.44	1.08	1	37.7157995479999	37.7205328479999	"3"	895.266581423	892.572161196	1.5	0.1
0.01	1	0.0047628249999434	1	97	NA	41.908173996	0	0.44	1.08	1	37.949593638	37.954356463	"3"	895.266581423	892.572161196	1.5	0.1
0.01	1	0.00357188699990729	1	97	NA	41.908173996	0	0.44	1.08	1	38.183336455	38.1869083419999	"3"	895.266581423	892.572161196	1.5	0.1
0.01	1	0.00386908900009075	1	97	NA	41.908173996	0	0.44	1.08	1	38.4169719749999	38.420841064	"3"	895.266581423	892.572161196	1.5	0.1
0.01	1	0.00390177799999947	1	97	NA	41.908173996	0	0.44	1.08	1	38.6507517479999	38.6546535259999	"3"	895.266581423	892.572161196	1.5	0.1
0.01	1	0.00341405999995459	1	97	NA	41.908173996	0	0.44	1.08	1	38.884371518	38.8877855779999	"3"	895.266581423	892.572161196	1.5	0.1
0.01	1	0.00747565999995459	1	97	NA	41.908173996	0	0.44	1.08	1	39.118120238	39.1255958979999	"3"	895.266581423	892.572161196	1.5	0.1
0.01	1	0.347211551999976	1	97	NA	41.908173996	0	0.44	1.08	1	39.351914533	39.699126085	"3"	895.266581423	892.572161196	1.5	0.1
0.01	1	0.274112021000064	1	97	NA	41.908173996	0	0.44	1.08	1	39.9362465949999	40.210358616	"3"	895.266581423	892.572161196	1.5	0.1
0.01	1	0.300987064999958	1	97	NA	41.908173996	0	0.44	1.08	1	40.437099238	40.7380863029999	"3"	895.266581423	892.572161196	1.5	0.1
0.01	1	0.93514855300009	2	97	NA	41.908173996	0	0.44	1.08	1	40.9713550299999	41.906503583	"3"	895.266581423	892.572161196	1.5	0.1
0.01	1	0.498722454000017	1	51	57.9696475129999	NA	1	0	1.08	1	43.959659205	44.458381659	"4"	895.266581423	892.572161196	1.5	0.1
0.01	1	0.00407744500000717	1	51	57.9696475129999	NA	1	0	1.08	1	44.694222373	44.698299818	"4"	895.266581423	892.572161196	1.5	0.1
0.01	1	0.0756539730000441	1	51	57.9696475129999	NA	1	0	1.08	1	44.927938663	45.003592636	"4"	895.266581423	892.572161196	1.5	0.1
0.01	1	0.00395515500008514	1	51	57.9696475129999	NA	1	0	1.08	1	45.2284212449999	45.2323764	"4"	895.266581423	892.572161196	1.5	0.1
0.01	1	0.00402398799997172	1	51	57.9696475129999	NA	1	0	1.08	1	45.46211218	45.4661361679999	"4"	895.266581423	892.572161196	1.5	0.1
0.01	1	0.00396980900006838	1	51	57.9696475129999	NA	1	0	1.08	1	45.6958980749999	45.699867884	"4"	895.266581423	892.572161196	1.5	0.1
0.01	1	0.00355551899997408	1	51	57.9696475129999	NA	1	0	1.08	1	45.929612855	45.9331683739999	"4"	895.266581423	892.572161196	1.5	0.1
0.01	1	0.00477309200005038	1	51	57.9696475129999	NA	1	0	1.08	1	46.1634767229999	46.168249815	"4"	895.266581423	892.572161196	1.5	0.1
0.01	1	0.00397173299995757	1	51	57.9696475129999	NA	1	0	1.08	1	46.397118375	46.4010901079999	"4"	895.266581423	892.572161196	1.5	0.1
0.01	1	0.00452697200000785	1	51	57.9696475129999	NA	1	0	1.08	1	46.630826968	46.63535394	"4"	895.266581423	892.572161196	1.5	0.1
0.01	1	0.0035415820000253	1	51	57.9696475129999	NA	1	0	1.08	1	46.8645114879999	46.86805307	"4"	895.266581423	892.572161196	1.5	0.1
0.01	1	0.00381705699999202	1	51	57.9696475129999	NA	1	0	1.08	1	47.098222203	47.10203926	"4"	895.266581423	892.572161196	1.5	0.1
0.01	1	0.00452455599997847	1	51	57.9696475129999	NA	1	0	1.08	1	47.332019214	47.3365437699999	"4"	895.266581423	892.572161196	1.5	0.1
0.01	1	0.00492437699995207	1	51	57.9696475129999	NA	1	0	1.08	1	47.565812771	47.5707371479999	"4"	895.266581423	892.572161196	1.5	0.1
0.01	1	0.0603343500000619	1	51	57.9696475129999	NA	1	0	1.08	1	47.799395983	47.859730333	"4"	895.266581423	892.572161196	1.5	0.1
0.01	1	0.0874380070000598	1	51	57.9696475129999	NA	1	0	1.08	1	48.0999030329999	48.18734104	"4"	895.266581423	892.572161196	1.5	0.1
0.01	1	0.00333802000000105	1	51	57.9696475129999	NA	1	0	1.08	1	48.417157086	48.420495106	"4"	895.266581423	892.572161196	1.5	0.1
0.01	1	0.0958959440000626	1	51	57.9696475129999	NA	1	0	1.08	1	48.6509565729999	48.746852517	"4"	895.266581423	892.572161196	1.5	0.1
0.01	1	0.138845048999997	1	51	57.9696475129999	NA	1	0	1.08	1	48.984754138	49.123599187	"4"	895.266581423	892.572161196	1.5	0.1
0.01	1	0.00420087999998486	1	51	57.9696475129999	NA	1	0	1.08	1	49.352086524	49.356287404	"4"	895.266581423	892.572161196	1.5	0.1
0.01	1	0.00406079899994438	1	51	57.9696475129999	NA	1	0	1.08	1	49.585808135	49.5898689339999	"4"	895.266581423	892.572161196	1.5	0.1
0.01	1	0.00340337599993745	1	51	57.9696475129999	NA	1	0	1.08	1	49.819555464	49.82295884	"4"	895.266581423	892.572161196	1.5	0.1
0.01	1	0.00463105000005726	1	51	57.9696475129999	NA	1	0	1.08	1	50.0533009649999	50.057932015	"4"	895.266581423	892.572161196	1.5	0.1
0.01	1	0.00392026699989856	1	51	57.9696475129999	NA	1	0	1.08	1	50.286918613	50.2908388799999	"4"	895.266581423	892.572161196	1.5	0.1
0.01	1	0.00380845299991961	1	51	57.9696475129999	NA	1	0	1.08	1	50.520708193	50.5245166459999	"4"	895.266581423	892.572161196	1.5	0.1
0.01	1	0.120150801000023	1	51	57.9696475129999	NA	1	0	1.08	1	50.7545648179999	50.874715619	"4"	895.266581423	892.572161196	1.5	0.1
0.01	1	0.00390441499996541	1	51	57.9696475129999	NA	1	0	1.08	1	51.105003935	51.10890835	"4"	895.266581423	892.572161196	1.5	0.1
0.01	1	0.119993212000054	1	51	57.9696475129999	NA	1	0	1.08	1	51.338787963	51.458781175	"4"	895.266581423	892.572161196	1.5	0.1
0.01	1	0.00392100800002027	1	51	57.9696475129999	NA	1	0	1.08	1	51.6893563179999	51.6932773259999	"4"	895.266581423	892.572161196	1.5	0.1
0.01	1	0.104040877999978	1	51	57.9696475129999	NA	1	0	1.08	1	51.923072145	52.027113023	"4"	895.266581423	892.572161196	1.5	0.1
0.01	1	0.137682578000067	1	51	57.9696475129999	NA	1	0	1.08	1	52.2570298439999	52.394712422	"4"	895.266581423	892.572161196	1.5	0.1
0.01	1	0.00342217399997935	1	51	57.9696475129999	NA	1	0	1.08	1	52.624207596	52.62762977	"4"	895.266581423	892.572161196	1.5	0.1
0.01	1	0.003999404999945	1	51	57.9696475129999	NA	1	0	1.08	1	52.857902473	52.8619018779999	"4"	895.266581423	892.572161196	1.5	0.1
0.01	1	0.135287974999983	1	51	57.9696475129999	NA	1	0	1.08	1	53.091725573	53.2270135479999	"4"	895.266581423	892.572161196	1.5	0.1
0.01	1	0.00366974200005643	1	51	57.9696475129999	NA	1	0	1.08	1	53.4589425299999	53.462612272	"4"	895.266581423	892.572161196	1.5	0.1
0.01	1	0.150043797999956	1	51	57.9696475129999	NA	1	0	1.08	1	53.692708018	53.8427518159999	"4"	895.266581423	892.572161196	1.5	0.1
0.01	1	0.00377982399993471	1	51	57.9696475129999	NA	1	0	1.08	1	54.076668908	54.0804487319999	"4"	895.266581423	892.572161196	1.5	0.1
0.01	1	0.00387758400006533	1	51	57.9696475129999	NA	1	0	1.08	1	54.3103920279999	54.314269612	"4"	895.266581423	892.572161196	1.5	0.1
0.01	1	0.00474649199998112	1	51	57.9696475129999	NA	1	0	1.08	1	54.544147018	54.54889351	"4"	895.266581423	892.572161196	1.5	0.1
0.01	1	0.00381061100006264	1	51	57.9696475129999	NA	1	0	1.08	1	54.7778841749999	54.781694786	"4"	895.266581423	892.572161196	1.5	0.1
0.01	1	0.00425656300001265	1	51	57.9696475129999	NA	1	0	1.08	1	55.011561315	55.015817878	"4"	895.266581423	892.572161196	1.5	0.1
0.01	1	0.00390336899999966	1	51	57.9696475129999	NA	1	0	1.08	1	55.245334763	55.249238132	"4"	895.266581423	892.572161196	1.5	0.1
0.01	1	0.00392151299990928	1	51	57.9696475129999	NA	1	0	1.08	1	55.479042423	55.4829639359999	"4"	895.266581423	892.572161196	1.5	0.1
0.01	1	0.137360823999984	1	51	57.9696475129999	NA	1	0	1.08	1	55.712744813	55.850105637	"4"	895.266581423	892.572161196	1.5	0.1
0.01	1	0.130862385	1	51	57.9696475129999	NA	1	0	1.08	1	56.079988923	56.210851308	"4"	895.266581423	892.572161196	1.5	0.1
0.01	1	0.00466685699996106	1	51	57.9696475129999	NA	1	0	1.08	1	56.447387718	56.4520545749999	"4"	895.266581423	892.572161196	1.5	0.1
0.01	1	0.113099695000074	1	51	57.9696475129999	NA	1	0	1.08	1	56.6811338379999	56.794233533	"4"	895.266581423	892.572161196	1.5	0.1
0.01	1	0.00206150000008165	1	51	57.9696475129999	NA	1	0	1.08	1	57.0315947429999	57.033656243	"4"	895.266581423	892.572161196	1.5	0.1
0.01	1	0.00388032000000749	1	51	57.9696475129999	NA	1	0	1.08	1	57.26531545	57.26919577	"4"	895.266581423	892.572161196	1.5	0.1
0.01	1	0.112612249999984	1	51	57.9696475129999	NA	1	0	1.08	1	57.4990986729999	57.6117109229999	"4"	895.266581423	892.572161196	1.5	0.1
0.01	1	0.00218666599994322	1	51	57.9696475129999	NA	1	0	1.08	1	57.849640552	57.8518272179999	"4"	895.266581423	892.572161196	1.5	0.1
0.01	1	1.87888590500006	1	116	NA	71.403179972	0	0.33	1.41	1	60.019946445	61.89883235	"5"	895.266581423	892.572161196	1.5	0.1
0.01	1	0.00404441900002439	1	116	NA	71.403179972	0	0.33	1.41	1	62.123516603	62.127561022	"5"	895.266581423	892.572161196	1.5	0.1
0.01	1	0.00393204299996341	1	116	NA	71.403179972	0	0.33	1.41	1	62.357273933	62.361205976	"5"	895.266581423	892.572161196	1.5	0.1
0.01	1	0.00474424500009718	1	116	NA	71.403179972	0	0.33	1.41	1	62.5910348179999	62.595779063	"5"	895.266581423	892.572161196	1.5	0.1
0.01	1	0.00373361899994507	1	116	NA	71.403179972	0	0.33	1.41	1	62.824626245	62.8283598639999	"5"	895.266581423	892.572161196	1.5	0.1
0.01	1	0.0044519500000888	1	116	NA	71.403179972	0	0.33	1.41	1	63.0585346429999	63.062986593	"5"	895.266581423	892.572161196	1.5	0.1
0.01	1	0.00410487299996021	1	116	NA	71.403179972	0	0.33	1.41	1	63.292185833	63.2962907059999	"5"	895.266581423	892.572161196	1.5	0.1
0.01	1	0.00406646400006139	1	116	NA	71.403179972	0	0.33	1.41	1	63.5258888779999	63.529955342	"5"	895.266581423	892.572161196	1.5	0.1
0.01	1	0.00467575700008638	1	116	NA	71.403179972	0	0.33	1.41	1	63.7596866729999	63.76436243	"5"	895.266581423	892.572161196	1.5	0.1
0.01	1	0.00352645199996005	1	116	NA	71.403179972	0	0.33	1.41	1	63.993311448	63.9968378999999	"5"	895.266581423	892.572161196	1.5	0.1
0.01	1	0.00417732800008253	1	116	NA	71.403179972	0	0.33	1.41	1	64.2271210199999	64.231298348	"5"	895.266581423	892.572161196	1.5	0.1
0.01	1	0.00397488800001611	1	116	NA	71.403179972	0	0.33	1.41	1	64.460793248	64.464768136	"5"	895.266581423	892.572161196	1.5	0.1
0.01	1	0.0039653299999145	1	116	NA	71.403179972	0	0.33	1.41	1	64.694529558	64.6984948879999	"5"	895.266581423	892.572161196	1.5	0.1
0.01	1	0.00342947899991941	1	116	NA	71.403179972	0	0.33	1.41	1	64.928288285	64.9317177639999	"5"	895.266581423	892.572161196	1.5	0.1
0.01	1	0.00384761599991634	1	116	NA	71.403179972	0	0.33	1.41	1	65.16203509	65.1658827059999	"5"	895.266581423	892.572161196	1.5	0.1
0.01	1	0.00470271500000763	1	116	NA	71.403179972	0	0.33	1.41	1	65.3956975929999	65.4004003079999	"5"	895.266581423	892.572161196	1.5	0.1
0.01	1	0.00402640499999052	1	116	NA	71.403179972	0	0.33	1.41	1	65.6294201129999	65.6334465179999	"5"	895.266581423	892.572161196	1.5	0.1
0.01	1	0.00472659499996553	1	116	NA	71.403179972	0	0.33	1.41	1	65.8631928779999	65.8679194729999	"5"	895.266581423	892.572161196	1.5	0.1
0.01	1	0.00373621500000354	1	116	NA	71.403179972	0	0.33	1.41	1	66.096820793	66.100557008	"5"	895.266581423	892.572161196	1.5	0.1
0.01	1	0.00400562599998011	1	116	NA	71.403179972	0	0.33	1.41	1	66.330525988	66.334531614	"5"	895.266581423	892.572161196	1.5	0.1
0.01	1	0.00411469100004069	1	116	NA	71.403179972	0	0.33	1.41	1	66.564350755	66.568465446	"5"	895.266581423	892.572161196	1.5	0.1
0.01	1	0.00394378900000447	1	116	NA	71.403179972	0	0.33	1.41	1	66.797993293	66.801937082	"5"	895.266581423	892.572161196	1.5	0.1
0.01	1	0.00340889599999628	1	116	NA	71.403179972	0	0.33	1.41	1	67.0318192239999	67.0352281199999	"5"	895.266581423	892.572161196	1.5	0.1
0.01	1	0.00390290799998638	1	116	NA	71.403179972	0	0.33	1.41	1	67.2654964979999	67.2693994059999	"5"	895.266581423	892.572161196	1.5	0.1
0.01	1	0.00398003300006167	1	116	NA	71.403179972	0	0.33	1.41	1	67.4992449729999	67.503225006	"5"	895.266581423	892.572161196	1.5	0.1
0.01	1	0.00473465499999293	1	116	NA	71.403179972	0	0.33	1.41	1	67.733001148	67.737735803	"5"	895.266581423	892.572161196	1.5	0.1
0.01	1	0.00461002700001245	1	116	NA	71.403179972	0	0.33	1.41	1	67.966632701	67.971242728	"5"	895.266581423	892.572161196	1.5	0.1
0.01	1	0.00383756600001561	1	116	NA	71.403179972	0	0.33	1.41	1	68.200380508	68.204218074	"5"	895.266581423	892.572161196	1.5	0.1
0.01	1	0.00383698599989657	1	116	NA	71.403179972	0	0.33	1.41	1	68.434083148	68.4379201339999	"5"	895.266581423	892.572161196	1.5	0.1
0.01	1	0.00406162299998414	1	116	NA	71.403179972	0	0.33	1.41	1	68.6678777249999	68.6719393479999	"5"	895.266581423	892.572161196	1.5	0.1
0.01	1	0.00398952700004429	1	116	NA	71.403179972	0	0.33	1.41	1	68.9015848749999	68.905574402	"5"	895.266581423	892.572161196	1.5	0.1
0.01	1	0.00405852099993353	1	116	NA	71.403179972	0	0.33	1.41	1	69.135328383	69.1393869039999	"5"	895.266581423	892.572161196	1.5	0.1
0.01	1	0.00405536300002041	1	116	NA	71.403179972	0	0.33	1.41	1	69.3689953229999	69.3730506859999	"5"	895.266581423	892.572161196	1.5	0.1
0.01	1	1.79894441300007	2	116	NA	71.403179972	0	0.33	1.41	1	69.6027059129999	71.401650326	"5"	895.266581423	892.572161196	1.5	0.1
0.01	1	0.728481274999922	1	118	NA	80.084293463	0	0.2	1.61	1	73.442546558	74.1710278329999	"6"	895.266581423	892.572161196	1.5	0.1
0.01	1	0.00467755700003636	1	118	NA	80.084293463	0	0.2	1.61	1	74.4107858679999	74.415463425	"6"	895.266581423	892.572161196	1.5	0.1
0.01	1	0.00374935100001039	1	118	NA	80.084293463	0	0.2	1.61	1	74.644535713	74.648285064	"6"	895.266581423	892.572161196	1.5	0.1
0.01	1	0.00410091799994916	1	118	NA	80.084293463	0	0.2	1.61	1	74.878354428	74.8824553459999	"6"	895.266581423	892.572161196	1.5	0.1
0.01	1	0.00348426499999732	1	118	NA	80.084293463	0	0.2	1.61	1	75.1120768329999	75.1155610979999	"6"	895.266581423	892.572161196	1.5	0.1
0.01	1	0.00361002599993299	1	118	NA	80.084293463	0	0.2	1.61	1	75.34577225	75.3493822759999	"6"	895.266581423	892.572161196	1.5	0.1
0.01	1	0.0039716529998941	1	118	NA	80.084293463	0	0.2	1.61	1	75.579461905	75.5834335579999	"6"	895.266581423	892.572161196	1.5	0.1
0.01	1	0.00418780800009699	1	118	NA	80.084293463	0	0.2	1.61	1	75.8132954099999	75.817483218	"6"	895.266581423	892.572161196	1.5	0.1
0.01	1	0.00345133600001191	1	118	NA	80.084293463	0	0.2	1.61	1	76.04694937	76.050400706	"6"	895.266581423	892.572161196	1.5	0.1
0.01	1	0.00414949499997874	1	118	NA	80.084293463	0	0.2	1.61	1	76.280745683	76.2848951779999	"6"	895.266581423	892.572161196	1.5	0.1
0.01	1	0.0039032810000208	1	118	NA	80.084293463	0	0.2	1.61	1	76.5144149929999	76.518318274	"6"	895.266581423	892.572161196	1.5	0.1
0.01	1	0.00380750199997237	1	118	NA	80.084293463	0	0.2	1.61	1	76.74810499	76.751912492	"6"	895.266581423	892.572161196	1.5	0.1
0.01	1	0.00396003700006986	1	118	NA	80.084293463	0	0.2	1.61	1	76.9817799829999	76.98574002	"6"	895.266581423	892.572161196	1.5	0.1
0.01	1	0.00344921999999315	1	118	NA	80.084293463	0	0.2	1.61	1	77.215592422	77.219041642	"6"	895.266581423	892.572161196	1.5	0.1
0.01	1	0.0047341999999162	1	118	NA	80.084293463	0	0.2	1.61	1	77.449254763	77.4539889629999	"6"	895.266581423	892.572161196	1.5	0.1
0.01	1	0.00401721500008989	1	118	NA	80.084293463	0	0.2	1.61	1	77.6830428349999	77.68706005	"6"	895.266581423	892.572161196	1.5	0.1
0.01	1	0.00401503399996272	1	118	NA	80.084293463	0	0.2	1.61	1	77.91679569	77.9208107239999	"6"	895.266581423	892.572161196	1.5	0.1
0.01	1	0.00479563200008215	1	118	NA	80.084293463	0	0.2	1.61	1	78.1503985129999	78.155194145	"6"	895.266581423	892.572161196	1.5	0.1
0.01	1	0.00409813799990388	1	118	NA	80.084293463	0	0.2	1.61	1	78.384192718	78.3882908559999	"6"	895.266581423	892.572161196	1.5	0.1
0.01	1	0.00283098900001733	1	118	NA	80.084293463	0	0.2	1.61	1	78.617865994	78.620696983	"6"	895.266581423	892.572161196	1.5	0.1
0.01	1	1.23107550899999	2	118	NA	80.084293463	0	0.2	1.61	1	78.851624531	80.08270004	"6"	895.266581423	892.572161196	1.5	0.1
0.01	1	0.172679227000003	1	87	NA	92.691966818	0	0.34	1.95	1	82.1405468639999	82.3132260909999	"7"	895.266581423	892.572161196	1.5	0.1
0.01	1	0.00470174999998108	1	87	NA	92.691966818	0	0.34	1.95	1	82.541214898	82.545916648	"7"	895.266581423	892.572161196	1.5	0.1
0.01	1	0.0039987170000586	1	87	NA	92.691966818	0	0.34	1.95	1	82.7748748729999	82.77887359	"7"	895.266581423	892.572161196	1.5	0.1
0.01	1	0.00349777199994605	1	87	NA	92.691966818	0	0.34	1.95	1	83.008632608	83.0121303799999	"7"	895.266581423	892.572161196	1.5	0.1
0.01	1	0.00371479299997191	1	87	NA	92.691966818	0	0.34	1.95	1	83.242406653	83.246121446	"7"	895.266581423	892.572161196	1.5	0.1
0.01	1	0.00387324099995112	1	87	NA	92.691966818	0	0.34	1.95	1	83.476052363	83.479925604	"7"	895.266581423	892.572161196	1.5	0.1
0.01	1	0.00469387700002244	1	87	NA	92.691966818	0	0.34	1.95	1	83.709807213	83.71450109	"7"	895.266581423	892.572161196	1.5	0.1
0.01	1	0.00390499000002364	1	87	NA	92.691966818	0	0.34	1.95	1	83.9435741279999	83.9474791179999	"7"	895.266581423	892.572161196	1.5	0.1
0.01	1	0.0036745880000808	1	87	NA	92.691966818	0	0.34	1.95	1	84.1772479379999	84.180922526	"7"	895.266581423	892.572161196	1.5	0.1
0.01	1	0.00421809600004508	1	87	NA	92.691966818	0	0.34	1.95	1	84.4110502379999	84.415268334	"7"	895.266581423	892.572161196	1.5	0.1
0.01	1	0.00413736300004075	1	87	NA	92.691966818	0	0.34	1.95	1	84.6447212329999	84.648858596	"7"	895.266581423	892.572161196	1.5	0.1
0.01	1	0.00463510199995198	1	87	NA	92.691966818	0	0.34	1.95	1	84.878541814	84.8831769159999	"7"	895.266581423	892.572161196	1.5	0.1
0.01	1	0.00470808499994746	1	87	NA	92.691966818	0	0.34	1.95	1	85.112181493	85.1168895779999	"7"	895.266581423	892.572161196	1.5	0.1
0.01	1	0.00374291200000698	1	87	NA	92.691966818	0	0.34	1.95	1	85.345890168	85.34963308	"7"	895.266581423	892.572161196	1.5	0.1
0.01	1	0.00415234100000816	1	87	NA	92.691966818	0	0.34	1.95	1	85.5796228529999	85.5837751939999	"7"	895.266581423	892.572161196	1.5	0.1
0.01	1	0.0039048679999496	1	87	NA	92.691966818	0	0.34	1.95	1	85.813401938	85.8173068059999	"7"	895.266581423	892.572161196	1.5	0.1
0.01	1	0.00383563599996251	1	87	NA	92.691966818	0	0.34	1.95	1	86.04711419	86.050949826	"7"	895.266581423	892.572161196	1.5	0.1
0.01	1	0.00339091000000735	1	87	NA	92.691966818	0	0.34	1.95	1	86.2807939759999	86.2841848859999	"7"	895.266581423	892.572161196	1.5	0.1
0.01	1	0.00352033100000426	1	87	NA	92.691966818	0	0.34	1.95	1	86.5145937249999	86.5181140559999	"7"	895.266581423	892.572161196	1.5	0.1
0.01	1	0.00397658400004275	1	87	NA	92.691966818	0	0.34	1.95	1	86.7483366299999	86.752313214	"7"	895.266581423	892.572161196	1.5	0.1
0.01	1	0.00472899499993673	1	87	NA	92.691966818	0	0.34	1.95	1	86.982030033	86.9867590279999	"7"	895.266581423	892.572161196	1.5	0.1
0.01	1	0.00437196500001846	1	87	NA	92.691966818	0	0.34	1.95	1	87.215714083	87.220086048	"7"	895.266581423	892.572161196	1.5	0.1
0.01	1	0.00477298999999221	1	87	NA	92.691966818	0	0.34	1.95	1	87.449520863	87.454293853	"7"	895.266581423	892.572161196	1.5	0.1
0.01	1	0.00402342899997166	1	87	NA	92.691966818	0	0.34	1.95	1	87.683177333	87.687200762	"7"	895.266581423	892.572161196	1.5	0.1
0.01	1	0.00398677800001224	1	87	NA	92.691966818	0	0.34	1.95	1	87.9169605	87.920947278	"7"	895.266581423	892.572161196	1.5	0.1
0.01	1	0.00400625299994317	1	87	NA	92.691966818	0	0.34	1.95	1	88.150678665	88.1546849179999	"7"	895.266581423	892.572161196	1.5	0.1
0.01	1	0.00419302000000243	1	87	NA	92.691966818	0	0.34	1.95	1	88.3843230079999	88.3885160279999	"7"	895.266581423	892.572161196	1.5	0.1
0.01	1	0.00346085300009236	1	87	NA	92.691966818	0	0.34	1.95	1	88.6180464629999	88.621507316	"7"	895.266581423	892.572161196	1.5	0.1
0.01	1	0.00364466899998206	1	87	NA	92.691966818	0	0.34	1.95	1	88.851772473	88.855417142	"7"	895.266581423	892.572161196	1.5	0.1
0.01	1	0.00470285200003673	1	87	NA	92.691966818	0	0.34	1.95	1	89.0855268729999	89.090229725	"7"	895.266581423	892.572161196	1.5	0.1
0.01	1	0.00386759399998482	1	87	NA	92.691966818	0	0.34	1.95	1	89.319263738	89.323131332	"7"	895.266581423	892.572161196	1.5	0.1
0.01	1	0.00400386799992702	1	87	NA	92.691966818	0	0.34	1.95	1	89.55290712	89.5569109879999	"7"	895.266581423	892.572161196	1.5	0.1
0.01	1	0.00471294200008288	1	87	NA	92.691966818	0	0.34	1.95	1	89.7866384629999	89.791351405	"7"	895.266581423	892.572161196	1.5	0.1
0.01	1	0.00404477200004294	1	87	NA	92.691966818	0	0.34	1.95	1	90.0203186699999	90.024363442	"7"	895.266581423	892.572161196	1.5	0.1
0.01	1	2.43622340800005	2	87	NA	92.691966818	0	0.34	1.95	1	90.2541620879999	92.690385496	"7"	895.266581423	892.572161196	1.5	0.1
0.01	1	0.656760728999984	1	6	96.685459685	NA	1	0	1.95	1	94.745063823	95.401824552	"8"	895.266581423	892.572161196	1.5	0.1
0.01	1	0.00446894900005645	1	6	96.685459685	NA	1	0	1.95	1	95.6299621539999	95.634431103	"8"	895.266581423	892.572161196	1.5	0.1
0.01	1	0.00396591900005205	1	6	96.685459685	NA	1	0	1.95	1	95.863546825	95.867512744	"8"	895.266581423	892.572161196	1.5	0.1
0.01	1	0.00366408299998966	1	6	96.685459685	NA	1	0	1.95	1	96.097321233	96.100985316	"8"	895.266581423	892.572161196	1.5	0.1
0.01	1	0.00382132400000046	1	6	96.685459685	NA	1	0	1.95	1	96.330988198	96.334809522	"8"	895.266581423	892.572161196	1.5	0.1
0.01	1	0.00392396799998096	1	6	96.685459685	NA	1	0	1.95	1	96.564765168	96.568689136	"8"	895.266581423	892.572161196	1.5	0.1
0.01	1	0.218345458000044	1	106	NA	100.402749669	0	0.06	2.01	1	98.735047285	98.953392743	"9"	895.266581423	892.572161196	1.5	0.1
0.01	1	0.00428336999993917	1	106	NA	100.402749669	0	0.06	2.01	1	99.185782638	99.1900660079999	"9"	895.266581423	892.572161196	1.5	0.1
0.01	1	0.00474908199998936	1	106	NA	100.402749669	0	0.06	2.01	1	99.419615403	99.424364485	"9"	895.266581423	892.572161196	1.5	0.1
0.01	1	0.00360854300004121	1	106	NA	100.402749669	0	0.06	2.01	1	99.653293215	99.656901758	"9"	895.266581423	892.572161196	1.5	0.1
0.01	1	0.0047480270000051	1	106	NA	100.402749669	0	0.06	2.01	1	99.887068163	99.89181619	"9"	895.266581423	892.572161196	1.5	0.1
0.01	1	0.00387379299991153	1	106	NA	100.402749669	0	0.06	2.01	1	100.120688083	100.124561876	"9"	895.266581423	892.572161196	1.5	0.1
0.01	1	0.0466761149999684	2	106	NA	100.402749669	0	0.06	2.01	1	100.354491515	100.40116763	"9"	895.266581423	892.572161196	1.5	0.1
0.01	1	0.088023292999992	1	21	107.319333635	NA	1	0	2.01	1	102.44126249	102.529285783	"10"	895.266581423	892.572161196	1.5	0.1
0.01	1	0.00394881699992311	1	21	107.319333635	NA	1	0	2.01	1	102.758552935	102.762501752	"10"	895.266581423	892.572161196	1.5	0.1
0.01	1	0.00471244500010926	1	21	107.319333635	NA	1	0	2.01	1	102.992249988	102.996962433	"10"	895.266581423	892.572161196	1.5	0.1
0.01	1	0.00350271100001009	1	21	107.319333635	NA	1	0	2.01	1	103.225865053	103.229367764	"10"	895.266581423	892.572161196	1.5	0.1
0.01	1	0.00386621000006926	1	21	107.319333635	NA	1	0	2.01	1	103.459719498	103.463585708	"10"	895.266581423	892.572161196	1.5	0.1
0.01	1	0.00471039000001383	1	21	107.319333635	NA	1	0	2.01	1	103.693410848	103.698121238	"10"	895.266581423	892.572161196	1.5	0.1
0.01	1	0.00395617699996365	1	21	107.319333635	NA	1	0	2.01	1	103.927217825	103.931174002	"10"	895.266581423	892.572161196	1.5	0.1
0.01	1	0.00387310400003571	1	21	107.319333635	NA	1	0	2.01	1	104.160899838	104.164772942	"10"	895.266581423	892.572161196	1.5	0.1
0.01	1	0.00485551500003112	1	21	107.319333635	NA	1	0	2.01	1	104.394662833	104.399518348	"10"	895.266581423	892.572161196	1.5	0.1
0.01	1	0.00331809800002247	1	21	107.319333635	NA	1	0	2.01	1	104.628307324	104.631625422	"10"	895.266581423	892.572161196	1.5	0.1
0.01	1	0.00372884500006876	1	21	107.319333635	NA	1	0	2.01	1	104.862124123	104.865852968	"10"	895.266581423	892.572161196	1.5	0.1
0.01	1	0.00388512600000013	1	21	107.319333635	NA	1	0	2.01	1	105.095816008	105.099701134	"10"	895.266581423	892.572161196	1.5	0.1
0.01	1	0.00443000200004917	1	21	107.319333635	NA	1	0	2.01	1	105.329503953	105.333933955	"10"	895.266581423	892.572161196	1.5	0.1
0.01	1	0.00370334299998376	1	21	107.319333635	NA	1	0	2.01	1	105.563225625	105.566928968	"10"	895.266581423	892.572161196	1.5	0.1
0.01	1	0.00367940399996769	1	21	107.319333635	NA	1	0	2.01	1	105.796806848	105.800486252	"10"	895.266581423	892.572161196	1.5	0.1
0.01	1	0.00481931700005589	1	21	107.319333635	NA	1	0	2.01	1	106.030759153	106.03557847	"10"	895.266581423	892.572161196	1.5	0.1
0.01	1	0.0047389320000093	1	21	107.319333635	NA	1	0	2.01	1	106.264359863	106.269098795	"10"	895.266581423	892.572161196	1.5	0.1
0.01	1	0.00343498000006548	1	21	107.319333635	NA	1	0	2.01	1	106.498100924	106.501535904	"10"	895.266581423	892.572161196	1.5	0.1
0.01	1	0.00384895399997731	1	21	107.319333635	NA	1	0	2.01	1	106.731841818	106.735690772	"10"	895.266581423	892.572161196	1.5	0.1
0.01	1	0.00484780700003284	1	21	107.319333635	NA	1	0	2.01	1	106.965593103	106.97044091	"10"	895.266581423	892.572161196	1.5	0.1
0.01	1	0.00467657199999394	1	21	107.319333635	NA	1	0	2.01	1	107.199355523	107.204032095	"10"	895.266581423	892.572161196	1.5	0.1
0.01	1	0.00219826500006093	1	19	NA	114.715710347	0	0.15	2.16	1	109.369668217	109.371866482	"11"	895.266581423	892.572161196	1.5	0.1
0.01	1	0.00412237699993057	1	19	NA	114.715710347	0	0.15	2.16	1	109.603333325	109.607455702	"11"	895.266581423	892.572161196	1.5	0.1
0.01	1	0.00405308799997783	1	19	NA	114.715710347	0	0.15	2.16	1	109.837131048	109.841184136	"11"	895.266581423	892.572161196	1.5	0.1
0.01	1	0.00387819799993849	1	19	NA	114.715710347	0	0.15	2.16	1	110.070863638	110.074741836	"11"	895.266581423	892.572161196	1.5	0.1
0.01	1	0.0044824859999153	1	19	NA	114.715710347	0	0.15	2.16	1	110.304584244	110.30906673	"11"	895.266581423	892.572161196	1.5	0.1
0.01	1	0.0039671620000945	1	19	NA	114.715710347	0	0.15	2.16	1	110.53828664	110.542253802	"11"	895.266581423	892.572161196	1.5	0.1
0.01	1	0.00379210100004457	1	19	NA	114.715710347	0	0.15	2.16	1	110.771963145	110.775755246	"11"	895.266581423	892.572161196	1.5	0.1
0.01	1	0.00382102499997927	1	19	NA	114.715710347	0	0.15	2.16	1	111.005627523	111.009448548	"11"	895.266581423	892.572161196	1.5	0.1
0.01	1	0.00385426800005462	1	19	NA	114.715710347	0	0.15	2.16	1	111.239455988	111.243310256	"11"	895.266581423	892.572161196	1.5	0.1
0.01	1	0.00423132800005988	1	19	NA	114.715710347	0	0.15	2.16	1	111.47319945	111.477430778	"11"	895.266581423	892.572161196	1.5	0.1
0.01	1	0.00459471200008466	1	19	NA	114.715710347	0	0.15	2.16	1	111.706865083	111.711459795	"11"	895.266581423	892.572161196	1.5	0.1
0.01	1	0.00502693500004625	1	19	NA	114.715710347	0	0.15	2.16	1	111.940591888	111.945618823	"11"	895.266581423	892.572161196	1.5	0.1
0.01	1	0.00398929799996495	1	19	NA	114.715710347	0	0.15	2.16	1	112.174275018	112.178264316	"11"	895.266581423	892.572161196	1.5	0.1
0.01	1	0.00404701399997975	1	19	NA	114.715710347	0	0.15	2.16	1	112.40807062	112.412117634	"11"	895.266581423	892.572161196	1.5	0.1
0.01	1	0.00414859599993633	1	19	NA	114.715710347	0	0.15	2.16	1	112.641873628	112.646022224	"11"	895.266581423	892.572161196	1.5	0.1
0.01	1	1.83869545200002	2	19	NA	114.715710347	0	0.15	2.16	1	112.875495188	114.71419064	"11"	895.266581423	892.572161196	1.5	0.1
0.01	1	0.461417952000033	1	63	NA	123.722992193	0	0.22	2.38	1	116.765447423	117.226865375	"12"	895.266581423	892.572161196	1.5	0.1
0.01	1	0.00375603899999533	1	63	NA	123.722992193	0	0.22	2.38	1	117.466588973	117.470345012	"12"	895.266581423	892.572161196	1.5	0.1
0.01	1	0.00402475300006699	1	63	NA	123.722992193	0	0.22	2.38	1	117.700428553	117.704453306	"12"	895.266581423	892.572161196	1.5	0.1
0.01	1	0.00416292399995655	1	63	NA	123.722992193	0	0.22	2.38	1	117.93414409	117.938307014	"12"	895.266581423	892.572161196	1.5	0.1
0.01	1	0.00407758800008651	1	63	NA	123.722992193	0	0.22	2.38	1	118.167802828	118.171880416	"12"	895.266581423	892.572161196	1.5	0.1
0.01	1	0.00366778800002976	1	63	NA	123.722992193	0	0.22	2.38	1	118.401449068	118.405116856	"12"	895.266581423	892.572161196	1.5	0.1
0.01	1	0.00394934600001307	1	63	NA	123.722992193	0	0.22	2.38	1	118.635267918	118.639217264	"12"	895.266581423	892.572161196	1.5	0.1
0.01	1	0.00475684999992154	1	63	NA	123.722992193	0	0.22	2.38	1	118.868879708	118.873636558	"12"	895.266581423	892.572161196	1.5	0.1
0.01	1	0.00359403999993901	1	63	NA	123.722992193	0	0.22	2.38	1	119.10273493	119.10632897	"12"	895.266581423	892.572161196	1.5	0.1
0.01	1	0.00384855499999048	1	63	NA	123.722992193	0	0.22	2.38	1	119.336403943	119.340252498	"12"	895.266581423	892.572161196	1.5	0.1
0.01	1	0.00394031499990888	1	63	NA	123.722992193	0	0.22	2.38	1	119.570092153	119.574032468	"12"	895.266581423	892.572161196	1.5	0.1
0.01	1	0.00388849499995558	1	63	NA	123.722992193	0	0.22	2.38	1	119.803932705	119.8078212	"12"	895.266581423	892.572161196	1.5	0.1
0.01	1	0.00384123699996053	1	63	NA	123.722992193	0	0.22	2.38	1	120.037629165	120.041470402	"12"	895.266581423	892.572161196	1.5	0.1
0.01	1	0.00404914599994299	1	63	NA	123.722992193	0	0.22	2.38	1	120.2713606	120.275409746	"12"	895.266581423	892.572161196	1.5	0.1
0.01	1	0.00425311899994085	1	63	NA	123.722992193	0	0.22	2.38	1	120.504956053	120.509209172	"12"	895.266581423	892.572161196	1.5	0.1
0.01	1	0.00410674099998687	1	63	NA	123.722992193	0	0.22	2.38	1	120.738673565	120.742780306	"12"	895.266581423	892.572161196	1.5	0.1
0.01	1	0.00399821799999245	1	63	NA	123.722992193	0	0.22	2.38	1	120.97247125	120.976469468	"12"	895.266581423	892.572161196	1.5	0.1
0.01	1	0.00399580700002389	1	63	NA	123.722992193	0	0.22	2.38	1	121.206208953	121.21020476	"12"	895.266581423	892.572161196	1.5	0.1
0.01	1	0.282038958999919	1	63	NA	123.722992193	0	0.22	2.38	1	121.439953983	121.721992942	"12"	895.266581423	892.572161196	1.5	0.1
0.01	1	0.00479082000003928	1	63	NA	123.722992193	0	0.22	2.38	1	121.957489478	121.962280298	"12"	895.266581423	892.572161196	1.5	0.1
0.01	1	0.218590215999939	1	63	NA	123.722992193	0	0.22	2.38	1	122.191282828	122.409873044	"12"	895.266581423	892.572161196	1.5	0.1
0.01	1	0.400772248999942	1	63	NA	123.722992193	0	0.22	2.38	1	122.641929938	123.042702187	"12"	895.266581423	892.572161196	1.5	0.1
0.01	1	0.445036766000044	2	63	NA	123.722992193	0	0.22	2.38	1	123.276396948	123.721433714	"12"	895.266581423	892.572161196	1.5	0.1
0.01	1	0.00405320800007303	1	54	NA	135.732579001	0	0.27	2.65	1	125.747084618	125.751137826	"13"	895.266581423	892.572161196	1.5	0.1
0.01	1	0.0039519230000451	1	54	NA	135.732579001	0	0.27	2.65	1	125.980846173	125.984798096	"13"	895.266581423	892.572161196	1.5	0.1
0.01	1	0.0261824570000044	1	54	NA	135.732579001	0	0.27	2.65	1	126.21466394	126.240846397	"13"	895.266581423	892.572161196	1.5	0.1
0.01	1	0.00403073699999368	1	54	NA	135.732579001	0	0.27	2.65	1	126.481824833	126.48585557	"13"	895.266581423	892.572161196	1.5	0.1
0.01	1	0.00473934699994061	1	54	NA	135.732579001	0	0.27	2.65	1	126.715547498	126.720286845	"13"	895.266581423	892.572161196	1.5	0.1
0.01	1	0.00410055099996498	1	54	NA	135.732579001	0	0.27	2.65	1	126.949181095	126.953281646	"13"	895.266581423	892.572161196	1.5	0.1
0.01	1	0.0033877719999964	1	54	NA	135.732579001	0	0.27	2.65	1	127.18287199	127.186259762	"13"	895.266581423	892.572161196	1.5	0.1
0.01	1	0.00343589800002064	1	54	NA	135.732579001	0	0.27	2.65	1	127.416712574	127.420148472	"13"	895.266581423	892.572161196	1.5	0.1
0.01	1	0.004086118000032	1	54	NA	135.732579001	0	0.27	2.65	1	127.65037789	127.654464008	"13"	895.266581423	892.572161196	1.5	0.1
0.01	1	0.00394695299996783	1	54	NA	135.732579001	0	0.27	2.65	1	127.884195943	127.888142896	"13"	895.266581423	892.572161196	1.5	0.1
0.01	1	0.00350401100001818	1	54	NA	135.732579001	0	0.27	2.65	1	128.117825985	128.121329996	"13"	895.266581423	892.572161196	1.5	0.1
0.01	1	0.00400297099997715	1	54	NA	135.732579001	0	0.27	2.65	1	128.351483243	128.355486214	"13"	895.266581423	892.572161196	1.5	0.1
0.01	1	0.0655136679999941	1	54	NA	135.732579001	0	0.27	2.65	1	128.585243105	128.650756773	"13"	895.266581423	892.572161196	1.5	0.1
0.01	1	0.00385019899999861	1	54	NA	135.732579001	0	0.27	2.65	1	128.885736093	128.889586292	"13"	895.266581423	892.572161196	1.5	0.1
0.01	1	0.00410010099994906	1	54	NA	135.732579001	0	0.27	2.65	1	129.119440145	129.123540246	"13"	895.266581423	892.572161196	1.5	0.1
0.01	1	0.472966107999923	1	54	NA	135.732579001	0	0.27	2.65	1	129.353234928	129.826201036	"13"	895.266581423	892.572161196	1.5	0.1
0.01	1	0.00381473699997059	1	54	NA	135.732579001	0	0.27	2.65	1	130.054486665	130.058301402	"13"	895.266581423	892.572161196	1.5	0.1
0.01	1	0.417521401000045	1	54	NA	135.732579001	0	0.27	2.65	1	130.288160107	130.705681508	"13"	895.266581423	892.572161196	1.5	0.1
0.01	1	0.00413358800005881	1	54	NA	135.732579001	0	0.27	2.65	1	130.93925591	130.943389498	"13"	895.266581423	892.572161196	1.5	0.1
0.01	1	0.00394865700002356	1	54	NA	135.732579001	0	0.27	2.65	1	131.173002635	131.176951292	"13"	895.266581423	892.572161196	1.5	0.1
0.01	1	0.131518329999949	1	54	NA	135.732579001	0	0.27	2.65	1	131.406722395	131.538240725	"13"	895.266581423	892.572161196	1.5	0.1
0.01	1	0.124991617999967	1	54	NA	135.732579001	0	0.27	2.65	1	131.773927318	131.898918936	"13"	895.266581423	892.572161196	1.5	0.1
0.01	1	0.022093692999988	1	54	NA	135.732579001	0	0.27	2.65	1	132.124512573	132.146606266	"13"	895.266581423	892.572161196	1.5	0.1
0.01	1	0.00415701299993998	1	54	NA	135.732579001	0	0.27	2.65	1	132.374929683	132.379086696	"13"	895.266581423	892.572161196	1.5	0.1
0.01	1	0.744604944000002	1	54	NA	135.732579001	0	0.27	2.65	1	132.608767098	133.353372042	"13"	895.266581423	892.572161196	1.5	0.1
0.01	1	0.264610468000001	1	54	NA	135.732579001	0	0.27	2.65	1	133.593635498	133.858245966	"13"	895.266581423	892.572161196	1.5	0.1
0.01	1	0.187017180999987	1	54	NA	135.732579001	0	0.27	2.65	1	134.094571118	134.281588299	"13"	895.266581423	892.572161196	1.5	0.1
0.01	1	1.21912214299994	2	54	NA	135.732579001	0	0.27	2.65	1	134.511910533	135.731032676	"13"	895.266581423	892.572161196	1.5	0.1
0.01	1	0.769525380000005	1	103	NA	152.70579399	0	0.3	2.95	1	137.784047603	138.553572983	"14"	895.266581423	892.572161196	1.5	0.1
0.01	1	0.00408670600006644	1	103	NA	152.70579399	0	0.3	2.95	1	138.78583288	138.789919586	"14"	895.266581423	892.572161196	1.5	0.1
0.01	1	0.00405280800009677	1	103	NA	152.70579399	0	0.3	2.95	1	139.019551748	139.023604556	"14"	895.266581423	892.572161196	1.5	0.1
0.01	1	0.00362589899998511	1	103	NA	152.70579399	0	0.3	2.95	1	139.253228025	139.256853924	"14"	895.266581423	892.572161196	1.5	0.1
0.01	1	0.00393649199997981	1	103	NA	152.70579399	0	0.3	2.95	1	139.486938458	139.49087495	"14"	895.266581423	892.572161196	1.5	0.1
0.01	1	0.00345528200000444	1	103	NA	152.70579399	0	0.3	2.95	1	139.720680328	139.72413561	"14"	895.266581423	892.572161196	1.5	0.1
0.01	1	0.00225836999993589	1	103	NA	152.70579399	0	0.3	2.95	1	139.95441497	139.95667334	"14"	895.266581423	892.572161196	1.5	0.1
0.01	1	0.00359022600002845	1	103	NA	152.70579399	0	0.3	2.95	1	140.188116148	140.191706374	"14"	895.266581423	892.572161196	1.5	0.1
0.01	1	0.00395777699998234	1	103	NA	152.70579399	0	0.3	2.95	1	140.421803365	140.425761142	"14"	895.266581423	892.572161196	1.5	0.1
0.01	1	0.00478845199995703	1	103	NA	152.70579399	0	0.3	2.95	1	140.655638148	140.6604266	"14"	895.266581423	892.572161196	1.5	0.1
0.01	1	0.00393732800000635	1	103	NA	152.70579399	0	0.3	2.95	1	140.88932763	140.893264958	"14"	895.266581423	892.572161196	1.5	0.1
0.01	1	0.00395258699995793	1	103	NA	152.70579399	0	0.3	2.95	1	141.123000083	141.12695267	"14"	895.266581423	892.572161196	1.5	0.1
0.01	1	0.00469256999997469	1	103	NA	152.70579399	0	0.3	2.95	1	141.356812553	141.361505123	"14"	895.266581423	892.572161196	1.5	0.1
0.01	1	0.00372642599995743	1	103	NA	152.70579399	0	0.3	2.95	1	141.590487868	141.594214294	"14"	895.266581423	892.572161196	1.5	0.1
0.01	1	0.00388141500002348	1	103	NA	152.70579399	0	0.3	2.95	1	141.824259763	141.828141178	"14"	895.266581423	892.572161196	1.5	0.1
0.01	1	0.00400457199998527	1	103	NA	152.70579399	0	0.3	2.95	1	142.05794423	142.061948802	"14"	895.266581423	892.572161196	1.5	0.1
0.01	1	0.00403250300007585	1	103	NA	152.70579399	0	0.3	2.95	1	142.291597933	142.295630436	"14"	895.266581423	892.572161196	1.5	0.1
0.01	1	0.00351761399997486	1	103	NA	152.70579399	0	0.3	2.95	1	142.525430668	142.528948282	"14"	895.266581423	892.572161196	1.5	0.1
0.01	1	0.0034010040000112	1	103	NA	152.70579399	0	0.3	2.95	1	142.759122828	142.762523832	"14"	895.266581423	892.572161196	1.5	0.1
0.01	1	0.00383004700006495	1	103	NA	152.70579399	0	0.3	2.95	1	142.992838555	142.996668602	"14"	895.266581423	892.572161196	1.5	0.1
0.01	1	0.00401595400001042	1	103	NA	152.70579399	0	0.3	2.95	1	143.226525888	143.230541842	"14"	895.266581423	892.572161196	1.5	0.1
0.01	1	0.00468292499999734	1	103	NA	152.70579399	0	0.3	2.95	1	143.460321503	143.465004428	"14"	895.266581423	892.572161196	1.5	0.1
0.01	1	0.00373539700001402	1	103	NA	152.70579399	0	0.3	2.95	1	143.694016745	143.697752142	"14"	895.266581423	892.572161196	1.5	0.1
0.01	1	0.00409860899992509	1	103	NA	152.70579399	0	0.3	2.95	1	143.927676183	143.931774792	"14"	895.266581423	892.572161196	1.5	0.1
0.01	1	0.00325149799994051	1	103	NA	152.70579399	0	0.3	2.95	1	144.161372218	144.164623716	"14"	895.266581423	892.572161196	1.5	0.1
0.01	1	0.00400078100005885	1	103	NA	152.70579399	0	0.3	2.95	1	144.395204043	144.399204824	"14"	895.266581423	892.572161196	1.5	0.1
0.01	1	0.00477503000001889	1	103	NA	152.70579399	0	0.3	2.95	1	144.628916508	144.633691538	"14"	895.266581423	892.572161196	1.5	0.1
0.01	1	0.59475432499994	1	103	NA	152.70579399	0	0.3	2.95	1	144.862679525	145.45743385	"14"	895.266581423	892.572161196	1.5	0.1
0.01	1	0.240945285999942	1	103	NA	152.70579399	0	0.3	2.95	1	145.680608668	145.921553954	"14"	895.266581423	892.572161196	1.5	0.1
0.01	1	0.230388353999956	1	103	NA	152.70579399	0	0.3	2.95	1	146.148100613	146.378488967	"14"	895.266581423	892.572161196	1.5	0.1
0.01	1	6.08871828500003	2	103	NA	152.70579399	0	0.3	2.95	1	146.615583318	152.704301603	"14"	895.266581423	892.572161196	1.5	0.1
0.01	1	1.09236805900002	1	120	NA	160.384386332	0	0.18	3.13	1	154.762579585	155.854947644	"15"	895.266581423	892.572161196	1.5	0.1
0.01	1	0.00403921200006607	1	120	NA	160.384386332	0	0.18	3.13	1	156.081447278	156.08548649	"15"	895.266581423	892.572161196	1.5	0.1
0.01	1	0.00463702199999716	1	120	NA	160.384386332	0	0.18	3.13	1	156.315223688	156.31986071	"15"	895.266581423	892.572161196	1.5	0.1
0.01	1	0.00396370699991166	1	120	NA	160.384386332	0	0.18	3.13	1	156.548956385	156.552920092	"15"	895.266581423	892.572161196	1.5	0.1
0.01	1	0.00471071200001916	1	120	NA	160.384386332	0	0.18	3.13	1	156.782702958	156.78741367	"15"	895.266581423	892.572161196	1.5	0.1
0.01	1	0.003801142000043	1	120	NA	160.384386332	0	0.18	3.13	1	157.01633719	157.020138332	"15"	895.266581423	892.572161196	1.5	0.1
0.01	1	0.00386435900009019	1	120	NA	160.384386332	0	0.18	3.13	1	157.250191445	157.254055804	"15"	895.266581423	892.572161196	1.5	0.1
0.01	1	0.00385680900001262	1	120	NA	160.384386332	0	0.18	3.13	1	157.483841573	157.487698382	"15"	895.266581423	892.572161196	1.5	0.1
0.01	1	0.0035589470001014	1	120	NA	160.384386332	0	0.18	3.13	1	157.717639295	157.721198242	"15"	895.266581423	892.572161196	1.5	0.1
0.01	1	0.0044594619999998	1	120	NA	160.384386332	0	0.18	3.13	1	157.951308323	157.955767785	"15"	895.266581423	892.572161196	1.5	0.1
0.01	1	0.0040568639999492	1	120	NA	160.384386332	0	0.18	3.13	1	158.185112678	158.189169542	"15"	895.266581423	892.572161196	1.5	0.1
0.01	1	0.00412984299998698	1	120	NA	160.384386332	0	0.18	3.13	1	158.418784505	158.422914348	"15"	895.266581423	892.572161196	1.5	0.1
0.01	1	0.00417442100001608	1	120	NA	160.384386332	0	0.18	3.13	1	158.652462943	158.656637364	"15"	895.266581423	892.572161196	1.5	0.1
0.01	1	0.00470896700005596	1	120	NA	160.384386332	0	0.18	3.13	1	158.886187283	158.89089625	"15"	895.266581423	892.572161196	1.5	0.1
0.01	1	0.0045866149999938	1	120	NA	160.384386332	0	0.18	3.13	1	159.11994094	159.124527555	"15"	895.266581423	892.572161196	1.5	0.1
0.01	1	0.00398008500008018	1	120	NA	160.384386332	0	0.18	3.13	1	159.353647333	159.357627418	"15"	895.266581423	892.572161196	1.5	0.1
0.01	1	0.00457948500002203	1	120	NA	160.384386332	0	0.18	3.13	1	159.58745525	159.592034735	"15"	895.266581423	892.572161196	1.5	0.1
0.01	1	0.00342024799999763	1	120	NA	160.384386332	0	0.18	3.13	1	159.821172718	159.824592966	"15"	895.266581423	892.572161196	1.5	0.1
0.01	1	0.328025995999951	2	120	NA	160.384386332	0	0.18	3.13	1	160.054822468	160.382848464	"15"	895.266581423	892.572161196	1.5	0.1
0.01	1	4.07114491599998	1	109	NA	172.457714057	0	0.23	3.36	1	162.408723818	166.479868734	"16"	895.266581423	892.572161196	1.5	0.1
0.01	1	0.00373956999999336	1	109	NA	172.457714057	0	0.23	3.36	1	166.71598193	166.7197215	"16"	895.266581423	892.572161196	1.5	0.1
0.01	1	0.00408084399998643	1	109	NA	172.457714057	0	0.23	3.36	1	166.949800758	166.953881602	"16"	895.266581423	892.572161196	1.5	0.1
0.01	1	0.00391475699996136	1	109	NA	172.457714057	0	0.23	3.36	1	167.183486603	167.18740136	"16"	895.266581423	892.572161196	1.5	0.1
0.01	1	0.00467568200008373	1	109	NA	172.457714057	0	0.23	3.36	1	167.417252628	167.42192831	"16"	895.266581423	892.572161196	1.5	0.1
0.01	1	0.00392273099998874	1	109	NA	172.457714057	0	0.23	3.36	1	167.650964235	167.654886966	"16"	895.266581423	892.572161196	1.5	0.1
0.01	1	0.00405772699991758	1	109	NA	172.457714057	0	0.23	3.36	1	167.884694545	167.888752272	"16"	895.266581423	892.572161196	1.5	0.1
0.01	1	0.00398766800003614	1	109	NA	172.457714057	0	0.23	3.36	1	168.118481628	168.122469296	"16"	895.266581423	892.572161196	1.5	0.1
0.01	1	0.0047051049999709	1	109	NA	172.457714057	0	0.23	3.36	1	168.352172473	168.356877578	"16"	895.266581423	892.572161196	1.5	0.1
0.01	1	0.00357871000005616	1	109	NA	172.457714057	0	0.23	3.36	1	168.585856438	168.589435148	"16"	895.266581423	892.572161196	1.5	0.1
0.01	1	0.00410490799993113	1	109	NA	172.457714057	0	0.23	3.36	1	168.81950696	168.823611868	"16"	895.266581423	892.572161196	1.5	0.1
0.01	1	0.00394236099998579	1	109	NA	172.457714057	0	0.23	3.36	1	169.053277195	169.057219556	"16"	895.266581423	892.572161196	1.5	0.1
0.01	1	0.00385033400004886	1	109	NA	172.457714057	0	0.23	3.36	1	169.287104448	169.290954782	"16"	895.266581423	892.572161196	1.5	0.1
0.01	1	0.00343786200005525	1	109	NA	172.457714057	0	0.23	3.36	1	169.520735842	169.524173704	"16"	895.266581423	892.572161196	1.5	0.1
0.01	1	0.00376945199991496	1	109	NA	172.457714057	0	0.23	3.36	1	169.75445773	169.758227182	"16"	895.266581423	892.572161196	1.5	0.1
0.01	1	0.00393804800000908	1	109	NA	172.457714057	0	0.23	3.36	1	169.988224438	169.992162486	"16"	895.266581423	892.572161196	1.5	0.1
0.01	1	0.00332439999999679	1	109	NA	172.457714057	0	0.23	3.36	1	170.221981532	170.225305932	"16"	895.266581423	892.572161196	1.5	0.1
0.01	1	0.00227369399999588	1	109	NA	172.457714057	0	0.23	3.36	1	170.455678699	170.457952393	"16"	895.266581423	892.572161196	1.5	0.1
0.01	1	0.00375671300002978	1	109	NA	172.457714057	0	0.23	3.36	1	170.689441885	170.693198598	"16"	895.266581423	892.572161196	1.5	0.1
0.01	1	0.00356234600008065	1	109	NA	172.457714057	0	0.23	3.36	1	170.923068378	170.926630724	"16"	895.266581423	892.572161196	1.5	0.1
0.01	1	0.00397170499991262	1	109	NA	172.457714057	0	0.23	3.36	1	171.156885493	171.160857198	"16"	895.266581423	892.572161196	1.5	0.1
0.01	1	0.00448062199996002	1	109	NA	172.457714057	0	0.23	3.36	1	171.390563681	171.395044303	"16"	895.266581423	892.572161196	1.5	0.1
0.01	1	0.0034032500000194	1	109	NA	172.457714057	0	0.23	3.36	1	171.624320692	171.627723942	"16"	895.266581423	892.572161196	1.5	0.1
0.01	1	0.598177352999983	2	109	NA	172.457714057	0	0.23	3.36	1	171.857993483	172.456170836	"16"	895.266581423	892.572161196	1.5	0.1
0.01	1	0.710836858999983	1	71	NA	182.024762206	0	0.25	3.61	1	174.512518623	175.223355482	"17"	895.266581423	892.572161196	1.5	0.1
0.01	1	0.00395775500010132	1	71	NA	182.024762206	0	0.25	3.61	1	175.463959743	175.467917498	"17"	895.266581423	892.572161196	1.5	0.1
0.01	1	0.00399925499993969	1	71	NA	182.024762206	0	0.25	3.61	1	175.697856163	175.701855418	"17"	895.266581423	892.572161196	1.5	0.1
0.01	1	0.00343666800006304	1	71	NA	182.024762206	0	0.25	3.61	1	175.931600772	175.93503744	"17"	895.266581423	892.572161196	1.5	0.1
0.01	1	0.00381996799990247	1	71	NA	182.024762206	0	0.25	3.61	1	176.16525359	176.169073558	"17"	895.266581423	892.572161196	1.5	0.1
0.01	1	0.00375205600005302	1	71	NA	182.024762206	0	0.25	3.61	1	176.398910158	176.402662214	"17"	895.266581423	892.572161196	1.5	0.1
0.01	1	0.00389755599996988	1	71	NA	182.024762206	0	0.25	3.61	1	176.632645928	176.636543484	"17"	895.266581423	892.572161196	1.5	0.1
0.01	1	0.00473586999999043	1	71	NA	182.024762206	0	0.25	3.61	1	176.866572493	176.871308363	"17"	895.266581423	892.572161196	1.5	0.1
0.01	1	0.00470083200002591	1	71	NA	182.024762206	0	0.25	3.61	1	177.100224243	177.104925075	"17"	895.266581423	892.572161196	1.5	0.1
0.01	1	0.00404015899994192	1	71	NA	182.024762206	0	0.25	3.61	1	177.333899645	177.337939804	"17"	895.266581423	892.572161196	1.5	0.1
0.01	1	0.00398554999992484	1	71	NA	182.024762206	0	0.25	3.61	1	177.56767913	177.57166468	"17"	895.266581423	892.572161196	1.5	0.1
0.01	1	0.00396589900003619	1	71	NA	182.024762206	0	0.25	3.61	1	177.801339453	177.805305352	"17"	895.266581423	892.572161196	1.5	0.1
0.01	1	0.0043182119999301	1	71	NA	182.024762206	0	0.25	3.61	1	178.035064143	178.039382355	"17"	895.266581423	892.572161196	1.5	0.1
0.01	1	0.00480904699998064	1	71	NA	182.024762206	0	0.25	3.61	1	178.268934038	178.273743085	"17"	895.266581423	892.572161196	1.5	0.1
0.01	1	0.00389287299992702	1	71	NA	182.024762206	0	0.25	3.61	1	178.502489643	178.506382516	"17"	895.266581423	892.572161196	1.5	0.1
0.01	1	0.00410558199996558	1	71	NA	182.024762206	0	0.25	3.61	1	178.73630207	178.740407652	"17"	895.266581423	892.572161196	1.5	0.1
0.01	1	0.00394534799988833	1	71	NA	182.024762206	0	0.25	3.61	1	178.96989953	178.973844878	"17"	895.266581423	892.572161196	1.5	0.1
0.01	1	0.00394391099996483	1	71	NA	182.024762206	0	0.25	3.61	1	179.203704253	179.207648164	"17"	895.266581423	892.572161196	1.5	0.1
0.01	1	0.00382762899994304	1	71	NA	182.024762206	0	0.25	3.61	1	179.437475815	179.441303444	"17"	895.266581423	892.572161196	1.5	0.1
0.01	1	0.00374660699992546	1	71	NA	182.024762206	0	0.25	3.61	1	179.671236605	179.674983212	"17"	895.266581423	892.572161196	1.5	0.1
0.01	1	0.00378939899997022	1	71	NA	182.024762206	0	0.25	3.61	1	179.904858075	179.908647474	"17"	895.266581423	892.572161196	1.5	0.1
0.01	1	0.00398171000006187	1	71	NA	182.024762206	0	0.25	3.61	1	180.138585578	180.142567288	"17"	895.266581423	892.572161196	1.5	0.1
0.01	1	0.003794685999992	1	71	NA	182.024762206	0	0.25	3.61	1	180.372362558	180.376157244	"17"	895.266581423	892.572161196	1.5	0.1
0.01	1	0.00396962299998904	1	71	NA	182.024762206	0	0.25	3.61	1	180.606056423	180.610026046	"17"	895.266581423	892.572161196	1.5	0.1
0.01	1	0.00375518900000316	1	71	NA	182.024762206	0	0.25	3.61	1	180.839699993	180.843455182	"17"	895.266581423	892.572161196	1.5	0.1
0.01	1	0.949717803999988	2	71	NA	182.024762206	0	0.25	3.61	1	181.07350145	182.023219254	"17"	895.266581423	892.572161196	1.5	0.1
0.01	1	1.37651285200002	1	96	NA	194.481354165	0	0.32	3.93	1	184.078595105	185.455107957	"18"	895.266581423	892.572161196	1.5	0.1
0.01	1	0.00465498699998079	1	96	NA	194.481354165	0	0.32	3.93	1	185.681322208	185.685977195	"18"	895.266581423	892.572161196	1.5	0.1
0.01	1	0.00430433999997604	1	96	NA	194.481354165	0	0.32	3.93	1	185.915002443	185.919306783	"18"	895.266581423	892.572161196	1.5	0.1
0.01	1	0.00465715999996519	1	96	NA	194.481354165	0	0.32	3.93	1	186.148785458	186.153442618	"18"	895.266581423	892.572161196	1.5	0.1
0.01	1	0.00474912499998936	1	96	NA	194.481354165	0	0.32	3.93	1	186.382468888	186.387218013	"18"	895.266581423	892.572161196	1.5	0.1
0.01	1	0.00467209700002513	1	96	NA	194.481354165	0	0.32	3.93	1	186.616263658	186.620935755	"18"	895.266581423	892.572161196	1.5	0.1
0.01	1	0.00407498700008091	1	96	NA	194.481354165	0	0.32	3.93	1	186.849872115	186.853947102	"18"	895.266581423	892.572161196	1.5	0.1
0.01	1	0.00472515699993892	1	96	NA	194.481354165	0	0.32	3.93	1	187.083710858	187.088436015	"18"	895.266581423	892.572161196	1.5	0.1
0.01	1	0.00378712400004133	1	96	NA	194.481354165	0	0.32	3.93	1	187.317361298	187.321148422	"18"	895.266581423	892.572161196	1.5	0.1
0.01	1	0.00380257300002995	1	96	NA	194.481354165	0	0.32	3.93	1	187.551111233	187.554913806	"18"	895.266581423	892.572161196	1.5	0.1
0.01	1	0.00486153500003184	1	96	NA	194.481354165	0	0.32	3.93	1	187.784922103	187.789783638	"18"	895.266581423	892.572161196	1.5	0.1
0.01	1	0.00406867100002728	1	96	NA	194.481354165	0	0.32	3.93	1	188.018555273	188.022623944	"18"	895.266581423	892.572161196	1.5	0.1
0.01	1	0.00391602500008048	1	96	NA	194.481354165	0	0.32	3.93	1	188.252237633	188.256153658	"18"	895.266581423	892.572161196	1.5	0.1
0.01	1	0.00341872299998158	1	96	NA	194.481354165	0	0.32	3.93	1	188.485934373	188.489353096	"18"	895.266581423	892.572161196	1.5	0.1
0.01	1	0.00400372100000368	1	96	NA	194.481354165	0	0.32	3.93	1	188.719701565	188.723705286	"18"	895.266581423	892.572161196	1.5	0.1
0.01	1	0.00413328100000854	1	96	NA	194.481354165	0	0.32	3.93	1	188.953355213	188.957488494	"18"	895.266581423	892.572161196	1.5	0.1
0.01	1	0.00335825800004841	1	96	NA	194.481354165	0	0.32	3.93	1	189.187217062	189.19057532	"18"	895.266581423	892.572161196	1.5	0.1
0.01	1	0.00387034499999572	1	96	NA	194.481354165	0	0.32	3.93	1	189.420986203	189.424856548	"18"	895.266581423	892.572161196	1.5	0.1
0.01	1	0.00391093700000056	1	96	NA	194.481354165	0	0.32	3.93	1	189.654612655	189.658523592	"18"	895.266581423	892.572161196	1.5	0.1
0.01	1	0.00395423899999514	1	96	NA	194.481354165	0	0.32	3.93	1	189.888346415	189.892300654	"18"	895.266581423	892.572161196	1.5	0.1
0.01	1	0.00360865000004651	1	96	NA	194.481354165	0	0.32	3.93	1	190.122183988	190.125792638	"18"	895.266581423	892.572161196	1.5	0.1
0.01	1	0.00384922000000643	1	96	NA	194.481354165	0	0.32	3.93	1	190.355782578	190.359631798	"18"	895.266581423	892.572161196	1.5	0.1
0.01	1	0.00344596200000069	1	96	NA	194.481354165	0	0.32	3.93	1	190.589517164	190.592963126	"18"	895.266581423	892.572161196	1.5	0.1
0.01	1	0.00340145200004827	1	96	NA	194.481354165	0	0.32	3.93	1	190.823207028	190.82660848	"18"	895.266581423	892.572161196	1.5	0.1
0.01	1	0.00401558300006855	1	96	NA	194.481354165	0	0.32	3.93	1	191.056967393	191.060982976	"18"	895.266581423	892.572161196	1.5	0.1
0.01	1	0.00406123800007663	1	96	NA	194.481354165	0	0.32	3.93	1	191.290722928	191.294784166	"18"	895.266581423	892.572161196	1.5	0.1
0.01	1	0.00400439499992444	1	96	NA	194.481354165	0	0.32	3.93	1	191.524479725	191.52848412	"18"	895.266581423	892.572161196	1.5	0.1
0.01	1	0.00357616300004793	1	96	NA	194.481354165	0	0.32	3.93	1	191.758134043	191.761710206	"18"	895.266581423	892.572161196	1.5	0.1
0.01	1	0.00364964500010956	1	96	NA	194.481354165	0	0.32	3.93	1	191.991946695	191.99559634	"18"	895.266581423	892.572161196	1.5	0.1
0.01	1	0.00410524400001577	1	96	NA	194.481354165	0	0.32	3.93	1	192.22565217	192.229757414	"18"	895.266581423	892.572161196	1.5	0.1
0.01	1	0.00477174999991803	1	96	NA	194.481354165	0	0.32	3.93	1	192.459414508	192.464186258	"18"	895.266581423	892.572161196	1.5	0.1
0.01	1	0.00471773699996447	1	96	NA	194.481354165	0	0.32	3.93	1	192.693087443	192.69780518	"18"	895.266581423	892.572161196	1.5	0.1
0.01	1	1.55302073399992	2	96	NA	194.481354165	0	0.32	3.93	1	192.926802383	194.479823117	"18"	895.266581423	892.572161196	1.5	0.1
0.01	1	1.20247094000001	1	91	NA	203.992020926	0	0.22	4.15	1	196.53291772	197.73538866	"19"	895.266581423	892.572161196	1.5	0.1
0.01	1	0.00402674999997998	1	91	NA	203.992020926	0	0.22	4.15	1	197.968567828	197.972594578	"19"	895.266581423	892.572161196	1.5	0.1
0.01	1	0.00389438900003825	1	91	NA	203.992020926	0	0.22	4.15	1	198.202323043	198.206217432	"19"	895.266581423	892.572161196	1.5	0.1
0.01	1	0.00398046899999827	1	91	NA	203.992020926	0	0.22	4.15	1	198.436020063	198.440000532	"19"	895.266581423	892.572161196	1.5	0.1
0.01	1	0.00401720299998942	1	91	NA	203.992020926	0	0.22	4.15	1	198.669784953	198.673802156	"19"	895.266581423	892.572161196	1.5	0.1
0.01	1	0.00415417200008505	1	91	NA	203.992020926	0	0.22	4.15	1	198.903618658	198.90777283	"19"	895.266581423	892.572161196	1.5	0.1
0.01	1	0.00385726000001796	1	91	NA	203.992020926	0	0.22	4.15	1	199.137320328	199.141177588	"19"	895.266581423	892.572161196	1.5	0.1
0.01	1	0.00472817200000009	1	91	NA	203.992020926	0	0.22	4.15	1	199.371052913	199.375781085	"19"	895.266581423	892.572161196	1.5	0.1
0.01	1	0.00331460199993217	1	91	NA	203.992020926	0	0.22	4.15	1	199.604596412	199.607911014	"19"	895.266581423	892.572161196	1.5	0.1
0.01	1	0.00388352699997085	1	91	NA	203.992020926	0	0.22	4.15	1	199.838404905	199.842288432	"19"	895.266581423	892.572161196	1.5	0.1
0.01	1	0.00401025600001503	1	91	NA	203.992020926	0	0.22	4.15	1	200.072215868	200.076226124	"19"	895.266581423	892.572161196	1.5	0.1
0.01	1	0.004764592000015	1	91	NA	203.992020926	0	0.22	4.15	1	200.305914903	200.310679495	"19"	895.266581423	892.572161196	1.5	0.1
0.01	1	0.00334478199999921	1	91	NA	203.992020926	0	0.22	4.15	1	200.539665886	200.543010668	"19"	895.266581423	892.572161196	1.5	0.1
0.01	1	0.00226027299993348	1	91	NA	203.992020926	0	0.22	4.15	1	200.773392584	200.775652857	"19"	895.266581423	892.572161196	1.5	0.1
0.01	1	0.00356300800001463	1	91	NA	203.992020926	0	0.22	4.15	1	201.007011338	201.010574346	"19"	895.266581423	892.572161196	1.5	0.1
0.01	1	0.00368455299997095	1	91	NA	203.992020926	0	0.22	4.15	1	201.240797875	201.244482428	"19"	895.266581423	892.572161196	1.5	0.1
0.01	1	0.00394826699994155	1	91	NA	203.992020926	0	0.22	4.15	1	201.474453895	201.478402162	"19"	895.266581423	892.572161196	1.5	0.1
0.01	1	0.0040096300000414	1	91	NA	203.992020926	0	0.22	4.15	1	201.708225378	201.712235008	"19"	895.266581423	892.572161196	1.5	0.1
0.01	1	0.00404254699992634	1	91	NA	203.992020926	0	0.22	4.15	1	201.941915955	201.945958502	"19"	895.266581423	892.572161196	1.5	0.1
0.01	1	0.00372939299995778	1	91	NA	203.992020926	0	0.22	4.15	1	202.175651683	202.179381076	"19"	895.266581423	892.572161196	1.5	0.1
0.01	1	0.00428034500009744	1	91	NA	203.992020926	0	0.22	4.15	1	202.409366145	202.41364649	"19"	895.266581423	892.572161196	1.5	0.1
0.01	1	0.00384892500005662	1	91	NA	203.992020926	0	0.22	4.15	1	202.643203873	202.647052798	"19"	895.266581423	892.572161196	1.5	0.1
0.01	1	1.11365036500001	2	91	NA	203.992020926	0	0.22	4.15	1	202.876840028	203.990490393	"19"	895.266581423	892.572161196	1.5	0.1
0.01	1	3.15672506999999	1	5	210.258913493	NA	1	0	4.15	1	206.048833048	209.205558118	"20"	895.266581423	892.572161196	1.5	0.1
0.01	1	0.00397810100002971	1	5	210.258913493	NA	1	0	4.15	1	209.437853633	209.441831734	"20"	895.266581423	892.572161196	1.5	0.1
0.01	1	0.0041199529999858	1	5	210.258913493	NA	1	0	4.15	1	209.671713755	209.675833708	"20"	895.266581423	892.572161196	1.5	0.1
0.01	1	0.00474548999989111	1	5	210.258913493	NA	1	0	4.15	1	209.905525268	209.910270758	"20"	895.266581423	892.572161196	1.5	0.1
0.01	1	0.00409660499997244	1	5	210.258913493	NA	1	0	4.15	1	210.139121713	210.143218318	"20"	895.266581423	892.572161196	1.5	0.1
0.01	1	0.439284831000009	1	123	NA	217.429078207	0	0.17	4.32	1	212.292732435	212.732017266	"21"	895.266581423	892.572161196	1.5	0.1
0.01	1	0.00397930899998755	1	123	NA	217.429078207	0	0.17	4.32	1	212.960510023	212.964489332	"21"	895.266581423	892.572161196	1.5	0.1
0.01	1	0.00408187100003943	1	123	NA	217.429078207	0	0.17	4.32	1	213.194137793	213.198219664	"21"	895.266581423	892.572161196	1.5	0.1
0.01	1	0.00396144900003037	1	123	NA	217.429078207	0	0.17	4.32	1	213.427911133	213.431872582	"21"	895.266581423	892.572161196	1.5	0.1
0.01	1	0.00495256499993957	1	123	NA	217.429078207	0	0.17	4.32	1	213.661684238	213.666636803	"21"	895.266581423	892.572161196	1.5	0.1
0.01	1	0.00424887899998794	1	123	NA	217.429078207	0	0.17	4.32	1	213.895388985	213.899637864	"21"	895.266581423	892.572161196	1.5	0.1
0.01	1	0.00382274499997948	1	123	NA	217.429078207	0	0.17	4.32	1	214.129156003	214.132978748	"21"	895.266581423	892.572161196	1.5	0.1
0.01	1	0.00411232999999811	1	123	NA	217.429078207	0	0.17	4.32	1	214.36290701	214.36701934	"21"	895.266581423	892.572161196	1.5	0.1
0.01	1	0.00395692699999017	1	123	NA	217.429078207	0	0.17	4.32	1	214.596575923	214.60053285	"21"	895.266581423	892.572161196	1.5	0.1
0.01	1	0.00398143100005655	1	123	NA	217.429078207	0	0.17	4.32	1	214.830234773	214.834216204	"21"	895.266581423	892.572161196	1.5	0.1
0.01	1	0.00378393400001187	1	123	NA	217.429078207	0	0.17	4.32	1	215.064022638	215.067806572	"21"	895.266581423	892.572161196	1.5	0.1
0.01	1	0.0034173159999682	1	123	NA	217.429078207	0	0.17	4.32	1	215.297762574	215.30117989	"21"	895.266581423	892.572161196	1.5	0.1
0.01	1	0.00436385699993025	1	123	NA	217.429078207	0	0.17	4.32	1	215.531512033	215.53587589	"21"	895.266581423	892.572161196	1.5	0.1
0.01	1	0.00346218999993653	1	123	NA	217.429078207	0	0.17	4.32	1	215.76521683	215.76867902	"21"	895.266581423	892.572161196	1.5	0.1
0.01	1	0.004078413000002	1	123	NA	217.429078207	0	0.17	4.32	1	215.998950593	216.003029006	"21"	895.266581423	892.572161196	1.5	0.1
0.01	1	0.00381816799995249	1	123	NA	217.429078207	0	0.17	4.32	1	216.232699028	216.236517196	"21"	895.266581423	892.572161196	1.5	0.1
0.01	1	0.00395498700004282	1	123	NA	217.429078207	0	0.17	4.32	1	216.466356653	216.47031164	"21"	895.266581423	892.572161196	1.5	0.1
0.01	1	0.727377703999991	2	123	NA	217.429078207	0	0.17	4.32	1	216.700129953	217.427507657	"21"	895.266581423	892.572161196	1.5	0.1
0.01	1	0.533214302000033	1	81	NA	226.799080649	0	0.23	4.55	1	219.47138931	220.004603612	"22"	895.266581423	892.572161196	1.5	0.1
0.01	1	0.00393820900001174	1	81	NA	226.799080649	0	0.23	4.55	1	220.239473475	220.243411684	"22"	895.266581423	892.572161196	1.5	0.1
0.01	1	0.00453679199995349	1	81	NA	226.799080649	0	0.23	4.55	1	220.473120191	220.477656983	"22"	895.266581423	892.572161196	1.5	0.1
0.01	1	0.00393557799998234	1	81	NA	226.799080649	0	0.23	4.55	1	220.706935348	220.710870926	"22"	895.266581423	892.572161196	1.5	0.1
0.01	1	0.00477913500003524	1	81	NA	226.799080649	0	0.23	4.55	1	220.940551493	220.945330628	"22"	895.266581423	892.572161196	1.5	0.1
0.01	1	0.00441041300007328	1	81	NA	226.799080649	0	0.23	4.55	1	221.174311563	221.178721976	"22"	895.266581423	892.572161196	1.5	0.1
0.01	1	0.00503219699999136	1	81	NA	226.799080649	0	0.23	4.55	1	221.408046498	221.413078695	"22"	895.266581423	892.572161196	1.5	0.1
0.01	1	0.00465755200002604	1	81	NA	226.799080649	0	0.23	4.55	1	221.641774063	221.646431615	"22"	895.266581423	892.572161196	1.5	0.1
0.01	1	0.00475976000006995	1	81	NA	226.799080649	0	0.23	4.55	1	221.875431313	221.880191073	"22"	895.266581423	892.572161196	1.5	0.1
0.01	1	0.00368516200001068	1	81	NA	226.799080649	0	0.23	4.55	1	222.109198838	222.112884	"22"	895.266581423	892.572161196	1.5	0.1
0.01	1	0.00464300199996615	1	81	NA	226.799080649	0	0.23	4.55	1	222.343002493	222.347645495	"22"	895.266581423	892.572161196	1.5	0.1
0.01	1	0.00389668999991954	1	81	NA	226.799080649	0	0.23	4.55	1	222.576683548	222.580580238	"22"	895.266581423	892.572161196	1.5	0.1
0.01	1	0.0041031869999415	1	81	NA	226.799080649	0	0.23	4.55	1	222.810385613	222.8144888	"22"	895.266581423	892.572161196	1.5	0.1
0.01	1	0.00385693500004436	1	81	NA	226.799080649	0	0.23	4.55	1	223.044155673	223.048012608	"22"	895.266581423	892.572161196	1.5	0.1
0.01	1	0.00412854499995774	1	81	NA	226.799080649	0	0.23	4.55	1	223.277844865	223.28197341	"22"	895.266581423	892.572161196	1.5	0.1
0.01	1	0.00385182700006226	1	81	NA	226.799080649	0	0.23	4.55	1	223.511622973	223.5154748	"22"	895.266581423	892.572161196	1.5	0.1
0.01	1	0.00380131499991876	1	81	NA	226.799080649	0	0.23	4.55	1	223.745311183	223.749112498	"22"	895.266581423	892.572161196	1.5	0.1
0.01	1	0.00222428699999	1	81	NA	226.799080649	0	0.23	4.55	1	223.978973923	223.98119821	"22"	895.266581423	892.572161196	1.5	0.1
0.01	1	0.00243676100001267	1	81	NA	226.799080649	0	0.23	4.55	1	224.212661698	224.215098459	"22"	895.266581423	892.572161196	1.5	0.1
0.01	1	0.00215501700006371	1	81	NA	226.799080649	0	0.23	4.55	1	224.446356278	224.448511295	"22"	895.266581423	892.572161196	1.5	0.1
0.01	1	0.002135380000027	1	81	NA	226.799080649	0	0.23	4.55	1	224.680094944	224.682230324	"22"	895.266581423	892.572161196	1.5	0.1
0.01	1	0.00211311999998998	1	81	NA	226.799080649	0	0.23	4.55	1	224.913787798	224.915900918	"22"	895.266581423	892.572161196	1.5	0.1
0.01	1	0.00213513699998202	1	81	NA	226.799080649	0	0.23	4.55	1	225.147525635	225.149660772	"22"	895.266581423	892.572161196	1.5	0.1
0.01	1	1.41625900000008	2	81	NA	226.799080649	0	0.23	4.55	1	225.381273962	226.797532962	"22"	895.266581423	892.572161196	1.5	0.1
0.01	1	0.999907108999992	1	117	NA	237.094377366	0	0.29	4.84	1	228.853809626	229.853716735	"23"	895.266581423	892.572161196	1.5	0.1
0.01	1	0.00223340200000166	1	117	NA	237.094377366	0	0.29	4.84	1	230.089236203	230.091469605	"23"	895.266581423	892.572161196	1.5	0.1
0.01	1	0.0021197219999749	1	117	NA	237.094377366	0	0.29	4.84	1	230.32293051	230.325050232	"23"	895.266581423	892.572161196	1.5	0.1
0.01	1	0.00214920999997048	1	117	NA	237.094377366	0	0.29	4.84	1	230.556634555	230.558783765	"23"	895.266581423	892.572161196	1.5	0.1
0.01	1	0.00209762000008595	1	117	NA	237.094377366	0	0.29	4.84	1	230.790312693	230.792410313	"23"	895.266581423	892.572161196	1.5	0.1
0.01	1	0.00225572200008628	1	117	NA	237.094377366	0	0.29	4.84	1	231.0240767	231.026332422	"23"	895.266581423	892.572161196	1.5	0.1
0.01	1	0.00219262999996772	1	117	NA	237.094377366	0	0.29	4.84	1	231.257845256	231.260037886	"23"	895.266581423	892.572161196	1.5	0.1
0.01	1	0.00212373799990928	1	117	NA	237.094377366	0	0.29	4.84	1	231.491526346	231.493650084	"23"	895.266581423	892.572161196	1.5	0.1
0.01	1	0.00213802899997972	1	117	NA	237.094377366	0	0.29	4.84	1	231.725312478	231.727450507	"23"	895.266581423	892.572161196	1.5	0.1
0.01	1	0.00209148600004028	1	117	NA	237.094377366	0	0.29	4.84	1	231.959115668	231.961207154	"23"	895.266581423	892.572161196	1.5	0.1
0.01	1	0.00351048899995021	1	117	NA	237.094377366	0	0.29	4.84	1	232.192812603	232.196323092	"23"	895.266581423	892.572161196	1.5	0.1
0.01	1	0.00476282800002537	1	117	NA	237.094377366	0	0.29	4.84	1	232.426559457	232.431322285	"23"	895.266581423	892.572161196	1.5	0.1
0.01	1	0.0042058190000489	1	117	NA	237.094377366	0	0.29	4.84	1	232.660278933	232.664484752	"23"	895.266581423	892.572161196	1.5	0.1
0.01	1	0.00395678200004568	1	117	NA	237.094377366	0	0.29	4.84	1	232.894074838	232.89803162	"23"	895.266581423	892.572161196	1.5	0.1
0.01	1	0.00349688599999354	1	117	NA	237.094377366	0	0.29	4.84	1	233.127690424	233.13118731	"23"	895.266581423	892.572161196	1.5	0.1
0.01	1	0.00391628099998798	1	117	NA	237.094377366	0	0.29	4.84	1	233.361429455	233.365345736	"23"	895.266581423	892.572161196	1.5	0.1
0.01	1	0.00390770700005305	1	117	NA	237.094377366	0	0.29	4.84	1	233.595191673	233.59909938	"23"	895.266581423	892.572161196	1.5	0.1
0.01	1	0.00395413800004007	1	117	NA	237.094377366	0	0.29	4.84	1	233.8289325	233.832886638	"23"	895.266581423	892.572161196	1.5	0.1
0.01	1	0.00399051700003383	1	117	NA	237.094377366	0	0.29	4.84	1	234.062543663	234.06653418	"23"	895.266581423	892.572161196	1.5	0.1
0.01	1	0.00334680799994658	1	117	NA	237.094377366	0	0.29	4.84	1	234.296298394	234.299645202	"23"	895.266581423	892.572161196	1.5	0.1
0.01	1	0.00465883999993366	1	117	NA	237.094377366	0	0.29	4.84	1	234.530120603	234.534779443	"23"	895.266581423	892.572161196	1.5	0.1
0.01	1	0.00394708900000751	1	117	NA	237.094377366	0	0.29	4.84	1	234.763845633	234.767792722	"23"	895.266581423	892.572161196	1.5	0.1
0.01	1	0.0047149450000461	1	117	NA	237.094377366	0	0.29	4.84	1	234.997764873	235.002479818	"23"	895.266581423	892.572161196	1.5	0.1
0.01	1	0.00368282999988878	1	117	NA	237.094377366	0	0.29	4.84	1	235.231304828	235.234987658	"23"	895.266581423	892.572161196	1.5	0.1
0.01	1	0.00456648699992002	1	117	NA	237.094377366	0	0.29	4.84	1	235.464947058	235.469513545	"23"	895.266581423	892.572161196	1.5	0.1
0.01	1	0.00397602700002153	1	117	NA	237.094377366	0	0.29	4.84	1	235.698770573	235.7027466	"23"	895.266581423	892.572161196	1.5	0.1
0.01	1	0.00474012200004381	1	117	NA	237.094377366	0	0.29	4.84	1	235.932410028	235.93715015	"23"	895.266581423	892.572161196	1.5	0.1
0.01	1	0.00346547899994221	1	117	NA	237.094377366	0	0.29	4.84	1	236.166190703	236.169656182	"23"	895.266581423	892.572161196	1.5	0.1
0.01	1	0.00390812699993148	1	117	NA	237.094377366	0	0.29	4.84	1	236.399917653	236.40382578	"23"	895.266581423	892.572161196	1.5	0.1
0.01	1	0.459217552999917	2	117	NA	237.094377366	0	0.29	4.84	1	236.63358813	237.092805683	"23"	895.266581423	892.572161196	1.5	0.1
0.01	1	0.618523385999993	1	84	NA	247.141924325	0	0.26	5.1	1	239.121123893	239.739647279	"24"	895.266581423	892.572161196	1.5	0.1
0.01	1	0.00469261499995355	1	84	NA	247.141924325	0	0.26	5.1	1	239.972716743	239.977409358	"24"	895.266581423	892.572161196	1.5	0.1
0.01	1	0.00394295399996736	1	84	NA	247.141924325	0	0.26	5.1	1	240.20631741	240.210260364	"24"	895.266581423	892.572161196	1.5	0.1
0.01	1	0.00361349399997835	1	84	NA	247.141924325	0	0.26	5.1	1	240.44001729	240.443630784	"24"	895.266581423	892.572161196	1.5	0.1
0.01	1	0.00361979399997381	1	84	NA	247.141924325	0	0.26	5.1	1	240.673706898	240.677326692	"24"	895.266581423	892.572161196	1.5	0.1
0.01	1	0.00396359500007293	1	84	NA	247.141924325	0	0.26	5.1	1	240.907541525	240.91150512	"24"	895.266581423	892.572161196	1.5	0.1
0.01	1	0.00388898200003496	1	84	NA	247.141924325	0	0.26	5.1	1	241.141248778	241.14513776	"24"	895.266581423	892.572161196	1.5	0.1
0.01	1	0.00373721999994814	1	84	NA	247.141924325	0	0.26	5.1	1	241.37488659	241.37862381	"24"	895.266581423	892.572161196	1.5	0.1
0.01	1	0.00348866800004544	1	84	NA	247.141924325	0	0.26	5.1	1	241.608724538	241.612213206	"24"	895.266581423	892.572161196	1.5	0.1
0.01	1	0.00404243300010876	1	84	NA	247.141924325	0	0.26	5.1	1	241.842381013	241.846423446	"24"	895.266581423	892.572161196	1.5	0.1
0.01	1	0.00390540099999725	1	84	NA	247.141924325	0	0.26	5.1	1	242.076170333	242.080075734	"24"	895.266581423	892.572161196	1.5	0.1
0.01	1	0.00387484999998833	1	84	NA	247.141924325	0	0.26	5.1	1	242.30984443	242.31371928	"24"	895.266581423	892.572161196	1.5	0.1
0.01	1	0.00351607900006456	1	84	NA	247.141924325	0	0.26	5.1	1	242.543564465	242.547080544	"24"	895.266581423	892.572161196	1.5	0.1
0.01	1	0.00350666200006344	1	84	NA	247.141924325	0	0.26	5.1	1	242.777385208	242.78089187	"24"	895.266581423	892.572161196	1.5	0.1
0.01	1	0.00381003400002555	1	84	NA	247.141924325	0	0.26	5.1	1	243.01105787	243.014867904	"24"	895.266581423	892.572161196	1.5	0.1
0.01	1	0.00407353799994326	1	84	NA	247.141924325	0	0.26	5.1	1	243.244677218	243.248750756	"24"	895.266581423	892.572161196	1.5	0.1
0.01	1	0.0039091799999369	1	84	NA	247.141924325	0	0.26	5.1	1	243.478507378	243.482416558	"24"	895.266581423	892.572161196	1.5	0.1
0.01	1	0.00396881799997573	1	84	NA	247.141924325	0	0.26	5.1	1	243.712254598	243.716223416	"24"	895.266581423	892.572161196	1.5	0.1
0.01	1	0.00383458299995709	1	84	NA	247.141924325	0	0.26	5.1	1	243.945870833	243.949705416	"24"	895.266581423	892.572161196	1.5	0.1
0.01	1	0.00416875400003391	1	84	NA	247.141924325	0	0.26	5.1	1	244.179674318	244.183843072	"24"	895.266581423	892.572161196	1.5	0.1
0.01	1	0.00405020099992726	1	84	NA	247.141924325	0	0.26	5.1	1	244.413350025	244.417400226	"24"	895.266581423	892.572161196	1.5	0.1
0.01	1	0.00475755700006175	1	84	NA	247.141924325	0	0.26	5.1	1	244.647073833	244.65183139	"24"	895.266581423	892.572161196	1.5	0.1
0.01	1	0.00480632500000411	1	84	NA	247.141924325	0	0.26	5.1	1	244.880879298	244.885685623	"24"	895.266581423	892.572161196	1.5	0.1
0.01	1	0.00399567300007675	1	84	NA	247.141924325	0	0.26	5.1	1	245.114595975	245.118591648	"24"	895.266581423	892.572161196	1.5	0.1
0.01	1	0.00398148800002218	1	84	NA	247.141924325	0	0.26	5.1	1	245.348285158	245.352266646	"24"	895.266581423	892.572161196	1.5	0.1
0.01	1	0.00498511499995402	1	84	NA	247.141924325	0	0.26	5.1	1	245.582052598	245.587037713	"24"	895.266581423	892.572161196	1.5	0.1
0.01	1	1.32458849099999	2	84	NA	247.141924325	0	0.26	5.1	1	245.815781963	247.140370454	"24"	895.266581423	892.572161196	1.5	0.1
0.01	1	7.42385182199996	1	22	261.643913905	NA	1	0	5.1	1	249.188038668	256.61189049	"25"	895.266581423	892.572161196	1.5	0.1
0.01	1	0.0036502370001017	1	22	261.643913905	NA	1	0	5.1	1	256.850915845	256.854566082	"25"	895.266581423	892.572161196	1.5	0.1
0.01	1	0.0039458389999254	1	22	261.643913905	NA	1	0	5.1	1	257.084661223	257.088607062	"25"	895.266581423	892.572161196	1.5	0.1
0.01	1	0.00392336499999146	1	22	261.643913905	NA	1	0	5.1	1	257.318431553	257.322354918	"25"	895.266581423	892.572161196	1.5	0.1
0.01	1	0.00412578099997063	1	22	261.643913905	NA	1	0	5.1	1	257.552131025	257.556256806	"25"	895.266581423	892.572161196	1.5	0.1
0.01	1	0.00372057100003076	1	22	261.643913905	NA	1	0	5.1	1	257.785892023	257.789612594	"25"	895.266581423	892.572161196	1.5	0.1
0.01	1	0.00385718100005761	1	22	261.643913905	NA	1	0	5.1	1	258.019549543	258.023406724	"25"	895.266581423	892.572161196	1.5	0.1
0.01	1	0.0040680090000933	1	22	261.643913905	NA	1	0	5.1	1	258.253335083	258.257403092	"25"	895.266581423	892.572161196	1.5	0.1
0.01	1	0.00381004700000176	1	22	261.643913905	NA	1	0	5.1	1	258.487103033	258.49091308	"25"	895.266581423	892.572161196	1.5	0.1
0.01	1	0.00351676799994038	1	22	261.643913905	NA	1	0	5.1	1	258.72075018	258.724266948	"25"	895.266581423	892.572161196	1.5	0.1
0.01	1	0.00393621299997449	1	22	261.643913905	NA	1	0	5.1	1	258.954383813	258.958320026	"25"	895.266581423	892.572161196	1.5	0.1
0.01	1	0.00446804199998496	1	22	261.643913905	NA	1	0	5.1	1	259.188269303	259.192737345	"25"	895.266581423	892.572161196	1.5	0.1
0.01	1	0.00402316100007738	1	22	261.643913905	NA	1	0	5.1	1	259.421972595	259.425995756	"25"	895.266581423	892.572161196	1.5	0.1
0.01	1	0.00346624000007978	1	22	261.643913905	NA	1	0	5.1	1	259.65578486	259.6592511	"25"	895.266581423	892.572161196	1.5	0.1
0.01	1	0.0038352249999889	1	22	261.643913905	NA	1	0	5.1	1	259.889447695	259.89328292	"25"	895.266581423	892.572161196	1.5	0.1
0.01	1	0.00415577900002972	1	22	261.643913905	NA	1	0	5.1	1	260.123202555	260.127358334	"25"	895.266581423	892.572161196	1.5	0.1
0.01	1	0.00471963499990125	1	22	261.643913905	NA	1	0	5.1	1	260.356967928	260.361687563	"25"	895.266581423	892.572161196	1.5	0.1
0.01	1	0.00391854300005434	1	22	261.643913905	NA	1	0	5.1	1	260.590618485	260.594537028	"25"	895.266581423	892.572161196	1.5	0.1
0.01	1	0.00476332999994611	1	22	261.643913905	NA	1	0	5.1	1	260.824309213	260.829072543	"25"	895.266581423	892.572161196	1.5	0.1
0.01	1	0.00354979700000513	1	22	261.643913905	NA	1	0	5.1	1	261.057999255	261.061549052	"25"	895.266581423	892.572161196	1.5	0.1
0.01	1	0.00401938100003463	1	22	261.643913905	NA	1	0	5.1	1	261.291783525	261.295802906	"25"	895.266581423	892.572161196	1.5	0.1
0.01	1	0.00341710400005013	1	22	261.643913905	NA	1	0	5.1	1	261.525469332	261.528886436	"25"	895.266581423	892.572161196	1.5	0.1
0.01	1	0.00476594500003102	1	36	NA	266.229549316	0	0.1	5.2	1	263.695866643	263.700632588	"26"	895.266581423	892.572161196	1.5	0.1
0.01	1	0.0264825589999873	1	36	NA	266.229549316	0	0.1	5.2	1	263.929494248	263.955976807	"26"	895.266581423	892.572161196	1.5	0.1
0.01	1	0.00402590799990321	1	36	NA	266.229549316	0	0.1	5.2	1	264.196556148	264.200582056	"26"	895.266581423	892.572161196	1.5	0.1
0.01	1	0.00389010799995049	1	36	NA	266.229549316	0	0.1	5.2	1	264.430377688	264.434267796	"26"	895.266581423	892.572161196	1.5	0.1
0.01	1	0.00435411400007979	1	36	NA	266.229549316	0	0.1	5.2	1	264.664061454	264.668415568	"26"	895.266581423	892.572161196	1.5	0.1
0.01	1	0.00347292500009644	1	36	NA	266.229549316	0	0.1	5.2	1	264.897773193	264.901246118	"26"	895.266581423	892.572161196	1.5	0.1
0.01	1	0.00390717499999482	1	36	NA	266.229549316	0	0.1	5.2	1	265.131630225	265.1355374	"26"	895.266581423	892.572161196	1.5	0.1
0.01	1	0.00446391000002677	1	36	NA	266.229549316	0	0.1	5.2	1	265.36528922	265.36975313	"26"	895.266581423	892.572161196	1.5	0.1
0.01	1	0.00433561299996654	1	36	NA	266.229549316	0	0.1	5.2	1	265.598924817	265.60326043	"26"	895.266581423	892.572161196	1.5	0.1
0.01	1	0.00460151699996914	1	36	NA	266.229549316	0	0.1	5.2	1	265.832782018	265.837383535	"26"	895.266581423	892.572161196	1.5	0.1
0.01	1	0.161539738999977	2	36	NA	266.229549316	0	0.1	5.2	1	266.066474798	266.228014537	"26"	895.266581423	892.572161196	1.5	0.1
0.01	1	0.502215696999997	1	124	NA	276.310171978	0	0.23	5.43	1	268.270268973	268.77248467	"27"	895.266581423	892.572161196	1.5	0.1
0.01	1	0.00467403699997249	1	124	NA	276.310171978	0	0.23	5.43	1	269.004768813	269.00944285	"27"	895.266581423	892.572161196	1.5	0.1
0.01	1	0.00389129600000615	1	124	NA	276.310171978	0	0.23	5.43	1	269.238434048	269.242325344	"27"	895.266581423	892.572161196	1.5	0.1
0.01	1	0.003851495000049	1	124	NA	276.310171978	0	0.23	5.43	1	269.472226033	269.476077528	"27"	895.266581423	892.572161196	1.5	0.1
0.01	1	0.00350924700001087	1	124	NA	276.310171978	0	0.23	5.43	1	269.705832485	269.709341732	"27"	895.266581423	892.572161196	1.5	0.1
0.01	1	0.00394992799999727	1	124	NA	276.310171978	0	0.23	5.43	1	269.939611838	269.943561766	"27"	895.266581423	892.572161196	1.5	0.1
0.01	1	0.0039863009999408	1	124	NA	276.310171978	0	0.23	5.43	1	270.173365965	270.177352266	"27"	895.266581423	892.572161196	1.5	0.1
0.01	1	0.00471597700004622	1	124	NA	276.310171978	0	0.23	5.43	1	270.407188698	270.411904675	"27"	895.266581423	892.572161196	1.5	0.1
0.01	1	0.00346439299994472	1	124	NA	276.310171978	0	0.23	5.43	1	270.640766623	270.644231016	"27"	895.266581423	892.572161196	1.5	0.1
0.01	1	0.00385142300001462	1	124	NA	276.310171978	0	0.23	5.43	1	270.874581753	270.878433176	"27"	895.266581423	892.572161196	1.5	0.1
0.01	1	0.00474839000003158	1	124	NA	276.310171978	0	0.23	5.43	1	271.108303033	271.113051423	"27"	895.266581423	892.572161196	1.5	0.1
0.01	1	0.0038179080000873	1	124	NA	276.310171978	0	0.23	5.43	1	271.342000178	271.345818086	"27"	895.266581423	892.572161196	1.5	0.1
0.01	1	0.00472175999993851	1	124	NA	276.310171978	0	0.23	5.43	1	271.575674768	271.580396528	"27"	895.266581423	892.572161196	1.5	0.1
0.01	1	0.00359347400001298	1	124	NA	276.310171978	0	0.23	5.43	1	271.809369468	271.812962942	"27"	895.266581423	892.572161196	1.5	0.1
0.01	1	0.00339801999996325	1	124	NA	276.310171978	0	0.23	5.43	1	272.043177542	272.046575562	"27"	895.266581423	892.572161196	1.5	0.1
0.01	1	0.00453992199993536	1	124	NA	276.310171978	0	0.23	5.43	1	272.276983493	272.281523415	"27"	895.266581423	892.572161196	1.5	0.1
0.01	1	0.00464488599993729	1	124	NA	276.310171978	0	0.23	5.43	1	272.510644857	272.515289743	"27"	895.266581423	892.572161196	1.5	0.1
0.01	1	0.00409375200001705	1	124	NA	276.310171978	0	0.23	5.43	1	272.74438467	272.748478422	"27"	895.266581423	892.572161196	1.5	0.1
0.01	1	0.00399116500000218	1	124	NA	276.310171978	0	0.23	5.43	1	272.978111925	272.98210309	"27"	895.266581423	892.572161196	1.5	0.1
0.01	1	1.84796316099994	1	124	NA	276.310171978	0	0.23	5.43	1	273.211751885	275.059715046	"27"	895.266581423	892.572161196	1.5	0.1
0.01	1	0.00466956000002483	1	124	NA	276.310171978	0	0.23	5.43	1	275.298824563	275.303494123	"27"	895.266581423	892.572161196	1.5	0.1
0.01	1	0.00458971800003383	1	124	NA	276.310171978	0	0.23	5.43	1	275.532449737	275.537039455	"27"	895.266581423	892.572161196	1.5	0.1
0.01	1	0.00408150800001295	1	124	NA	276.310171978	0	0.23	5.43	1	275.76612349	275.770204998	"27"	895.266581423	892.572161196	1.5	0.1
0.01	1	0.308780776999924	2	124	NA	276.310171978	0	0.23	5.43	1	275.999850658	276.308631435	"27"	895.266581423	892.572161196	1.5	0.1
0.01	1	1.41086933500003	1	13	282.6649018	NA	1	0	5.43	1	278.33712893	279.747998265	"28"	895.266581423	892.572161196	1.5	0.1
0.01	1	0.00392286499993588	1	13	282.6649018	NA	1	0	5.43	1	279.973178695	279.97710156	"28"	895.266581423	892.572161196	1.5	0.1
0.01	1	0.00388388700002906	1	13	282.6649018	NA	1	0	5.43	1	280.206980715	280.210864602	"28"	895.266581423	892.572161196	1.5	0.1
0.01	1	0.00468925000006948	1	13	282.6649018	NA	1	0	5.43	1	280.440669218	280.445358468	"28"	895.266581423	892.572161196	1.5	0.1
0.01	1	0.00406183500001589	1	13	282.6649018	NA	1	0	5.43	1	280.674415283	280.678477118	"28"	895.266581423	892.572161196	1.5	0.1
0.01	1	0.00395352999998977	1	13	282.6649018	NA	1	0	5.43	1	280.908071838	280.912025368	"28"	895.266581423	892.572161196	1.5	0.1
0.01	1	0.00391535699998258	1	13	282.6649018	NA	1	0	5.43	1	281.141758205	281.145673562	"28"	895.266581423	892.572161196	1.5	0.1
0.01	1	0.00365582899996753	1	13	282.6649018	NA	1	0	5.43	1	281.375567825	281.379223654	"28"	895.266581423	892.572161196	1.5	0.1
0.01	1	0.00471258500010663	1	13	282.6649018	NA	1	0	5.43	1	281.609264153	281.613976738	"28"	895.266581423	892.572161196	1.5	0.1
0.01	1	0.00387880699997822	1	13	282.6649018	NA	1	0	5.43	1	281.842986723	281.84686553	"28"	895.266581423	892.572161196	1.5	0.1
0.01	1	0.00470067000003382	1	13	282.6649018	NA	1	0	5.43	1	282.076754248	282.081454918	"28"	895.266581423	892.572161196	1.5	0.1
0.01	1	0.00396204800006217	1	13	282.6649018	NA	1	0	5.43	1	282.310469278	282.314431326	"28"	895.266581423	892.572161196	1.5	0.1
0.01	1	0.00388049100001808	1	13	282.6649018	NA	1	0	5.43	1	282.544114595	282.547995086	"28"	895.266581423	892.572161196	1.5	0.1
0.01	1	0.648426581999956	1	125	NA	289.454163747	0	0.17	5.6	1	284.714511938	285.36293852	"29"	895.266581423	892.572161196	1.5	0.1
0.01	1	0.00405495600000449	1	125	NA	289.454163747	0	0.17	5.6	1	285.59929349	285.603348446	"29"	895.266581423	892.572161196	1.5	0.1
0.01	1	0.00397656899997401	1	125	NA	289.454163747	0	0.17	5.6	1	285.833010653	285.836987222	"29"	895.266581423	892.572161196	1.5	0.1
0.01	1	0.00391902699993807	1	125	NA	289.454163747	0	0.17	5.6	1	286.066662825	286.070581852	"29"	895.266581423	892.572161196	1.5	0.1
0.01	1	0.00471107799990023	1	125	NA	289.454163747	0	0.17	5.6	1	286.300507335	286.305218413	"29"	895.266581423	892.572161196	1.5	0.1
0.01	1	0.00411424899994017	1	125	NA	289.454163747	0	0.17	5.6	1	286.534155415	286.538269664	"29"	895.266581423	892.572161196	1.5	0.1
0.01	1	0.00407434099997772	1	125	NA	289.454163747	0	0.17	5.6	1	286.767904095	286.771978436	"29"	895.266581423	892.572161196	1.5	0.1
0.01	1	0.00471483999990596	1	125	NA	289.454163747	0	0.17	5.6	1	287.001607238	287.006322078	"29"	895.266581423	892.572161196	1.5	0.1
0.01	1	0.00338396600000124	1	125	NA	289.454163747	0	0.17	5.6	1	287.235419562	287.238803528	"29"	895.266581423	892.572161196	1.5	0.1
0.01	1	0.00371227700009058	1	125	NA	289.454163747	0	0.17	5.6	1	287.469140333	287.47285261	"29"	895.266581423	892.572161196	1.5	0.1
0.01	1	0.0047725999999102	1	125	NA	289.454163747	0	0.17	5.6	1	287.702939903	287.707712503	"29"	895.266581423	892.572161196	1.5	0.1
0.01	1	0.00403676099995209	1	125	NA	289.454163747	0	0.17	5.6	1	287.936540703	287.940577464	"29"	895.266581423	892.572161196	1.5	0.1
0.01	1	0.00386932499998238	1	125	NA	289.454163747	0	0.17	5.6	1	288.170287243	288.174156568	"29"	895.266581423	892.572161196	1.5	0.1
0.01	1	0.00344012600010046	1	125	NA	289.454163747	0	0.17	5.6	1	288.404049652	288.407489778	"29"	895.266581423	892.572161196	1.5	0.1
0.01	1	0.00356064699997205	1	125	NA	289.454163747	0	0.17	5.6	1	288.637700955	288.641261602	"29"	895.266581423	892.572161196	1.5	0.1
0.01	1	0.0040517050000517	1	125	NA	289.454163747	0	0.17	5.6	1	288.871387985	288.87543969	"29"	895.266581423	892.572161196	1.5	0.1
0.01	1	0.00393444199994519	1	125	NA	289.454163747	0	0.17	5.6	1	289.105147428	289.10908187	"29"	895.266581423	892.572161196	1.5	0.1
0.01	1	0.113729099000011	2	125	NA	289.454163747	0	0.17	5.6	1	289.338902458	289.452631557	"29"	895.266581423	892.572161196	1.5	0.1
0.01	1	1.29490383199993	1	105	NA	298.684368982	0	0.24	5.84	1	291.492534631	292.787438463	"30"	895.266581423	892.572161196	1.5	0.1
0.01	1	0.00473674500005927	1	105	NA	298.684368982	0	0.24	5.84	1	293.028515778	293.033252523	"30"	895.266581423	892.572161196	1.5	0.1
0.01	1	0.00390854499994475	1	105	NA	298.684368982	0	0.24	5.84	1	293.262192185	293.26610073	"30"	895.266581423	892.572161196	1.5	0.1
0.01	1	0.00401336099992022	1	105	NA	298.684368982	0	0.24	5.84	1	293.495895173	293.499908534	"30"	895.266581423	892.572161196	1.5	0.1
0.01	1	0.00351603799992972	1	105	NA	298.684368982	0	0.24	5.84	1	293.72971607	293.733232108	"30"	895.266581423	892.572161196	1.5	0.1
0.01	1	0.00336495199996989	1	105	NA	298.684368982	0	0.24	5.84	1	293.963434188	293.96679914	"30"	895.266581423	892.572161196	1.5	0.1
0.01	1	0.00451951600007305	1	105	NA	298.684368982	0	0.24	5.84	1	294.197128664	294.20164818	"30"	895.266581423	892.572161196	1.5	0.1
0.01	1	0.00460251000004064	1	105	NA	298.684368982	0	0.24	5.84	1	294.43086118	294.43546369	"30"	895.266581423	892.572161196	1.5	0.1
0.01	1	0.0040454799999452	1	105	NA	298.684368982	0	0.24	5.84	1	294.664583268	294.668628748	"30"	895.266581423	892.572161196	1.5	0.1
0.01	1	0.00345605099994373	1	105	NA	298.684368982	0	0.24	5.84	1	294.898270335	294.901726386	"30"	895.266581423	892.572161196	1.5	0.1
0.01	1	0.00369710899997244	1	105	NA	298.684368982	0	0.24	5.84	1	295.131940293	295.135637402	"30"	895.266581423	892.572161196	1.5	0.1
0.01	1	0.00393765400008306	1	105	NA	298.684368982	0	0.24	5.84	1	295.36570959	295.369647244	"30"	895.266581423	892.572161196	1.5	0.1
0.01	1	0.00407589999997526	1	105	NA	298.684368982	0	0.24	5.84	1	295.599558378	295.603634278	"30"	895.266581423	892.572161196	1.5	0.1
0.01	1	0.00403205300005993	1	105	NA	298.684368982	0	0.24	5.84	1	295.833191175	295.837223228	"30"	895.266581423	892.572161196	1.5	0.1
0.01	1	0.00382103100002951	1	105	NA	298.684368982	0	0.24	5.84	1	296.066946495	296.070767526	"30"	895.266581423	892.572161196	1.5	0.1
0.01	1	0.00390285000003132	1	105	NA	298.684368982	0	0.24	5.84	1	296.300509998	296.304412848	"30"	895.266581423	892.572161196	1.5	0.1
0.01	1	0.003926978000095	1	105	NA	298.684368982	0	0.24	5.84	1	296.53433741	296.538264388	"30"	895.266581423	892.572161196	1.5	0.1
0.01	1	0.00389547299994319	1	105	NA	298.684368982	0	0.24	5.84	1	296.768056365	296.771951838	"30"	895.266581423	892.572161196	1.5	0.1
0.01	1	0.00399404499989942	1	105	NA	298.684368982	0	0.24	5.84	1	297.001816963	297.005811008	"30"	895.266581423	892.572161196	1.5	0.1
0.01	1	0.00474215199994887	1	105	NA	298.684368982	0	0.24	5.84	1	297.235576533	297.240318685	"30"	895.266581423	892.572161196	1.5	0.1
0.01	1	0.00375005500006864	1	105	NA	298.684368982	0	0.24	5.84	1	297.469187463	297.472937518	"30"	895.266581423	892.572161196	1.5	0.1
0.01	1	0.00389410200000384	1	105	NA	298.684368982	0	0.24	5.84	1	297.70295695	297.706851052	"30"	895.266581423	892.572161196	1.5	0.1
0.01	1	0.0039026089999652	1	105	NA	298.684368982	0	0.24	5.84	1	297.936732633	297.940635242	"30"	895.266581423	892.572161196	1.5	0.1
0.01	1	0.00331463199995596	1	105	NA	298.684368982	0	0.24	5.84	1	298.170394772	298.173709404	"30"	895.266581423	892.572161196	1.5	0.1
0.01	1	0.278623510999978	2	105	NA	298.684368982	0	0.24	5.84	1	298.4041873	298.682810811	"30"	895.266581423	892.572161196	1.5	0.1
