"payoff.level"	"balloon"	"rt"	"resp"	"explode.trial"	"explode.time"	"finish.time"	"exploded"	"trial.total"	"cumulative.total"	"finished"	"trial.start"	"trial.end"	"trial.num"	"secs"	"start.time"	"iti"	"isi"
0.01	1	6.28132672100003	1	64	NA	15.201333818	0	0.08	0.08	1	0.0141758769999569	6.29550259799998	"1"	634.707682731	632.029338572	1.5	0.1
0.01	1	1.26102996499998	1	64	NA	15.201333818	0	0.08	0.08	1	6.65872489499998	7.91975485999995	"1"	634.707682731	632.029338572	1.5	0.1
0.01	1	0.800199598999995	1	64	NA	15.201333818	0	0.08	0.08	1	8.14455702699996	8.94475662599996	"1"	634.707682731	632.029338572	1.5	0.1
0.01	1	0.972800982999956	1	64	NA	15.201333818	0	0.08	0.08	1	9.179640608	10.152441591	"1"	634.707682731	632.029338572	1.5	0.1
0.01	1	0.834258239000008	1	64	NA	15.201333818	0	0.08	0.08	1	10.381718318	11.215976557	"1"	634.707682731	632.029338572	1.5	0.1
0.01	1	0.358926202000021	1	64	NA	15.201333818	0	0.08	0.08	1	11.450190885	11.809117087	"1"	634.707682731	632.029338572	1.5	0.1
0.01	1	1.06922017700003	1	64	NA	15.201333818	0	0.08	0.08	1	12.03446844	13.103688617	"1"	634.707682731	632.029338572	1.5	0.1
0.01	1	0.846791081999982	1	64	NA	15.201333818	0	0.08	0.08	1	13.336735713	14.183526795	"1"	634.707682731	632.029338572	1.5	0.1
0.01	1	0.777873519000025	2	64	NA	15.201333818	0	0.08	0.08	1	14.421771431	15.19964495	"1"	634.707682731	632.029338572	1.5	0.1
0.01	1	0.317134791000001	1	102	NA	25.873865357	0	0.22	0.3	1	17.22645317	17.543587961	"2"	634.707682731	632.029338572	1.5	0.1
0.01	1	0.0387881739999898	1	102	NA	25.873865357	0	0.22	0.3	1	17.777378538	17.816166712	"2"	634.707682731	632.029338572	1.5	0.1
0.01	1	0.0668728850000093	1	102	NA	25.873865357	0	0.22	0.3	1	18.044546433	18.111419318	"2"	634.707682731	632.029338572	1.5	0.1
0.01	1	0.00324843200002078	1	102	NA	25.873865357	0	0.22	0.3	1	18.345158431	18.348406863	"2"	634.707682731	632.029338572	1.5	0.1
0.01	1	0.00377423200001203	1	102	NA	25.873865357	0	0.22	0.3	1	18.578710875	18.582485107	"2"	634.707682731	632.029338572	1.5	0.1
0.01	1	0.0841681329999915	1	102	NA	25.873865357	0	0.22	0.3	1	18.812481935	18.896650068	"2"	634.707682731	632.029338572	1.5	0.1
0.01	1	0.00714961899996069	1	102	NA	25.873865357	0	0.22	0.3	1	19.129728038	19.136877657	"2"	634.707682731	632.029338572	1.5	0.1
0.01	1	0.00727941799999599	1	102	NA	25.873865357	0	0.22	0.3	1	19.363513423	19.370792841	"2"	634.707682731	632.029338572	1.5	0.1
0.01	1	0.370457866999971	1	102	NA	25.873865357	0	0.22	0.3	1	19.597083538	19.967541405	"2"	634.707682731	632.029338572	1.5	0.1
0.01	1	0.00404350300004808	1	102	NA	25.873865357	0	0.22	0.3	1	20.198134298	20.202177801	"2"	634.707682731	632.029338572	1.5	0.1
0.01	1	0.00395925899999838	1	102	NA	25.873865357	0	0.22	0.3	1	20.432011958	20.435971217	"2"	634.707682731	632.029338572	1.5	0.1
0.01	1	1.045990287	1	102	NA	25.873865357	0	0.22	0.3	1	20.665714778	21.711705065	"2"	634.707682731	632.029338572	1.5	0.1
0.01	1	0.666043184999978	1	102	NA	25.873865357	0	0.22	0.3	1	21.934490176	22.600533361	"2"	634.707682731	632.029338572	1.5	0.1
0.01	1	0.00452031899999383	1	102	NA	25.873865357	0	0.22	0.3	1	22.835981926	22.840502245	"2"	634.707682731	632.029338572	1.5	0.1
0.01	1	0.00429370199998402	1	102	NA	25.873865357	0	0.22	0.3	1	23.069636446	23.073930148	"2"	634.707682731	632.029338572	1.5	0.1
0.01	1	0.0723068180000155	1	102	NA	25.873865357	0	0.22	0.3	1	23.303489013	23.375795831	"2"	634.707682731	632.029338572	1.5	0.1
0.01	1	0.00334390599999779	1	102	NA	25.873865357	0	0.22	0.3	1	23.603994545	23.607338451	"2"	634.707682731	632.029338572	1.5	0.1
0.01	1	0.0573658129999899	1	102	NA	25.873865357	0	0.22	0.3	1	23.837718065	23.895083878	"2"	634.707682731	632.029338572	1.5	0.1
0.01	1	0.00411011799997141	1	102	NA	25.873865357	0	0.22	0.3	1	24.121488173	24.125598291	"2"	634.707682731	632.029338572	1.5	0.1
0.01	1	0.0617449970000052	1	102	NA	25.873865357	0	0.22	0.3	1	24.35524841	24.416993407	"2"	634.707682731	632.029338572	1.5	0.1
0.01	1	0.00810146700001724	1	102	NA	25.873865357	0	0.22	0.3	1	24.655715861	24.663817328	"2"	634.707682731	632.029338572	1.5	0.1
0.01	1	0.00333677999998372	1	102	NA	25.873865357	0	0.22	0.3	1	24.889336321	24.892673101	"2"	634.707682731	632.029338572	1.5	0.1
0.01	1	0.749080327999991	2	102	NA	25.873865357	0	0.22	0.3	1	25.12317081	25.872251138	"2"	634.707682731	632.029338572	1.5	0.1
0.01	1	0.481281293999984	1	97	NA	39.290560722	0	0.38	0.68	1	27.927787379	28.409068673	"3"	634.707682731	632.029338572	1.5	0.1
0.01	1	0.00223833199999035	1	97	NA	39.290560722	0	0.38	0.68	1	28.645804257	28.648042589	"3"	634.707682731	632.029338572	1.5	0.1
0.01	1	0.185462629000028	1	97	NA	39.290560722	0	0.38	0.68	1	28.879399819	29.064862448	"3"	634.707682731	632.029338572	1.5	0.1
0.01	1	0.00405733299999156	1	97	NA	39.290560722	0	0.38	0.68	1	29.29683596	29.300893293	"3"	634.707682731	632.029338572	1.5	0.1
0.01	1	0.125974385000006	1	97	NA	39.290560722	0	0.38	0.68	1	29.530671015	29.6566454	"3"	634.707682731	632.029338572	1.5	0.1
0.01	1	0.00388153099999045	1	97	NA	39.290560722	0	0.38	0.68	1	29.881120938	29.885002469	"3"	634.707682731	632.029338572	1.5	0.1
0.01	1	0.00490975200000321	1	97	NA	39.290560722	0	0.38	0.68	1	30.114979128	30.11988888	"3"	634.707682731	632.029338572	1.5	0.1
0.01	1	0.00470430699999724	1	97	NA	39.290560722	0	0.38	0.68	1	30.348554853	30.35325916	"3"	634.707682731	632.029338572	1.5	0.1
0.01	1	0.00216998700000204	1	97	NA	39.290560722	0	0.38	0.68	1	30.582386132	30.584556119	"3"	634.707682731	632.029338572	1.5	0.1
0.01	1	0.00378502099999878	1	97	NA	39.290560722	0	0.38	0.68	1	30.8160472	30.819832221	"3"	634.707682731	632.029338572	1.5	0.1
0.01	1	0.00229204200002187	1	97	NA	39.290560722	0	0.38	0.68	1	31.049714759	31.052006801	"3"	634.707682731	632.029338572	1.5	0.1
0.01	1	0.0022358399999689	1	97	NA	39.290560722	0	0.38	0.68	1	31.283439328	31.285675168	"3"	634.707682731	632.029338572	1.5	0.1
0.01	1	0.48314617799997	1	97	NA	39.290560722	0	0.38	0.68	1	31.517124847	32.000271025	"3"	634.707682731	632.029338572	1.5	0.1
0.01	1	0.228863095999998	1	97	NA	39.290560722	0	0.38	0.68	1	32.235083383	32.463946479	"3"	634.707682731	632.029338572	1.5	0.1
0.01	1	0.161546835000024	1	97	NA	39.290560722	0	0.38	0.68	1	32.685831908	32.847378743	"3"	634.707682731	632.029338572	1.5	0.1
0.01	1	0.075369161000026	1	97	NA	39.290560722	0	0.38	0.68	1	33.069802588	33.145171749	"3"	634.707682731	632.029338572	1.5	0.1
0.01	1	0.0221275490000039	1	97	NA	39.290560722	0	0.38	0.68	1	33.370358648	33.392486197	"3"	634.707682731	632.029338572	1.5	0.1
0.01	1	0.00234684399998741	1	97	NA	39.290560722	0	0.38	0.68	1	33.620838348	33.623185192	"3"	634.707682731	632.029338572	1.5	0.1
0.01	1	0.0412015250000195	1	97	NA	39.290560722	0	0.38	0.68	1	33.85451475	33.895716275	"3"	634.707682731	632.029338572	1.5	0.1
0.01	1	0.063109441999984	1	97	NA	39.290560722	0	0.38	0.68	1	34.12151961	34.184629052	"3"	634.707682731	632.029338572	1.5	0.1
0.01	1	0.00344088899998951	1	97	NA	39.290560722	0	0.38	0.68	1	34.42208449	34.425525379	"3"	634.707682731	632.029338572	1.5	0.1
0.01	1	0.00331393599998364	1	97	NA	39.290560722	0	0.38	0.68	1	34.655836411	34.659150347	"3"	634.707682731	632.029338572	1.5	0.1
0.01	1	0.102804129999981	1	97	NA	39.290560722	0	0.38	0.68	1	34.889526058	34.992330188	"3"	634.707682731	632.029338572	1.5	0.1
0.01	1	0.00338530600004106	1	97	NA	39.290560722	0	0.38	0.68	1	35.223443351	35.226828657	"3"	634.707682731	632.029338572	1.5	0.1
0.01	1	0.00373820700002625	1	97	NA	39.290560722	0	0.38	0.68	1	35.45724524	35.460983447	"3"	634.707682731	632.029338572	1.5	0.1
0.01	1	0.00283035100000006	1	97	NA	39.290560722	0	0.38	0.68	1	35.690834017	35.693664368	"3"	634.707682731	632.029338572	1.5	0.1
0.01	1	0.0830007810000097	1	97	NA	39.290560722	0	0.38	0.68	1	35.924553944	36.007554725	"3"	634.707682731	632.029338572	1.5	0.1
0.01	1	0.00230526199999304	1	97	NA	39.290560722	0	0.38	0.68	1	36.241852511	36.244157773	"3"	634.707682731	632.029338572	1.5	0.1
0.01	1	0.00402221900003497	1	97	NA	39.290560722	0	0.38	0.68	1	36.4755744	36.479596619	"3"	634.707682731	632.029338572	1.5	0.1
0.01	1	0.00218128099999149	1	97	NA	39.290560722	0	0.38	0.68	1	36.709296007	36.711477288	"3"	634.707682731	632.029338572	1.5	0.1
0.01	1	0.00378699700002016	1	97	NA	39.290560722	0	0.38	0.68	1	36.942973108	36.946760105	"3"	634.707682731	632.029338572	1.5	0.1
0.01	1	0.00471944700001359	1	97	NA	39.290560722	0	0.38	0.68	1	37.176921183	37.18164063	"3"	634.707682731	632.029338572	1.5	0.1
0.01	1	0.0022176129999707	1	97	NA	39.290560722	0	0.38	0.68	1	37.410529538	37.412747151	"3"	634.707682731	632.029338572	1.5	0.1
0.01	1	0.116520873000013	1	97	NA	39.290560722	0	0.38	0.68	1	37.644268788	37.760789661	"3"	634.707682731	632.029338572	1.5	0.1
0.01	1	0.00234177900000532	1	97	NA	39.290560722	0	0.38	0.68	1	37.994775426	37.997117205	"3"	634.707682731	632.029338572	1.5	0.1
0.01	1	0.00426160699998945	1	97	NA	39.290560722	0	0.38	0.68	1	38.22853809	38.232799697	"3"	634.707682731	632.029338572	1.5	0.1
0.01	1	0.00401549500003284	1	97	NA	39.290560722	0	0.38	0.68	1	38.46238276	38.466398255	"3"	634.707682731	632.029338572	1.5	0.1
0.01	1	0.0483601349999958	1	97	NA	39.290560722	0	0.38	0.68	1	38.695989553	38.744349688	"3"	634.707682731	632.029338572	1.5	0.1
0.01	1	0.309107176999987	2	97	NA	39.290560722	0	0.38	0.68	1	38.979772008	39.288879185	"3"	634.707682731	632.029338572	1.5	0.1
0.01	1	0.00210244999999532	1	51	NA	50.329246532	0	0.23	0.91	1	41.333651427	41.335753877	"4"	634.707682731	632.029338572	1.5	0.1
0.01	1	0.144035305999978	1	51	NA	50.329246532	0	0.23	0.91	1	41.567415971	41.711451277	"4"	634.707682731	632.029338572	1.5	0.1
0.01	1	0.0816013070000281	1	51	NA	50.329246532	0	0.23	0.91	1	41.934740604	42.016341911	"4"	634.707682731	632.029338572	1.5	0.1
0.01	1	0.0368627930000116	1	51	NA	50.329246532	0	0.23	0.91	1	42.251931078	42.288793871	"4"	634.707682731	632.029338572	1.5	0.1
0.01	1	0.00226543399998036	1	51	NA	50.329246532	0	0.23	0.91	1	42.519018891	42.521284325	"4"	634.707682731	632.029338572	1.5	0.1
0.01	1	0.00206147300002613	1	51	NA	50.329246532	0	0.23	0.91	1	42.752845088	42.754906561	"4"	634.707682731	632.029338572	1.5	0.1
0.01	1	0.174515380999992	1	51	NA	50.329246532	0	0.23	0.91	1	42.986527648	43.161043029	"4"	634.707682731	632.029338572	1.5	0.1
0.01	1	0.22844318999995	1	51	NA	50.329246532	0	0.23	0.91	1	43.387181327	43.615624517	"4"	634.707682731	632.029338572	1.5	0.1
0.01	1	0.0897508159999916	1	51	NA	50.329246532	0	0.23	0.91	1	43.837934755	43.927685571	"4"	634.707682731	632.029338572	1.5	0.1
0.01	1	0.0527770870000381	1	51	NA	50.329246532	0	0.23	0.91	1	44.155083008	44.207860095	"4"	634.707682731	632.029338572	1.5	0.1
0.01	1	0.0492581440000208	1	51	NA	50.329246532	0	0.23	0.91	1	44.439024499	44.488282643	"4"	634.707682731	632.029338572	1.5	0.1
0.01	1	0.0368616130000419	1	51	NA	50.329246532	0	0.23	0.91	1	44.722770888	44.759632501	"4"	634.707682731	632.029338572	1.5	0.1
0.01	1	0.00226560499999096	1	51	NA	50.329246532	0	0.23	0.91	1	44.98974698	44.992012585	"4"	634.707682731	632.029338572	1.5	0.1
0.01	1	0.0652054110000222	1	51	NA	50.329246532	0	0.23	0.91	1	45.223669645	45.288875056	"4"	634.707682731	632.029338572	1.5	0.1
0.01	1	0.00240652200000113	1	51	NA	50.329246532	0	0.23	0.91	1	45.524036245	45.526442767	"4"	634.707682731	632.029338572	1.5	0.1
0.01	1	1.48309370699997	1	51	NA	50.329246532	0	0.23	0.91	1	45.757952833	47.24104654	"4"	634.707682731	632.029338572	1.5	0.1
0.01	1	0.0592483810000317	1	51	NA	50.329246532	0	0.23	0.91	1	47.477431677	47.536680058	"4"	634.707682731	632.029338572	1.5	0.1
0.01	1	0.0163211010000168	1	51	NA	50.329246532	0	0.23	0.91	1	47.761272489	47.77759359	"4"	634.707682731	632.029338572	1.5	0.1
0.01	1	0.00471371200001158	1	51	NA	50.329246532	0	0.23	0.91	1	48.011698888	48.0164126	"4"	634.707682731	632.029338572	1.5	0.1
0.01	1	0.00208722499996838	1	51	NA	50.329246532	0	0.23	0.91	1	48.245450232	48.247537457	"4"	634.707682731	632.029338572	1.5	0.1
0.01	1	0.257082023000009	1	51	NA	50.329246532	0	0.23	0.91	1	48.479082805	48.736164828	"4"	634.707682731	632.029338572	1.5	0.1
0.01	1	0.00435429599997406	1	51	NA	50.329246532	0	0.23	0.91	1	48.963095867	48.967450163	"4"	634.707682731	632.029338572	1.5	0.1
0.01	1	0.0677834589999975	1	51	NA	50.329246532	0	0.23	0.91	1	49.19684601	49.264629469	"4"	634.707682731	632.029338572	1.5	0.1
0.01	1	0.830234179999991	2	51	NA	50.329246532	0	0.23	0.91	1	49.497443393	50.327677573	"4"	634.707682731	632.029338572	1.5	0.1
0.01	1	0.00399613099995122	1	116	NA	58.425766679	0	0.18	1.09	1	52.38567867	52.389674801	"5"	634.707682731	632.029338572	1.5	0.1
0.01	1	0.0925744619999591	1	116	NA	58.425766679	0	0.18	1.09	1	52.619389646	52.711964108	"5"	634.707682731	632.029338572	1.5	0.1
0.01	1	0.0162214300000301	1	116	NA	58.425766679	0	0.18	1.09	1	52.936760433	52.952981863	"5"	634.707682731	632.029338572	1.5	0.1
0.01	1	0.0289337739999951	1	116	NA	58.425766679	0	0.18	1.09	1	53.187007563	53.215941337	"5"	634.707682731	632.029338572	1.5	0.1
0.01	1	0.0180002829999921	1	116	NA	58.425766679	0	0.18	1.09	1	53.454298688	53.472298971	"5"	634.707682731	632.029338572	1.5	0.1
0.01	1	0.0160714879999659	1	116	NA	58.425766679	0	0.18	1.09	1	53.70460655	53.720678038	"5"	634.707682731	632.029338572	1.5	0.1
0.01	1	0.0374367999999663	1	116	NA	58.425766679	0	0.18	1.09	1	53.955035748	53.992472548	"5"	634.707682731	632.029338572	1.5	0.1
0.01	1	0.0749290279999855	1	116	NA	58.425766679	0	0.18	1.09	1	54.2220824	54.297011428	"5"	634.707682731	632.029338572	1.5	0.1
0.01	1	0.0855831250000278	1	116	NA	58.425766679	0	0.18	1.09	1	54.522577623	54.608160748	"5"	634.707682731	632.029338572	1.5	0.1
0.01	1	0.104702745999987	1	116	NA	58.425766679	0	0.18	1.09	1	54.839811153	54.944513899	"5"	634.707682731	632.029338572	1.5	0.1
0.01	1	0.507289221999997	1	116	NA	58.425766679	0	0.18	1.09	1	55.173670628	55.68095985	"5"	634.707682731	632.029338572	1.5	0.1
0.01	1	0.284291945000007	1	116	NA	58.425766679	0	0.18	1.09	1	55.908167496	56.192459441	"5"	634.707682731	632.029338572	1.5	0.1
0.01	1	0.0308870270000057	1	116	NA	58.425766679	0	0.18	1.09	1	56.425883378	56.456770405	"5"	634.707682731	632.029338572	1.5	0.1
0.01	1	0.0044192650000241	1	116	NA	58.425766679	0	0.18	1.09	1	56.692884578	56.697303843	"5"	634.707682731	632.029338572	1.5	0.1
0.01	1	0.0251573049999934	1	116	NA	58.425766679	0	0.18	1.09	1	56.92664289	56.951800195	"5"	634.707682731	632.029338572	1.5	0.1
0.01	1	0.0316246410000076	1	116	NA	58.425766679	0	0.18	1.09	1	57.177033153	57.208657794	"5"	634.707682731	632.029338572	1.5	0.1
0.01	1	0.0022282250000103	1	116	NA	58.425766679	0	0.18	1.09	1	57.444194612	57.446422837	"5"	634.707682731	632.029338572	1.5	0.1
0.01	1	0.0039743830000134	1	116	NA	58.425766679	0	0.18	1.09	1	57.677862798	57.681837181	"5"	634.707682731	632.029338572	1.5	0.1
0.01	1	0.512606000000005	2	116	NA	58.425766679	0	0.18	1.09	1	57.911624783	58.424230783	"5"	634.707682731	632.029338572	1.5	0.1
0.01	1	0.341552100999991	1	118	NA	65.786369131	0	0.14	1.23	1	60.465934353	60.807486454	"6"	634.707682731	632.029338572	1.5	0.1
0.01	1	0.0216544310000018	1	118	NA	65.786369131	0	0.14	1.23	1	61.033630328	61.055284759	"6"	634.707682731	632.029338572	1.5	0.1
0.01	1	0.0201620139999932	1	118	NA	65.786369131	0	0.14	1.23	1	61.283992053	61.304154067	"6"	634.707682731	632.029338572	1.5	0.1
0.01	1	0.018278467000016	1	118	NA	65.786369131	0	0.14	1.23	1	61.534513459	61.552791926	"6"	634.707682731	632.029338572	1.5	0.1
0.01	1	0.0151386050000042	1	118	NA	65.786369131	0	0.14	1.23	1	61.78478846	61.799927065	"6"	634.707682731	632.029338572	1.5	0.1
0.01	1	0.0070313390000365	1	118	NA	65.786369131	0	0.14	1.23	1	62.03525381	62.042285149	"6"	634.707682731	632.029338572	1.5	0.1
0.01	1	0.370220483000026	1	118	NA	65.786369131	0	0.14	1.23	1	62.269014828	62.639235311	"6"	634.707682731	632.029338572	1.5	0.1
0.01	1	0.402518270999963	1	118	NA	65.786369131	0	0.14	1.23	1	62.87000523	63.272523501	"6"	634.707682731	632.029338572	1.5	0.1
0.01	1	0.0160216200000036	1	118	NA	65.786369131	0	0.14	1.23	1	63.504384623	63.520406243	"6"	634.707682731	632.029338572	1.5	0.1
0.01	1	0.00400818700001082	1	118	NA	65.786369131	0	0.14	1.23	1	63.75489652	63.758904707	"6"	634.707682731	632.029338572	1.5	0.1
0.01	1	0.00228968300001497	1	118	NA	65.786369131	0	0.14	1.23	1	63.988403348	63.990693031	"6"	634.707682731	632.029338572	1.5	0.1
0.01	1	0.00219598099999985	1	118	NA	65.786369131	0	0.14	1.23	1	64.222301595	64.224497576	"6"	634.707682731	632.029338572	1.5	0.1
0.01	1	0.00204787700005227	1	118	NA	65.786369131	0	0.14	1.23	1	64.455948217	64.457996094	"6"	634.707682731	632.029338572	1.5	0.1
0.01	1	0.0632222829999591	1	118	NA	65.786369131	0	0.14	1.23	1	64.689776709	64.752998992	"6"	634.707682731	632.029338572	1.5	0.1
0.01	1	0.794650752999985	2	118	NA	65.786369131	0	0.14	1.23	1	64.990113925	65.784764678	"6"	634.707682731	632.029338572	1.5	0.1
0.01	1	0.291538124999988	1	87	NA	80.78642972	0	0.36	1.59	1	67.828301292	68.119839417	"7"	634.707682731	632.029338572	1.5	0.1
0.01	1	0.00233545899999399	1	87	NA	80.78642972	0	0.36	1.59	1	68.345827125	68.348162584	"7"	634.707682731	632.029338572	1.5	0.1
0.01	1	0.020401540000023	1	87	NA	80.78642972	0	0.36	1.59	1	68.579564933	68.599966473	"7"	634.707682731	632.029338572	1.5	0.1
0.01	1	0.0580562110000074	1	87	NA	80.78642972	0	0.36	1.59	1	68.82995557	68.888011781	"7"	634.707682731	632.029338572	1.5	0.1
0.01	1	0.0536734080000087	1	87	NA	80.78642972	0	0.36	1.59	1	69.113726603	69.167400011	"7"	634.707682731	632.029338572	1.5	0.1
0.01	1	0.0747989340000004	1	87	NA	80.78642972	0	0.36	1.59	1	69.397696378	69.472495312	"7"	634.707682731	632.029338572	1.5	0.1
0.01	1	0.0611453239999946	1	87	NA	80.78642972	0	0.36	1.59	1	69.698116768	69.759262092	"7"	634.707682731	632.029338572	1.5	0.1
0.01	1	0.042871837000007	1	87	NA	80.78642972	0	0.36	1.59	1	69.982004803	70.02487664	"7"	634.707682731	632.029338572	1.5	0.1
0.01	1	0.0460182030000169	1	87	NA	80.78642972	0	0.36	1.59	1	70.24910808	70.295126283	"7"	634.707682731	632.029338572	1.5	0.1
0.01	1	0.0921544199999857	1	87	NA	80.78642972	0	0.36	1.59	1	70.532916873	70.625071293	"7"	634.707682731	632.029338572	1.5	0.1
0.01	1	0.102077743999985	1	87	NA	80.78642972	0	0.36	1.59	1	70.850061748	70.952139492	"7"	634.707682731	632.029338572	1.5	0.1
0.01	1	0.0711716609999939	1	87	NA	80.78642972	0	0.36	1.59	1	71.18396318	71.255134841	"7"	634.707682731	632.029338572	1.5	0.1
0.01	1	0.0520928230000095	1	87	NA	80.78642972	0	0.36	1.59	1	71.484508428	71.536601251	"7"	634.707682731	632.029338572	1.5	0.1
0.01	1	0.0962683089999814	1	87	NA	80.78642972	0	0.36	1.59	1	71.768348793	71.864617102	"7"	634.707682731	632.029338572	1.5	0.1
0.01	1	0.0587931949999643	1	87	NA	80.78642972	0	0.36	1.59	1	72.102086256	72.160879451	"7"	634.707682731	632.029338572	1.5	0.1
0.01	1	0.00467126000000917	1	87	NA	80.78642972	0	0.36	1.59	1	72.385982578	72.390653838	"7"	634.707682731	632.029338572	1.5	0.1
0.01	1	0.0607766099999481	1	87	NA	80.78642972	0	0.36	1.59	1	72.619772613	72.680549223	"7"	634.707682731	632.029338572	1.5	0.1
0.01	1	0.00217305099999976	1	87	NA	80.78642972	0	0.36	1.59	1	72.90348075	72.905653801	"7"	634.707682731	632.029338572	1.5	0.1
0.01	1	0.0700124640000013	1	87	NA	80.78642972	0	0.36	1.59	1	73.137269313	73.207281777	"7"	634.707682731	632.029338572	1.5	0.1
0.01	1	0.0743508389999761	1	87	NA	80.78642972	0	0.36	1.59	1	73.43778554	73.512136379	"7"	634.707682731	632.029338572	1.5	0.1
0.01	1	0.0943846700000108	1	87	NA	80.78642972	0	0.36	1.59	1	73.73825168	73.83263635	"7"	634.707682731	632.029338572	1.5	0.1
0.01	1	0.0799615849999782	1	87	NA	80.78642972	0	0.36	1.59	1	74.055444325	74.13540591	"7"	634.707682731	632.029338572	1.5	0.1
0.01	1	0.0667398620000199	1	87	NA	80.78642972	0	0.36	1.59	1	74.372601053	74.439340915	"7"	634.707682731	632.029338572	1.5	0.1
0.01	1	0.0635746739999945	1	87	NA	80.78642972	0	0.36	1.59	1	74.673075398	74.736650072	"7"	634.707682731	632.029338572	1.5	0.1
0.01	1	1.19359233099999	1	87	NA	80.78642972	0	0.36	1.59	1	74.973674608	76.167266939	"7"	634.707682731	632.029338572	1.5	0.1
0.01	1	0.0020778140000175	1	87	NA	80.78642972	0	0.36	1.59	1	76.392812593	76.394890407	"7"	634.707682731	632.029338572	1.5	0.1
0.01	1	0.0303555119999714	1	87	NA	80.78642972	0	0.36	1.59	1	76.626528953	76.656884465	"7"	634.707682731	632.029338572	1.5	0.1
0.01	1	0.0753297880000332	1	87	NA	80.78642972	0	0.36	1.59	1	76.893501693	76.968831481	"7"	634.707682731	632.029338572	1.5	0.1
0.01	1	0.110479622000014	1	87	NA	80.78642972	0	0.36	1.59	1	77.19408515	77.304564772	"7"	634.707682731	632.029338572	1.5	0.1
0.01	1	0.0789756819999639	1	87	NA	80.78642972	0	0.36	1.59	1	77.544693768	77.62366945	"7"	634.707682731	632.029338572	1.5	0.1
0.01	1	0.0822122659999991	1	87	NA	80.78642972	0	0.36	1.59	1	77.861831228	77.944043494	"7"	634.707682731	632.029338572	1.5	0.1
0.01	1	0.117409454999972	1	87	NA	80.78642972	0	0.36	1.59	1	78.179041628	78.296451083	"7"	634.707682731	632.029338572	1.5	0.1
0.01	1	0.0947791940000116	1	87	NA	80.78642972	0	0.36	1.59	1	78.529661198	78.624440392	"7"	634.707682731	632.029338572	1.5	0.1
0.01	1	0.897560054999985	1	87	NA	80.78642972	0	0.36	1.59	1	78.84683039	79.744390445	"7"	634.707682731	632.029338572	1.5	0.1
0.01	1	0.00209539999997332	1	87	NA	80.78642972	0	0.36	1.59	1	79.982073829	79.984169229	"7"	634.707682731	632.029338572	1.5	0.1
0.01	1	0.064776452999979	1	87	NA	80.78642972	0	0.36	1.59	1	80.215841328	80.280617781	"7"	634.707682731	632.029338572	1.5	0.1
0.01	1	0.268572727999981	2	87	NA	80.78642972	0	0.36	1.59	1	80.51629497	80.784867698	"7"	634.707682731	632.029338572	1.5	0.1
0.01	1	0.588236697000013	1	6	84.809011413	NA	1	0	1.59	1	82.836863873	83.42510057	"8"	634.707682731	632.029338572	1.5	0.1
0.01	1	0.0172761099999548	1	6	84.809011413	NA	1	0	1.59	1	83.654953438	83.672229548	"8"	634.707682731	632.029338572	1.5	0.1
0.01	1	0.0398720339999841	1	6	84.809011413	NA	1	0	1.59	1	83.90534197	83.945214004	"8"	634.707682731	632.029338572	1.5	0.1
0.01	1	0.00324058800003968	1	6	84.809011413	NA	1	0	1.59	1	84.172418503	84.175659091	"8"	634.707682731	632.029338572	1.5	0.1
0.01	1	0.0254744080000364	1	6	84.809011413	NA	1	0	1.59	1	84.406167748	84.431642156	"8"	634.707682731	632.029338572	1.5	0.1
0.01	1	0.0326633660000084	1	6	84.809011413	NA	1	0	1.59	1	84.656519073	84.689182439	"8"	634.707682731	632.029338572	1.5	0.1
0.01	1	0.80466100000001	1	106	NA	95.482826632	0	0.29	1.88	1	86.843613743	87.648274743	"9"	634.707682731	632.029338572	1.5	0.1
0.01	1	0.0180075760000022	1	106	NA	95.482826632	0	0.29	1.88	1	87.878736733	87.896744309	"9"	634.707682731	632.029338572	1.5	0.1
0.01	1	0.00274420599998848	1	106	NA	95.482826632	0	0.29	1.88	1	88.129114889	88.131859095	"9"	634.707682731	632.029338572	1.5	0.1
0.01	1	0.0135678760000246	1	106	NA	95.482826632	0	0.29	1.88	1	88.362793073	88.376360949	"9"	634.707682731	632.029338572	1.5	0.1
0.01	1	0.0021006890000308	1	106	NA	95.482826632	0	0.29	1.88	1	88.61327926	88.615379949	"9"	634.707682731	632.029338572	1.5	0.1
0.01	1	0.00391370899995991	1	106	NA	95.482826632	0	0.29	1.88	1	88.846964598	88.850878307	"9"	634.707682731	632.029338572	1.5	0.1
0.01	1	0.0161922479999816	1	106	NA	95.482826632	0	0.29	1.88	1	89.080726917	89.096919165	"9"	634.707682731	632.029338572	1.5	0.1
0.01	1	0.00212031400002388	1	106	NA	95.482826632	0	0.29	1.88	1	89.331054996	89.33317531	"9"	634.707682731	632.029338572	1.5	0.1
0.01	1	0.00223888800002214	1	106	NA	95.482826632	0	0.29	1.88	1	89.564920258	89.567159146	"9"	634.707682731	632.029338572	1.5	0.1
0.01	1	0.00218315500001154	1	106	NA	95.482826632	0	0.29	1.88	1	89.798648041	89.800831196	"9"	634.707682731	632.029338572	1.5	0.1
0.01	1	0.103287561000002	1	106	NA	95.482826632	0	0.29	1.88	1	90.032242168	90.135529729	"9"	634.707682731	632.029338572	1.5	0.1
0.01	1	0.00207603999996309	1	106	NA	95.482826632	0	0.29	1.88	1	90.366220139	90.368296179	"9"	634.707682731	632.029338572	1.5	0.1
0.01	1	0.112790587999996	1	106	NA	95.482826632	0	0.29	1.88	1	90.599995693	90.712786281	"9"	634.707682731	632.029338572	1.5	0.1
0.01	1	0.160765801000025	1	106	NA	95.482826632	0	0.29	1.88	1	90.950529525	91.111295326	"9"	634.707682731	632.029338572	1.5	0.1
0.01	1	0.00408157999999048	1	106	NA	95.482826632	0	0.29	1.88	1	91.334482433	91.338564013	"9"	634.707682731	632.029338572	1.5	0.1
0.01	1	0.103515558999959	1	106	NA	95.482826632	0	0.29	1.88	1	91.568244623	91.671760182	"9"	634.707682731	632.029338572	1.5	0.1
0.01	1	0.00220496899999034	1	106	NA	95.482826632	0	0.29	1.88	1	91.902221365	91.904426334	"9"	634.707682731	632.029338572	1.5	0.1
0.01	1	0.00222986599999331	1	106	NA	95.482826632	0	0.29	1.88	1	92.135851712	92.138081578	"9"	634.707682731	632.029338572	1.5	0.1
0.01	1	0.00211425200001258	1	106	NA	95.482826632	0	0.29	1.88	1	92.369610741	92.371724993	"9"	634.707682731	632.029338572	1.5	0.1
0.01	1	0.00396991299999172	1	106	NA	95.482826632	0	0.29	1.88	1	92.603370408	92.607340321	"9"	634.707682731	632.029338572	1.5	0.1
0.01	1	0.0995530860000144	1	106	NA	95.482826632	0	0.29	1.88	1	92.837061943	92.936615029	"9"	634.707682731	632.029338572	1.5	0.1
0.01	1	0.00473706500002891	1	106	NA	95.482826632	0	0.29	1.88	1	93.171035338	93.175772403	"9"	634.707682731	632.029338572	1.5	0.1
0.01	1	0.00394299900000306	1	106	NA	95.482826632	0	0.29	1.88	1	93.404711258	93.408654257	"9"	634.707682731	632.029338572	1.5	0.1
0.01	1	0.00378842200001372	1	106	NA	95.482826632	0	0.29	1.88	1	93.638306605	93.642095027	"9"	634.707682731	632.029338572	1.5	0.1
0.01	1	0.248657967999975	1	106	NA	95.482826632	0	0.29	1.88	1	93.872097479	94.120755447	"9"	634.707682731	632.029338572	1.5	0.1
0.01	1	0.00740789699995048	1	106	NA	95.482826632	0	0.29	1.88	1	94.356285468	94.363693365	"9"	634.707682731	632.029338572	1.5	0.1
0.01	1	0.00317269999999326	1	106	NA	95.482826632	0	0.29	1.88	1	94.589964847	94.593137547	"9"	634.707682731	632.029338572	1.5	0.1
0.01	1	0.00212506600001916	1	106	NA	95.482826632	0	0.29	1.88	1	94.823793537	94.825918603	"9"	634.707682731	632.029338572	1.5	0.1
0.01	1	0.00231678099999044	1	106	NA	95.482826632	0	0.29	1.88	1	95.057475665	95.059792446	"9"	634.707682731	632.029338572	1.5	0.1
0.01	1	0.190104082000005	2	106	NA	95.482826632	0	0.29	1.88	1	95.291151073	95.481255155	"9"	634.707682731	632.029338572	1.5	0.1
0.01	1	0.471228128999996	1	21	NA	99.820276913	0	0.07	1.95	1	97.528215208	97.999443337	"10"	634.707682731	632.029338572	1.5	0.1
0.01	1	0.00472822700004372	1	21	NA	99.820276913	0	0.07	1.95	1	98.229491998	98.234220225	"10"	634.707682731	632.029338572	1.5	0.1
0.01	1	0.00993303600000672	1	21	NA	99.820276913	0	0.07	1.95	1	98.463115873	98.473048909	"10"	634.707682731	632.029338572	1.5	0.1
0.01	1	0.0552755610000304	1	21	NA	99.820276913	0	0.07	1.95	1	98.71360399	98.768879551	"10"	634.707682731	632.029338572	1.5	0.1
0.01	1	0.0756750809999858	1	21	NA	99.820276913	0	0.07	1.95	1	98.997371	99.073046081	"10"	634.707682731	632.029338572	1.5	0.1
0.01	1	0.061467035000021	1	21	NA	99.820276913	0	0.07	1.95	1	99.297852968	99.359320003	"10"	634.707682731	632.029338572	1.5	0.1
0.01	1	0.00218765100004248	1	21	NA	99.820276913	0	0.07	1.95	1	99.58171505	99.583902701	"10"	634.707682731	632.029338572	1.5	0.1
0.01	1	0.00311626600000636	2	21	NA	99.820276913	0	0.07	1.95	1	99.815547817	99.818664083	"10"	634.707682731	632.029338572	1.5	0.1
0.01	1	0.548637401999997	1	19	NA	107.817398304	0	0.17	2.12	1	101.852225133	102.400862535	"11"	634.707682731	632.029338572	1.5	0.1
0.01	1	0.0585057029999803	1	19	NA	107.817398304	0	0.17	2.12	1	102.636890193	102.695395896	"11"	634.707682731	632.029338572	1.5	0.1
0.01	1	0.0248317690000022	1	19	NA	107.817398304	0	0.17	2.12	1	102.920624273	102.945456042	"11"	634.707682731	632.029338572	1.5	0.1
0.01	1	0.0135215529999755	1	19	NA	107.817398304	0	0.17	2.12	1	103.171099728	103.184621281	"11"	634.707682731	632.029338572	1.5	0.1
0.01	1	0.00373947999997881	1	19	NA	107.817398304	0	0.17	2.12	1	103.421646393	103.425385873	"11"	634.707682731	632.029338572	1.5	0.1
0.01	1	0.00384792099998776	1	19	NA	107.817398304	0	0.17	2.12	1	103.65517488	103.659022801	"11"	634.707682731	632.029338572	1.5	0.1
0.01	1	0.00250167400002965	1	19	NA	107.817398304	0	0.17	2.12	1	103.888878631	103.891380305	"11"	634.707682731	632.029338572	1.5	0.1
0.01	1	0.00393680099995208	1	19	NA	107.817398304	0	0.17	2.12	1	104.12271254	104.126649341	"11"	634.707682731	632.029338572	1.5	0.1
0.01	1	0.0679880799999637	1	19	NA	107.817398304	0	0.17	2.12	1	104.356514785	104.424502865	"11"	634.707682731	632.029338572	1.5	0.1
0.01	1	0.0870562580000183	1	19	NA	107.817398304	0	0.17	2.12	1	104.656883943	104.743940201	"11"	634.707682731	632.029338572	1.5	0.1
0.01	1	0.00442581699996936	1	19	NA	107.817398304	0	0.17	2.12	1	104.974127581	104.978553398	"11"	634.707682731	632.029338572	1.5	0.1
0.01	1	0.0478633980000041	1	19	NA	107.817398304	0	0.17	2.12	1	105.207874203	105.255737601	"11"	634.707682731	632.029338572	1.5	0.1
0.01	1	0.00220502399997713	1	19	NA	107.817398304	0	0.17	2.12	1	105.491760967	105.493965991	"11"	634.707682731	632.029338572	1.5	0.1
0.01	1	0.0501865940000243	1	19	NA	107.817398304	0	0.17	2.12	1	105.72541842	105.775605014	"11"	634.707682731	632.029338572	1.5	0.1
0.01	1	0.102456828000015	1	19	NA	107.817398304	0	0.17	2.12	1	106.009286233	106.111743061	"11"	634.707682731	632.029338572	1.5	0.1
0.01	1	0.090085020999993	1	19	NA	107.817398304	0	0.17	2.12	1	106.343163238	106.433248259	"11"	634.707682731	632.029338572	1.5	0.1
0.01	1	0.0841139279999652	1	19	NA	107.817398304	0	0.17	2.12	1	106.66026724	106.744381168	"11"	634.707682731	632.029338572	1.5	0.1
0.01	1	0.838350741999989	2	19	NA	107.817398304	0	0.17	2.12	1	106.977508673	107.815859415	"11"	634.707682731	632.029338572	1.5	0.1
0.01	1	0.029452636999963	1	63	NA	120.681595788	0	0.28	2.4	1	109.865684123	109.89513676	"12"	634.707682731	632.029338572	1.5	0.1
0.01	1	0.130572145000031	1	63	NA	120.681595788	0	0.28	2.4	1	110.13274724	110.263319385	"12"	634.707682731	632.029338572	1.5	0.1
0.01	1	0.0605459500000052	1	63	NA	120.681595788	0	0.28	2.4	1	110.500074118	110.560620068	"12"	634.707682731	632.029338572	1.5	0.1
0.01	1	0.111678052000002	1	63	NA	120.681595788	0	0.28	2.4	1	110.783921843	110.895599895	"12"	634.707682731	632.029338572	1.5	0.1
0.01	1	0.115487927000004	1	63	NA	120.681595788	0	0.28	2.4	1	111.11775157	111.233239497	"12"	634.707682731	632.029338572	1.5	0.1
0.01	1	0.0922859519999975	1	63	NA	120.681595788	0	0.28	2.4	1	111.468409398	111.56069535	"12"	634.707682731	632.029338572	1.5	0.1
0.01	1	0.101966470000036	1	63	NA	120.681595788	0	0.28	2.4	1	111.785683288	111.887649758	"12"	634.707682731	632.029338572	1.5	0.1
0.01	1	0.0812702249999688	1	63	NA	120.681595788	0	0.28	2.4	1	112.11944601	112.200716235	"12"	634.707682731	632.029338572	1.5	0.1
0.01	1	0.226312394999979	1	63	NA	120.681595788	0	0.28	2.4	1	112.436782123	112.663094518	"12"	634.707682731	632.029338572	1.5	0.1
0.01	1	0.127663029999951	1	63	NA	120.681595788	0	0.28	2.4	1	112.887494188	113.015157218	"12"	634.707682731	632.029338572	1.5	0.1
0.01	1	0.0811865869999906	1	63	NA	120.681595788	0	0.28	2.4	1	113.254775538	113.335962125	"12"	634.707682731	632.029338572	1.5	0.1
0.01	1	0.0846126849999678	1	63	NA	120.681595788	0	0.28	2.4	1	113.571885163	113.656497848	"12"	634.707682731	632.029338572	1.5	0.1
0.01	1	0.51937387800001	1	63	NA	120.681595788	0	0.28	2.4	1	113.889046185	114.408420063	"12"	634.707682731	632.029338572	1.5	0.1
0.01	1	0.936216556999966	1	63	NA	120.681595788	0	0.28	2.4	1	114.640408348	115.576624905	"12"	634.707682731	632.029338572	1.5	0.1
0.01	1	0.398904201999983	1	63	NA	120.681595788	0	0.28	2.4	1	115.809016623	116.207920825	"12"	634.707682731	632.029338572	1.5	0.1
0.01	1	0.300575273999982	1	63	NA	120.681595788	0	0.28	2.4	1	116.443432588	116.744007862	"12"	634.707682731	632.029338572	1.5	0.1
0.01	1	0.102448082000024	1	63	NA	120.681595788	0	0.28	2.4	1	116.977693985	117.080142067	"12"	634.707682731	632.029338572	1.5	0.1
0.01	1	0.0251712140000109	1	63	NA	120.681595788	0	0.28	2.4	1	117.311619508	117.336790722	"12"	634.707682731	632.029338572	1.5	0.1
0.01	1	0.00248835499996858	1	63	NA	120.681595788	0	0.28	2.4	1	117.561942401	117.564430756	"12"	634.707682731	632.029338572	1.5	0.1
0.01	1	0.00588991300003272	1	63	NA	120.681595788	0	0.28	2.4	1	117.795727961	117.801617874	"12"	634.707682731	632.029338572	1.5	0.1
0.01	1	0.00215434900002265	1	63	NA	120.681595788	0	0.28	2.4	1	118.029480145	118.031634494	"12"	634.707682731	632.029338572	1.5	0.1
0.01	1	0.12095601599998	1	63	NA	120.681595788	0	0.28	2.4	1	118.26312999	118.384086006	"12"	634.707682731	632.029338572	1.5	0.1
0.01	1	0.00388744200000701	1	63	NA	120.681595788	0	0.28	2.4	1	118.613671943	118.617559385	"12"	634.707682731	632.029338572	1.5	0.1
0.01	1	0.0476964680000265	1	63	NA	120.681595788	0	0.28	2.4	1	118.84744002	118.895136488	"12"	634.707682731	632.029338572	1.5	0.1
0.01	1	0.00386049499996943	1	63	NA	120.681595788	0	0.28	2.4	1	119.1312319	119.135092395	"12"	634.707682731	632.029338572	1.5	0.1
0.01	1	0.0427322620000155	1	63	NA	120.681595788	0	0.28	2.4	1	119.364972748	119.40770501	"12"	634.707682731	632.029338572	1.5	0.1
0.01	1	0.00398762799994756	1	63	NA	120.681595788	0	0.28	2.4	1	119.632054535	119.636042163	"12"	634.707682731	632.029338572	1.5	0.1
0.01	1	0.022418866999999	1	63	NA	120.681595788	0	0.28	2.4	1	119.865872779	119.888291646	"12"	634.707682731	632.029338572	1.5	0.1
0.01	1	0.563699609999958	2	63	NA	120.681595788	0	0.28	2.4	1	120.116332113	120.680031723	"12"	634.707682731	632.029338572	1.5	0.1
0.01	1	0.735089198000026	1	54	NA	131.75428126	0	0.26	2.66	1	122.737291789	123.472380987	"13"	634.707682731	632.029338572	1.5	0.1
0.01	1	0.0310731480000186	1	54	NA	131.75428126	0	0.26	2.66	1	123.705673743	123.736746891	"13"	634.707682731	632.029338572	1.5	0.1
0.01	1	0.0677830029999882	1	54	NA	131.75428126	0	0.26	2.66	1	123.972783549	124.040566552	"13"	634.707682731	632.029338572	1.5	0.1
0.01	1	0.00211455099997693	1	54	NA	131.75428126	0	0.26	2.66	1	124.2731556	124.275270151	"13"	634.707682731	632.029338572	1.5	0.1
0.01	1	0.00404002499999478	1	54	NA	131.75428126	0	0.26	2.66	1	124.50698384	124.511023865	"13"	634.707682731	632.029338572	1.5	0.1
0.01	1	0.210800043999996	1	54	NA	131.75428126	0	0.26	2.66	1	124.740681848	124.951481892	"13"	634.707682731	632.029338572	1.5	0.1
0.01	1	0.0029741710000053	1	54	NA	131.75428126	0	0.26	2.66	1	125.174730641	125.177704812	"13"	634.707682731	632.029338572	1.5	0.1
0.01	1	0.0728527780000263	1	54	NA	131.75428126	0	0.26	2.66	1	125.408478353	125.481331131	"13"	634.707682731	632.029338572	1.5	0.1
0.01	1	0.146817190999968	1	54	NA	131.75428126	0	0.26	2.66	1	125.708981365	125.855798556	"13"	634.707682731	632.029338572	1.5	0.1
0.01	1	0.13885252	1	54	NA	131.75428126	0	0.26	2.66	1	126.093000733	126.231853253	"13"	634.707682731	632.029338572	1.5	0.1
0.01	1	0.00222939000002498	1	54	NA	131.75428126	0	0.26	2.66	1	126.460233025	126.462462415	"13"	634.707682731	632.029338572	1.5	0.1
0.01	1	0.122120309999957	1	54	NA	131.75428126	0	0.26	2.66	1	126.69402564	126.81614595	"13"	634.707682731	632.029338572	1.5	0.1
0.01	1	0.00436684300001389	1	54	NA	131.75428126	0	0.26	2.66	1	127.044644695	127.049011538	"13"	634.707682731	632.029338572	1.5	0.1
0.01	1	0.00464755500001957	1	54	NA	131.75428126	0	0.26	2.66	1	127.278306148	127.282953703	"13"	634.707682731	632.029338572	1.5	0.1
0.01	1	0.0391622249999841	1	54	NA	131.75428126	0	0.26	2.66	1	127.512043083	127.551205308	"13"	634.707682731	632.029338572	1.5	0.1
0.01	1	0.0443248579999818	1	54	NA	131.75428126	0	0.26	2.66	1	127.779131093	127.823455951	"13"	634.707682731	632.029338572	1.5	0.1
0.01	1	0.00228178499997966	1	54	NA	131.75428126	0	0.26	2.66	1	128.046314763	128.048596548	"13"	634.707682731	632.029338572	1.5	0.1
0.01	1	0.00210054699999773	1	54	NA	131.75428126	0	0.26	2.66	1	128.280020268	128.282120815	"13"	634.707682731	632.029338572	1.5	0.1
0.01	1	0.00464192999999113	1	54	NA	131.75428126	0	0.26	2.66	1	128.513786738	128.518428668	"13"	634.707682731	632.029338572	1.5	0.1
0.01	1	0.108054079999988	1	54	NA	131.75428126	0	0.26	2.66	1	128.74746379	128.85551787	"13"	634.707682731	632.029338572	1.5	0.1
0.01	1	0.00382933899999216	1	54	NA	131.75428126	0	0.26	2.66	1	129.081272598	129.085101937	"13"	634.707682731	632.029338572	1.5	0.1
0.01	1	0.00388712500000565	1	54	NA	131.75428126	0	0.26	2.66	1	129.314999658	129.318886783	"13"	634.707682731	632.029338572	1.5	0.1
0.01	1	0.610553698999979	1	54	NA	131.75428126	0	0.26	2.66	1	129.54883966	130.159393359	"13"	634.707682731	632.029338572	1.5	0.1
0.01	1	0.0810551480000186	1	54	NA	131.75428126	0	0.26	2.66	1	130.400195783	130.481250931	"13"	634.707682731	632.029338572	1.5	0.1
0.01	1	0.00216718799998716	1	54	NA	131.75428126	0	0.26	2.66	1	130.71751213	130.719679318	"13"	634.707682731	632.029338572	1.5	0.1
0.01	1	0.00398122000001422	1	54	NA	131.75428126	0	0.26	2.66	1	130.951188643	130.955169863	"13"	634.707682731	632.029338572	1.5	0.1
0.01	1	0.56792765199998	2	54	NA	131.75428126	0	0.26	2.66	1	131.184803558	131.75273121	"13"	634.707682731	632.029338572	1.5	0.1
0.01	1	0.0828531269999644	1	103	NA	150.914394308	0	0.54	3.2	1	133.805956713	133.88880984	"14"	634.707682731	632.029338572	1.5	0.1
0.01	1	0.0535971099999983	1	103	NA	150.914394308	0	0.54	3.2	1	134.123172925	134.176770035	"14"	634.707682731	632.029338572	1.5	0.1
0.01	1	0.011463378999963	1	103	NA	150.914394308	0	0.54	3.2	1	134.407058528	134.418521907	"14"	634.707682731	632.029338572	1.5	0.1
0.01	1	0.0308535820000202	1	103	NA	150.914394308	0	0.54	3.2	1	134.640638896	134.671492478	"14"	634.707682731	632.029338572	1.5	0.1
0.01	1	0.00222286799998983	1	103	NA	150.914394308	0	0.54	3.2	1	134.907893513	134.910116381	"14"	634.707682731	632.029338572	1.5	0.1
0.01	1	0.00472765699998945	1	103	NA	150.914394308	0	0.54	3.2	1	135.141550753	135.14627841	"14"	634.707682731	632.029338572	1.5	0.1
0.01	1	0.00446485100002292	1	103	NA	150.914394308	0	0.54	3.2	1	135.375200362	135.379665213	"14"	634.707682731	632.029338572	1.5	0.1
0.01	1	0.086571020000008	1	103	NA	150.914394308	0	0.54	3.2	1	135.609045338	135.695616358	"14"	634.707682731	632.029338572	1.5	0.1
0.01	1	0.0340169959999912	1	103	NA	150.914394308	0	0.54	3.2	1	135.926242333	135.960259329	"14"	634.707682731	632.029338572	1.5	0.1
0.01	1	0.071686633000013	1	103	NA	150.914394308	0	0.54	3.2	1	136.193388993	136.265075626	"14"	634.707682731	632.029338572	1.5	0.1
0.01	1	0.0581008999999995	1	103	NA	150.914394308	0	0.54	3.2	1	136.49377915	136.55188005	"14"	634.707682731	632.029338572	1.5	0.1
0.01	1	0.0538475749999634	1	103	NA	150.914394308	0	0.54	3.2	1	136.777703373	136.831550948	"14"	634.707682731	632.029338572	1.5	0.1
0.01	1	0.034923727999967	1	103	NA	150.914394308	0	0.54	3.2	1	137.061458743	137.096382471	"14"	634.707682731	632.029338572	1.5	0.1
0.01	1	0.00211205599998721	1	103	NA	150.914394308	0	0.54	3.2	1	137.328575567	137.330687623	"14"	634.707682731	632.029338572	1.5	0.1
0.01	1	0.00211395500002709	1	103	NA	150.914394308	0	0.54	3.2	1	137.562233937	137.564347892	"14"	634.707682731	632.029338572	1.5	0.1
0.01	1	0.00388173499999311	1	103	NA	150.914394308	0	0.54	3.2	1	137.79607633	137.799958065	"14"	634.707682731	632.029338572	1.5	0.1
0.01	1	0.00468721699996877	1	103	NA	150.914394308	0	0.54	3.2	1	138.029667383	138.0343546	"14"	634.707682731	632.029338572	1.5	0.1
0.01	1	0.00395819799996389	1	103	NA	150.914394308	0	0.54	3.2	1	138.263475713	138.267433911	"14"	634.707682731	632.029338572	1.5	0.1
0.01	1	0.00394426200000453	1	103	NA	150.914394308	0	0.54	3.2	1	138.497225155	138.501169417	"14"	634.707682731	632.029338572	1.5	0.1
0.01	1	0.124940604000017	1	103	NA	150.914394308	0	0.54	3.2	1	138.730867858	138.855808462	"14"	634.707682731	632.029338572	1.5	0.1
0.01	1	0.00791854799996372	1	103	NA	150.914394308	0	0.54	3.2	1	139.081556621	139.089475169	"14"	634.707682731	632.029338572	1.5	0.1
0.01	1	0.0376359530000059	1	103	NA	150.914394308	0	0.54	3.2	1	139.315233218	139.352869171	"14"	634.707682731	632.029338572	1.5	0.1
0.01	1	0.00392707600002495	1	103	NA	150.914394308	0	0.54	3.2	1	139.582325355	139.586252431	"14"	634.707682731	632.029338572	1.5	0.1
0.01	1	0.00209172099999932	1	103	NA	150.914394308	0	0.54	3.2	1	139.816122759	139.81821448	"14"	634.707682731	632.029338572	1.5	0.1
0.01	1	0.0233322870000165	1	103	NA	150.914394308	0	0.54	3.2	1	140.049838952	140.073171239	"14"	634.707682731	632.029338572	1.5	0.1
0.01	1	0.156271093999976	1	103	NA	150.914394308	0	0.54	3.2	1	140.300285373	140.456556467	"14"	634.707682731	632.029338572	1.5	0.1
0.01	1	0.10821056900005	1	103	NA	150.914394308	0	0.54	3.2	1	140.684256768	140.792467337	"14"	634.707682731	632.029338572	1.5	0.1
0.01	1	0.0537794460000214	1	103	NA	150.914394308	0	0.54	3.2	1	141.018170733	141.071950179	"14"	634.707682731	632.029338572	1.5	0.1
0.01	1	0.00977998999996998	1	103	NA	150.914394308	0	0.54	3.2	1	141.301972988	141.311752978	"14"	634.707682731	632.029338572	1.5	0.1
0.01	1	0.0159380970000029	1	103	NA	150.914394308	0	0.54	3.2	1	141.535845298	141.551783395	"14"	634.707682731	632.029338572	1.5	0.1
0.01	1	0.053138191999949	1	103	NA	150.914394308	0	0.54	3.2	1	141.786056083	141.839194275	"14"	634.707682731	632.029338572	1.5	0.1
0.01	1	0.0588392189999922	1	103	NA	150.914394308	0	0.54	3.2	1	142.069797078	142.128636297	"14"	634.707682731	632.029338572	1.5	0.1
0.01	1	0.125720364000017	1	103	NA	150.914394308	0	0.54	3.2	1	142.353733655	142.479454019	"14"	634.707682731	632.029338572	1.5	0.1
0.01	1	0.128105955000024	1	103	NA	150.914394308	0	0.54	3.2	1	142.704230599	142.832336554	"14"	634.707682731	632.029338572	1.5	0.1
0.01	1	0.104575633000024	1	103	NA	150.914394308	0	0.54	3.2	1	143.054813903	143.159389536	"14"	634.707682731	632.029338572	1.5	0.1
0.01	1	0.12244632200003	1	103	NA	150.914394308	0	0.54	3.2	1	143.388812258	143.51125858	"14"	634.707682731	632.029338572	1.5	0.1
0.01	1	0.0923268480000274	1	103	NA	150.914394308	0	0.54	3.2	1	143.739338043	143.831664891	"14"	634.707682731	632.029338572	1.5	0.1
0.01	1	0.0954392390000294	1	103	NA	150.914394308	0	0.54	3.2	1	144.056682758	144.152121997	"14"	634.707682731	632.029338572	1.5	0.1
0.01	1	0.0812391789999651	1	103	NA	150.914394308	0	0.54	3.2	1	144.390443313	144.471682492	"14"	634.707682731	632.029338572	1.5	0.1
0.01	1	0.0295942349999905	1	103	NA	150.914394308	0	0.54	3.2	1	144.707634983	144.737229218	"14"	634.707682731	632.029338572	1.5	0.1
0.01	1	0.0425385969999752	1	103	NA	150.914394308	0	0.54	3.2	1	144.974725988	145.017264585	"14"	634.707682731	632.029338572	1.5	0.1
0.01	1	0.0222530769999594	1	103	NA	150.914394308	0	0.54	3.2	1	145.241774368	145.264027445	"14"	634.707682731	632.029338572	1.5	0.1
0.01	1	0.0022277909999957	1	103	NA	150.914394308	0	0.54	3.2	1	145.492301688	145.494529479	"14"	634.707682731	632.029338572	1.5	0.1
0.01	1	0.0668817670000408	1	103	NA	150.914394308	0	0.54	3.2	1	145.726061145	145.792942912	"14"	634.707682731	632.029338572	1.5	0.1
0.01	1	0.0460250749999886	1	103	NA	150.914394308	0	0.54	3.2	1	146.026577413	146.072602488	"14"	634.707682731	632.029338572	1.5	0.1
0.01	1	0.273600722999959	1	103	NA	150.914394308	0	0.54	3.2	1	146.310418373	146.584019096	"14"	634.707682731	632.029338572	1.5	0.1
0.01	1	0.123967838999988	1	103	NA	150.914394308	0	0.54	3.2	1	146.811133933	146.935101772	"14"	634.707682731	632.029338572	1.5	0.1
0.01	1	0.837490213000024	1	103	NA	150.914394308	0	0.54	3.2	1	147.161717252	147.999207465	"14"	634.707682731	632.029338572	1.5	0.1
0.01	1	0.345554752999988	1	103	NA	150.914394308	0	0.54	3.2	1	148.230201558	148.575756311	"14"	634.707682731	632.029338572	1.5	0.1
0.01	1	0.234203320999995	1	103	NA	150.914394308	0	0.54	3.2	1	148.79782251	149.032025831	"14"	634.707682731	632.029338572	1.5	0.1
0.01	1	0.0231112040000312	1	103	NA	150.914394308	0	0.54	3.2	1	149.26522955	149.288340754	"14"	634.707682731	632.029338572	1.5	0.1
0.01	1	0.00395153799996706	1	103	NA	150.914394308	0	0.54	3.2	1	149.515713823	149.519665361	"14"	634.707682731	632.029338572	1.5	0.1
0.01	1	0.0022536710000054	1	103	NA	150.914394308	0	0.54	3.2	1	149.749502175	149.751755846	"14"	634.707682731	632.029338572	1.5	0.1
0.01	1	0.00217941100004282	1	103	NA	150.914394308	0	0.54	3.2	1	149.98321563	149.985395041	"14"	634.707682731	632.029338572	1.5	0.1
0.01	1	0.695897661000004	2	103	NA	150.914394308	0	0.54	3.2	1	150.21691769	150.912815351	"14"	634.707682731	632.029338572	1.5	0.1
0.01	1	0.852843558000018	1	120	NA	162.785618921	0	0.28	3.48	1	152.954805675	153.807649233	"15"	634.707682731	632.029338572	1.5	0.1
0.01	1	0.00450050700004567	1	120	NA	162.785618921	0	0.28	3.48	1	154.039992056	154.044492563	"15"	634.707682731	632.029338572	1.5	0.1
0.01	1	0.00352288800002043	1	120	NA	162.785618921	0	0.28	3.48	1	154.273682325	154.277205213	"15"	634.707682731	632.029338572	1.5	0.1
0.01	1	0.051896026999998	1	120	NA	162.785618921	0	0.28	3.48	1	154.507520288	154.559416315	"15"	634.707682731	632.029338572	1.5	0.1
0.01	1	0.0568542369999818	1	120	NA	162.785618921	0	0.28	3.48	1	154.791219683	154.84807392	"15"	634.707682731	632.029338572	1.5	0.1
0.01	1	0.00477414499999895	1	120	NA	162.785618921	0	0.28	3.48	1	155.075074913	155.079849058	"15"	634.707682731	632.029338572	1.5	0.1
0.01	1	0.00474964199997885	1	120	NA	162.785618921	0	0.28	3.48	1	155.308777238	155.31352688	"15"	634.707682731	632.029338572	1.5	0.1
0.01	1	0.0505996059999916	1	120	NA	162.785618921	0	0.28	3.48	1	155.542521353	155.593120959	"15"	634.707682731	632.029338572	1.5	0.1
0.01	1	0.0700551489999839	1	120	NA	162.785618921	0	0.28	3.48	1	155.826376113	155.896431262	"15"	634.707682731	632.029338572	1.5	0.1
0.01	1	0.0648901879999926	1	120	NA	162.785618921	0	0.28	3.48	1	156.126884233	156.191774421	"15"	634.707682731	632.029338572	1.5	0.1
0.01	1	0.0528747660000022	1	120	NA	162.785618921	0	0.28	3.48	1	156.427324678	156.480199444	"15"	634.707682731	632.029338572	1.5	0.1
0.01	1	0.153301390000024	1	120	NA	162.785618921	0	0.28	3.48	1	156.71115221	156.8644536	"15"	634.707682731	632.029338572	1.5	0.1
0.01	1	0.0961736400000177	1	120	NA	162.785618921	0	0.28	3.48	1	157.095172678	157.191346318	"15"	634.707682731	632.029338572	1.5	0.1
0.01	1	0.0275758249999853	1	120	NA	162.785618921	0	0.28	3.48	1	157.429085523	157.456661348	"15"	634.707682731	632.029338572	1.5	0.1
0.01	1	0.00249119199997949	1	120	NA	162.785618921	0	0.28	3.48	1	157.679358385	157.681849577	"15"	634.707682731	632.029338572	1.5	0.1
0.01	1	0.00401708799995504	1	120	NA	162.785618921	0	0.28	3.48	1	157.913223823	157.917240911	"15"	634.707682731	632.029338572	1.5	0.1
0.01	1	0.0684739700000137	1	120	NA	162.785618921	0	0.28	3.48	1	158.146924338	158.215398308	"15"	634.707682731	632.029338572	1.5	0.1
0.01	1	0.003985675000024	1	120	NA	162.785618921	0	0.28	3.48	1	158.447560868	158.451546543	"15"	634.707682731	632.029338572	1.5	0.1
0.01	1	0.00229667700000391	1	120	NA	162.785618921	0	0.28	3.48	1	158.681122817	158.683419494	"15"	634.707682731	632.029338572	1.5	0.1
0.01	1	0.772812859999988	1	120	NA	162.785618921	0	0.28	3.48	1	158.914847218	159.687660078	"15"	634.707682731	632.029338572	1.5	0.1
0.01	1	0.00218196899999157	1	120	NA	162.785618921	0	0.28	3.48	1	159.916600529	159.918782498	"15"	634.707682731	632.029338572	1.5	0.1
0.01	1	0.0731623419999892	1	120	NA	162.785618921	0	0.28	3.48	1	160.150288843	160.223451185	"15"	634.707682731	632.029338572	1.5	0.1
0.01	1	0.00393470500000603	1	120	NA	162.785618921	0	0.28	3.48	1	160.450805198	160.454739903	"15"	634.707682731	632.029338572	1.5	0.1
0.01	1	0.0438960070000007	1	120	NA	162.785618921	0	0.28	3.48	1	160.68449353	160.728389537	"15"	634.707682731	632.029338572	1.5	0.1
0.01	1	0.511704657999985	1	120	NA	162.785618921	0	0.28	3.48	1	160.951541208	161.463245866	"15"	634.707682731	632.029338572	1.5	0.1
0.01	1	0.0574667920000138	1	120	NA	162.785618921	0	0.28	3.48	1	161.686191158	161.74365795	"15"	634.707682731	632.029338572	1.5	0.1
0.01	1	0.0536223519999908	1	120	NA	162.785618921	0	0.28	3.48	1	161.969944648	162.023567	"15"	634.707682731	632.029338572	1.5	0.1
0.01	1	0.00435819799997716	1	120	NA	162.785618921	0	0.28	3.48	1	162.253757615	162.258115813	"15"	634.707682731	632.029338572	1.5	0.1
0.01	1	0.296348566999995	2	120	NA	162.785618921	0	0.28	3.48	1	162.487656048	162.784004615	"15"	634.707682731	632.029338572	1.5	0.1
0.01	1	0.839036523000004	1	109	NA	186.24153717	0	0.65	4.13	1	164.841561858	165.680598381	"16"	634.707682731	632.029338572	1.5	0.1
0.01	1	0.0989531800000236	1	109	NA	186.24153717	0	0.65	4.13	1	165.909964921	166.008918101	"16"	634.707682731	632.029338572	1.5	0.1
0.01	1	0.00211080799999763	1	109	NA	186.24153717	0	0.65	4.13	1	166.243910131	166.246020939	"16"	634.707682731	632.029338572	1.5	0.1
0.01	1	0.25019222200001	1	109	NA	186.24153717	0	0.65	4.13	1	166.477496625	166.727688847	"16"	634.707682731	632.029338572	1.5	0.1
0.01	1	0.0382821260000128	1	109	NA	186.24153717	0	0.65	4.13	1	166.961739509	167.000021635	"16"	634.707682731	632.029338572	1.5	0.1
0.01	1	0.0670306410000308	1	109	NA	186.24153717	0	0.65	4.13	1	167.228777468	167.295808109	"16"	634.707682731	632.029338572	1.5	0.1
0.01	1	0.0627442179999775	1	109	NA	186.24153717	0	0.65	4.13	1	167.529342403	167.592086621	"16"	634.707682731	632.029338572	1.5	0.1
0.01	1	0.0279527479999615	1	109	NA	186.24153717	0	0.65	4.13	1	167.813093536	167.841046284	"16"	634.707682731	632.029338572	1.5	0.1
0.01	1	0.00352656400002616	1	109	NA	186.24153717	0	0.65	4.13	1	168.063527509	168.067054073	"16"	634.707682731	632.029338572	1.5	0.1
0.01	1	0.00235517400000163	1	109	NA	186.24153717	0	0.65	4.13	1	168.29729668	168.299651854	"16"	634.707682731	632.029338572	1.5	0.1
0.01	1	0.00226176000001033	1	109	NA	186.24153717	0	0.65	4.13	1	168.530942521	168.533204281	"16"	634.707682731	632.029338572	1.5	0.1
0.01	1	0.00215399899997237	1	109	NA	186.24153717	0	0.65	4.13	1	168.764639482	168.766793481	"16"	634.707682731	632.029338572	1.5	0.1
0.01	1	0.00211858599999459	1	109	NA	186.24153717	0	0.65	4.13	1	168.998343848	169.000462434	"16"	634.707682731	632.029338572	1.5	0.1
0.01	1	0.00818125799997915	1	109	NA	186.24153717	0	0.65	4.13	1	169.232054253	169.240235511	"16"	634.707682731	632.029338572	1.5	0.1
0.01	1	0.037650890000009	1	109	NA	186.24153717	0	0.65	4.13	1	169.465924955	169.503575845	"16"	634.707682731	632.029338572	1.5	0.1
0.01	1	0.043823151999959	1	109	NA	186.24153717	0	0.65	4.13	1	169.732911209	169.776734361	"16"	634.707682731	632.029338572	1.5	0.1
0.01	1	0.0631136709999964	1	109	NA	186.24153717	0	0.65	4.13	1	170.000092891	170.063206562	"16"	634.707682731	632.029338572	1.5	0.1
0.01	1	0.100414748999981	1	109	NA	186.24153717	0	0.65	4.13	1	170.300530795	170.400945544	"16"	634.707682731	632.029338572	1.5	0.1
0.01	1	0.886137757000029	1	109	NA	186.24153717	0	0.65	4.13	1	170.634477331	171.520615088	"16"	634.707682731	632.029338572	1.5	0.1
0.01	1	0.542576940000004	1	109	NA	186.24153717	0	0.65	4.13	1	171.753158868	172.295735808	"16"	634.707682731	632.029338572	1.5	0.1
0.01	1	0.111715659000026	1	109	NA	186.24153717	0	0.65	4.13	1	172.521090488	172.632806147	"16"	634.707682731	632.029338572	1.5	0.1
0.01	1	0.0330031839999947	1	109	NA	186.24153717	0	0.65	4.13	1	172.871704728	172.904707912	"16"	634.707682731	632.029338572	1.5	0.1
0.01	1	0.00369315300002881	1	109	NA	186.24153717	0	0.65	4.13	1	173.138710438	173.142403591	"16"	634.707682731	632.029338572	1.5	0.1
0.01	1	0.0284778399999936	1	109	NA	186.24153717	0	0.65	4.13	1	173.372535395	173.401013235	"16"	634.707682731	632.029338572	1.5	0.1
0.01	1	0.00988330300003781	1	109	NA	186.24153717	0	0.65	4.13	1	173.639612078	173.649495381	"16"	634.707682731	632.029338572	1.5	0.1
0.01	1	0.0152932139999962	1	109	NA	186.24153717	0	0.65	4.13	1	173.873313138	173.888606352	"16"	634.707682731	632.029338572	1.5	0.1
0.01	1	0.0120301599999948	1	109	NA	186.24153717	0	0.65	4.13	1	174.12370415	174.13573431	"16"	634.707682731	632.029338572	1.5	0.1
0.01	1	0.0270682510000029	1	109	NA	186.24153717	0	0.65	4.13	1	174.374154875	174.401223126	"16"	634.707682731	632.029338572	1.5	0.1
0.01	1	0.0386024570000245	1	109	NA	186.24153717	0	0.65	4.13	1	174.624650055	174.663252512	"16"	634.707682731	632.029338572	1.5	0.1
0.01	1	0.0356685710000306	1	109	NA	186.24153717	0	0.65	4.13	1	174.891765402	174.927433973	"16"	634.707682731	632.029338572	1.5	0.1
0.01	1	0.0903721990000008	1	109	NA	186.24153717	0	0.65	4.13	1	175.158807823	175.249180022	"16"	634.707682731	632.029338572	1.5	0.1
0.01	1	0.0120290309999973	1	109	NA	186.24153717	0	0.65	4.13	1	175.476022448	175.488051479	"16"	634.707682731	632.029338572	1.5	0.1
0.01	1	0.00275391100001343	1	109	NA	186.24153717	0	0.65	4.13	1	175.726553729	175.72930764	"16"	634.707682731	632.029338572	1.5	0.1
0.01	1	0.00961727899999687	1	109	NA	186.24153717	0	0.65	4.13	1	175.960163753	175.969781032	"16"	634.707682731	632.029338572	1.5	0.1
0.01	1	0.0310927649999826	1	109	NA	186.24153717	0	0.65	4.13	1	176.193989897	176.225082662	"16"	634.707682731	632.029338572	1.5	0.1
0.01	1	0.00440986199998861	1	109	NA	186.24153717	0	0.65	4.13	1	176.461044813	176.465454675	"16"	634.707682731	632.029338572	1.5	0.1
0.01	1	0.0020714589999784	1	109	NA	186.24153717	0	0.65	4.13	1	176.694874864	176.696946323	"16"	634.707682731	632.029338572	1.5	0.1
0.01	1	0.00785121500001651	1	109	NA	186.24153717	0	0.65	4.13	1	176.928552708	176.936403923	"16"	634.707682731	632.029338572	1.5	0.1
0.01	1	0.00202376400000048	1	109	NA	186.24153717	0	0.65	4.13	1	177.162248147	177.164271911	"16"	634.707682731	632.029338572	1.5	0.1
0.01	1	0.107216903999984	1	109	NA	186.24153717	0	0.65	4.13	1	177.395973588	177.503190492	"16"	634.707682731	632.029338572	1.5	0.1
0.01	1	0.0954087930000469	1	109	NA	186.24153717	0	0.65	4.13	1	177.729816205	177.825224998	"16"	634.707682731	632.029338572	1.5	0.1
0.01	1	0.0491801549999877	1	109	NA	186.24153717	0	0.65	4.13	1	178.063713663	178.112893818	"16"	634.707682731	632.029338572	1.5	0.1
0.01	1	0.00471179499999153	1	109	NA	186.24153717	0	0.65	4.13	1	178.347627513	178.352339308	"16"	634.707682731	632.029338572	1.5	0.1
0.01	1	0.265832993999993	1	109	NA	186.24153717	0	0.65	4.13	1	178.581320163	178.847153157	"16"	634.707682731	632.029338572	1.5	0.1
0.01	1	0.00227149400001281	1	109	NA	186.24153717	0	0.65	4.13	1	179.08210138	179.084372874	"16"	634.707682731	632.029338572	1.5	0.1
0.01	1	0.00400108600001658	1	109	NA	186.24153717	0	0.65	4.13	1	179.315843785	179.319844871	"16"	634.707682731	632.029338572	1.5	0.1
0.01	1	0.130548740999984	1	109	NA	186.24153717	0	0.65	4.13	1	179.54948942	179.680038161	"16"	634.707682731	632.029338572	1.5	0.1
0.01	1	0.00209721900000659	1	109	NA	186.24153717	0	0.65	4.13	1	179.916851223	179.918948442	"16"	634.707682731	632.029338572	1.5	0.1
0.01	1	0.00394735699995863	1	109	NA	186.24153717	0	0.65	4.13	1	180.15056347	180.154510827	"16"	634.707682731	632.029338572	1.5	0.1
0.01	1	0.00407996300003788	1	109	NA	186.24153717	0	0.65	4.13	1	180.38443266	180.388512623	"16"	634.707682731	632.029338572	1.5	0.1
0.01	1	0.00381642799999327	1	109	NA	186.24153717	0	0.65	4.13	1	180.618048565	180.621864993	"16"	634.707682731	632.029338572	1.5	0.1
0.01	1	0.00399047199999814	1	109	NA	186.24153717	0	0.65	4.13	1	180.851768683	180.855759155	"16"	634.707682731	632.029338572	1.5	0.1
0.01	1	0.00398664700003337	1	109	NA	186.24153717	0	0.65	4.13	1	181.085519448	181.089506095	"16"	634.707682731	632.029338572	1.5	0.1
0.01	1	0.00217192000002342	1	109	NA	186.24153717	0	0.65	4.13	1	181.319206558	181.321378478	"16"	634.707682731	632.029338572	1.5	0.1
0.01	1	0.00236862899998869	1	109	NA	186.24153717	0	0.65	4.13	1	181.552914609	181.555283238	"16"	634.707682731	632.029338572	1.5	0.1
0.01	1	0.00205155599996942	1	109	NA	186.24153717	0	0.65	4.13	1	181.786719769	181.788771325	"16"	634.707682731	632.029338572	1.5	0.1
0.01	1	0.00205549499997915	1	109	NA	186.24153717	0	0.65	4.13	1	182.020473644	182.022529139	"16"	634.707682731	632.029338572	1.5	0.1
0.01	1	0.0178479589999938	1	109	NA	186.24153717	0	0.65	4.13	1	182.254129833	182.271977792	"16"	634.707682731	632.029338572	1.5	0.1
0.01	1	0.471454142000027	1	109	NA	186.24153717	0	0.65	4.13	1	182.504623108	182.97607725	"16"	634.707682731	632.029338572	1.5	0.1
0.01	1	0.346693657999992	1	109	NA	186.24153717	0	0.65	4.13	1	183.205750073	183.552443731	"16"	634.707682731	632.029338572	1.5	0.1
0.01	1	0.178061034999985	1	109	NA	186.24153717	0	0.65	4.13	1	183.790085665	183.9681467	"16"	634.707682731	632.029338572	1.5	0.1
0.01	1	0.512763860000007	1	109	NA	186.24153717	0	0.65	4.13	1	184.19066604	184.7034299	"16"	634.707682731	632.029338572	1.5	0.1
0.01	1	0.0652692079999611	1	109	NA	186.24153717	0	0.65	4.13	1	184.94194538	185.007214588	"16"	634.707682731	632.029338572	1.5	0.1
0.01	1	0.00208568599998671	1	109	NA	186.24153717	0	0.65	4.13	1	185.242445885	185.244531571	"16"	634.707682731	632.029338572	1.5	0.1
0.01	1	0.0037331179999569	1	109	NA	186.24153717	0	0.65	4.13	1	185.476232723	185.479965841	"16"	634.707682731	632.029338572	1.5	0.1
0.01	1	0.530024797999999	2	109	NA	186.24153717	0	0.65	4.13	1	185.709942163	186.239966961	"16"	634.707682731	632.029338572	1.5	0.1
0.01	1	0.0704280850000032	1	71	NA	198.209077443	0	0.37	4.5	1	188.297596158	188.368024243	"17"	634.707682731	632.029338572	1.5	0.1
0.01	1	0.00213547900000322	1	71	NA	198.209077443	0	0.37	4.5	1	188.598092451	188.60022793	"17"	634.707682731	632.029338572	1.5	0.1
0.01	1	0.0875628340000389	1	71	NA	198.209077443	0	0.37	4.5	1	188.83178378	188.919346614	"17"	634.707682731	632.029338572	1.5	0.1
0.01	1	0.0347684120000054	1	71	NA	198.209077443	0	0.37	4.5	1	189.149051523	189.183819935	"17"	634.707682731	632.029338572	1.5	0.1
0.01	1	0.00400813199996719	1	71	NA	198.209077443	0	0.37	4.5	1	189.416136403	189.420144535	"17"	634.707682731	632.029338572	1.5	0.1
0.01	1	0.10133087600002	1	71	NA	198.209077443	0	0.37	4.5	1	189.649929393	189.751260269	"17"	634.707682731	632.029338572	1.5	0.1
0.01	1	0.00210267099998873	1	71	NA	198.209077443	0	0.37	4.5	1	189.983860947	189.985963618	"17"	634.707682731	632.029338572	1.5	0.1
0.01	1	0.00376736500004426	1	71	NA	198.209077443	0	0.37	4.5	1	190.217578698	190.221346063	"17"	634.707682731	632.029338572	1.5	0.1
0.01	1	0.0929472270000247	1	71	NA	198.209077443	0	0.37	4.5	1	190.451221405	190.544168632	"17"	634.707682731	632.029338572	1.5	0.1
0.01	1	0.00461139000003641	1	71	NA	198.209077443	0	0.37	4.5	1	190.768452828	190.773064218	"17"	634.707682731	632.029338572	1.5	0.1
0.01	1	0.00467833999999812	1	71	NA	198.209077443	0	0.37	4.5	1	191.002156843	191.006835183	"17"	634.707682731	632.029338572	1.5	0.1
0.01	1	0.0040834010000026	1	71	NA	198.209077443	0	0.37	4.5	1	191.235912838	191.239996239	"17"	634.707682731	632.029338572	1.5	0.1
0.01	1	0.0912647659999948	1	71	NA	198.209077443	0	0.37	4.5	1	191.469556483	191.560821249	"17"	634.707682731	632.029338572	1.5	0.1
0.01	1	0.00202783200001022	1	71	NA	198.209077443	0	0.37	4.5	1	191.7868569	191.788884732	"17"	634.707682731	632.029338572	1.5	0.1
0.01	1	0.00393650299997717	1	71	NA	198.209077443	0	0.37	4.5	1	192.020489488	192.024425991	"17"	634.707682731	632.029338572	1.5	0.1
0.01	1	0.145397100999958	1	71	NA	198.209077443	0	0.37	4.5	1	192.254210322	192.399607423	"17"	634.707682731	632.029338572	1.5	0.1
0.01	1	0.00211444500001789	1	71	NA	198.209077443	0	0.37	4.5	1	192.621540302	192.623654747	"17"	634.707682731	632.029338572	1.5	0.1
0.01	1	0.00463683000003812	1	71	NA	198.209077443	0	0.37	4.5	1	192.855311258	192.859948088	"17"	634.707682731	632.029338572	1.5	0.1
0.01	1	0.00317370400000527	1	71	NA	198.209077443	0	0.37	4.5	1	193.088969511	193.092143215	"17"	634.707682731	632.029338572	1.5	0.1
0.01	1	0.108564170999955	1	71	NA	198.209077443	0	0.37	4.5	1	193.32282283	193.431387001	"17"	634.707682731	632.029338572	1.5	0.1
0.01	1	0.00245123700000249	1	71	NA	198.209077443	0	0.37	4.5	1	193.656589797	193.659041034	"17"	634.707682731	632.029338572	1.5	0.1
0.01	1	0.00268425699999852	1	71	NA	198.209077443	0	0.37	4.5	1	193.890321789	193.893006046	"17"	634.707682731	632.029338572	1.5	0.1
0.01	1	0.00219302600004312	1	71	NA	198.209077443	0	0.37	4.5	1	194.124078917	194.126271943	"17"	634.707682731	632.029338572	1.5	0.1
0.01	1	0.00464976000000661	1	71	NA	198.209077443	0	0.37	4.5	1	194.357854498	194.362504258	"17"	634.707682731	632.029338572	1.5	0.1
0.01	1	0.0020318349999684	1	71	NA	198.209077443	0	0.37	4.5	1	194.591494303	194.593526138	"17"	634.707682731	632.029338572	1.5	0.1
0.01	1	0.00204729500001122	1	71	NA	198.209077443	0	0.37	4.5	1	194.825322463	194.827369758	"17"	634.707682731	632.029338572	1.5	0.1
0.01	1	0.00210041599996202	1	71	NA	198.209077443	0	0.37	4.5	1	195.058986737	195.061087153	"17"	634.707682731	632.029338572	1.5	0.1
0.01	1	0.00221413799999937	1	71	NA	198.209077443	0	0.37	4.5	1	195.29260843	195.294822568	"17"	634.707682731	632.029338572	1.5	0.1
0.01	1	0.00407728400000451	1	71	NA	198.209077443	0	0.37	4.5	1	195.526382695	195.530459979	"17"	634.707682731	632.029338572	1.5	0.1
0.01	1	0.00965270999995482	1	71	NA	198.209077443	0	0.37	4.5	1	195.760222548	195.769875258	"17"	634.707682731	632.029338572	1.5	0.1
0.01	1	0.0454849039999772	1	71	NA	198.209077443	0	0.37	4.5	1	195.993913126	196.03939803	"17"	634.707682731	632.029338572	1.5	0.1
0.01	1	0.0270502440000087	1	71	NA	198.209077443	0	0.37	4.5	1	196.277759588	196.304809832	"17"	634.707682731	632.029338572	1.5	0.1
0.01	1	0.00230112299999519	1	71	NA	198.209077443	0	0.37	4.5	1	196.528117799	196.530418922	"17"	634.707682731	632.029338572	1.5	0.1
0.01	1	0.00426243800001203	1	71	NA	198.209077443	0	0.37	4.5	1	196.761900385	196.766162823	"17"	634.707682731	632.029338572	1.5	0.1
0.01	1	0.00698652100004438	1	71	NA	198.209077443	0	0.37	4.5	1	196.995686668	197.002673189	"17"	634.707682731	632.029338572	1.5	0.1
0.01	1	0.01235241400002	1	71	NA	198.209077443	0	0.37	4.5	1	197.229257608	197.241610022	"17"	634.707682731	632.029338572	1.5	0.1
0.01	1	0.00214903300002334	1	71	NA	198.209077443	0	0.37	4.5	1	197.46301303	197.465162063	"17"	634.707682731	632.029338572	1.5	0.1
0.01	1	0.510781796999993	2	71	NA	198.209077443	0	0.37	4.5	1	197.69674874	198.207530537	"17"	634.707682731	632.029338572	1.5	0.1
0.01	1	0.396956025999998	1	96	NA	212.168929045	0	0.37	4.87	1	200.267734583	200.664690609	"18"	634.707682731	632.029338572	1.5	0.1
0.01	1	0.233836502000031	1	96	NA	212.168929045	0	0.37	4.87	1	200.902082288	201.13591879	"18"	634.707682731	632.029338572	1.5	0.1
0.01	1	0.0379822379999837	1	96	NA	212.168929045	0	0.37	4.87	1	201.36966973	201.407651968	"18"	634.707682731	632.029338572	1.5	0.1
0.01	1	0.0113803099999927	1	96	NA	212.168929045	0	0.37	4.87	1	201.636786373	201.648166683	"18"	634.707682731	632.029338572	1.5	0.1
0.01	1	0.00314541599999529	1	96	NA	212.168929045	0	0.37	4.87	1	201.870618213	201.873763629	"18"	634.707682731	632.029338572	1.5	0.1
0.01	1	0.119423238000024	1	96	NA	212.168929045	0	0.37	4.87	1	202.10414424	202.223567478	"18"	634.707682731	632.029338572	1.5	0.1
0.01	1	0.00465758500001812	1	96	NA	212.168929045	0	0.37	4.87	1	202.454728748	202.459386333	"18"	634.707682731	632.029338572	1.5	0.1
0.01	1	0.00427458199999364	1	96	NA	212.168929045	0	0.37	4.87	1	202.688501083	202.692775665	"18"	634.707682731	632.029338572	1.5	0.1
0.01	1	0.0539477149999925	1	96	NA	212.168929045	0	0.37	4.87	1	202.92227857	202.976226285	"18"	634.707682731	632.029338572	1.5	0.1
0.01	1	0.0027385470000354	1	96	NA	212.168929045	0	0.37	4.87	1	203.205987901	203.208726448	"18"	634.707682731	632.029338572	1.5	0.1
0.01	1	0.00464152000000695	1	96	NA	212.168929045	0	0.37	4.87	1	203.439732018	203.444373538	"18"	634.707682731	632.029338572	1.5	0.1
0.01	1	0.0956940880000161	1	96	NA	212.168929045	0	0.37	4.87	1	203.673578568	203.769272656	"18"	634.707682731	632.029338572	1.5	0.1
0.01	1	0.00385960900001692	1	96	NA	212.168929045	0	0.37	4.87	1	204.007314978	204.011174587	"18"	634.707682731	632.029338572	1.5	0.1
0.01	1	0.134039190999999	1	96	NA	212.168929045	0	0.37	4.87	1	204.241109978	204.375149169	"18"	634.707682731	632.029338572	1.5	0.1
0.01	1	0.0233668550000061	1	96	NA	212.168929045	0	0.37	4.87	1	204.608378003	204.631744858	"18"	634.707682731	632.029338572	1.5	0.1
0.01	1	0.0535985939999932	1	96	NA	212.168929045	0	0.37	4.87	1	204.85876362	204.912362214	"18"	634.707682731	632.029338572	1.5	0.1
0.01	1	0.0978065840000113	1	96	NA	212.168929045	0	0.37	4.87	1	205.142572423	205.240379007	"18"	634.707682731	632.029338572	1.5	0.1
0.01	1	0.0437399180000284	1	96	NA	212.168929045	0	0.37	4.87	1	205.47655796	205.520297878	"18"	634.707682731	632.029338572	1.5	0.1
0.01	1	0.0331754859999478	1	96	NA	212.168929045	0	0.37	4.87	1	205.743660443	205.776835929	"18"	634.707682731	632.029338572	1.5	0.1
0.01	1	0.0538854849999666	1	96	NA	212.168929045	0	0.37	4.87	1	206.010740435	206.06462592	"18"	634.707682731	632.029338572	1.5	0.1
0.01	1	0.256784315999994	1	96	NA	212.168929045	0	0.37	4.87	1	206.294590548	206.551374864	"18"	634.707682731	632.029338572	1.5	0.1
0.01	1	0.109141850000015	1	96	NA	212.168929045	0	0.37	4.87	1	206.778716403	206.887858253	"18"	634.707682731	632.029338572	1.5	0.1
0.01	1	0.0867468010000039	1	96	NA	212.168929045	0	0.37	4.87	1	207.12929326	207.216040061	"18"	634.707682731	632.029338572	1.5	0.1
0.01	1	0.0659833509999999	1	96	NA	212.168929045	0	0.37	4.87	1	207.44649228	207.512475631	"18"	634.707682731	632.029338572	1.5	0.1
0.01	1	0.100842793000027	1	96	NA	212.168929045	0	0.37	4.87	1	207.747036948	207.847879741	"18"	634.707682731	632.029338572	1.5	0.1
0.01	1	0.0706221020000157	1	96	NA	212.168929045	0	0.37	4.87	1	208.08088801	208.151510112	"18"	634.707682731	632.029338572	1.5	0.1
0.01	1	0.099872352000034	1	96	NA	212.168929045	0	0.37	4.87	1	208.381344473	208.481216825	"18"	634.707682731	632.029338572	1.5	0.1
0.01	1	0.0854311749999965	1	96	NA	212.168929045	0	0.37	4.87	1	208.71529945	208.800730625	"18"	634.707682731	632.029338572	1.5	0.1
0.01	1	0.26365467100004	1	96	NA	212.168929045	0	0.37	4.87	1	209.032600783	209.296255454	"18"	634.707682731	632.029338572	1.5	0.1
0.01	1	0.0839084130000174	1	96	NA	212.168929045	0	0.37	4.87	1	209.533335848	209.617244261	"18"	634.707682731	632.029338572	1.5	0.1
0.01	1	0.00213358199999902	1	96	NA	212.168929045	0	0.37	4.87	1	209.850530499	209.852664081	"18"	634.707682731	632.029338572	1.5	0.1
0.01	1	0.0988330200000291	1	96	NA	212.168929045	0	0.37	4.87	1	210.08432448	210.1831575	"18"	634.707682731	632.029338572	1.5	0.1
0.01	1	0.00396603699999787	1	96	NA	212.168929045	0	0.37	4.87	1	210.41820432	210.422170357	"18"	634.707682731	632.029338572	1.5	0.1
0.01	1	0.0685852830000044	1	96	NA	212.168929045	0	0.37	4.87	1	210.651913273	210.720498556	"18"	634.707682731	632.029338572	1.5	0.1
0.01	1	0.00207537299996829	1	96	NA	212.168929045	0	0.37	4.87	1	210.952364977	210.95444035	"18"	634.707682731	632.029338572	1.5	0.1
0.01	1	0.0548912589999873	1	96	NA	212.168929045	0	0.37	4.87	1	211.186095563	211.240986822	"18"	634.707682731	632.029338572	1.5	0.1
0.01	1	0.0347653949999653	1	96	NA	212.168929045	0	0.37	4.87	1	211.470078053	211.504843448	"18"	634.707682731	632.029338572	1.5	0.1
0.01	1	0.430175798999983	2	96	NA	212.168929045	0	0.37	4.87	1	211.737206798	212.167382597	"18"	634.707682731	632.029338572	1.5	0.1
0.01	1	0.0800242610000055	1	91	NA	234.073224132	0	0.7	5.57	1	214.224528452	214.304552713	"19"	634.707682731	632.029338572	1.5	0.1
0.01	1	0.0738333610000268	1	91	NA	234.073224132	0	0.7	5.57	1	214.5417818	214.615615161	"19"	634.707682731	632.029338572	1.5	0.1
0.01	1	0.070086042000014	1	91	NA	234.073224132	0	0.7	5.57	1	214.842332608	214.91241865	"19"	634.707682731	632.029338572	1.5	0.1
0.01	1	0.0570458699999676	1	91	NA	234.073224132	0	0.7	5.57	1	215.142828313	215.199874183	"19"	634.707682731	632.029338572	1.5	0.1
0.01	1	0.028478328999995	1	91	NA	234.073224132	0	0.7	5.57	1	215.426674046	215.455152375	"19"	634.707682731	632.029338572	1.5	0.1
0.01	1	0.00470664000005172	1	91	NA	234.073224132	0	0.7	5.57	1	215.693773393	215.698480033	"19"	634.707682731	632.029338572	1.5	0.1
0.01	1	0.00399647100005041	1	91	NA	234.073224132	0	0.7	5.57	1	215.927490378	215.931486849	"19"	634.707682731	632.029338572	1.5	0.1
0.01	1	0.198256275000006	1	91	NA	234.073224132	0	0.7	5.57	1	216.161212038	216.359468313	"19"	634.707682731	632.029338572	1.5	0.1
0.01	1	0.0933897479999928	1	91	NA	234.073224132	0	0.7	5.57	1	216.595214183	216.688603931	"19"	634.707682731	632.029338572	1.5	0.1
0.01	1	0.112720209000031	1	91	NA	234.073224132	0	0.7	5.57	1	216.91236657	217.025086779	"19"	634.707682731	632.029338572	1.5	0.1
0.01	1	0.0902214329999538	1	91	NA	234.073224132	0	0.7	5.57	1	217.26298263	217.353204063	"19"	634.707682731	632.029338572	1.5	0.1
0.01	1	0.132765018999976	1	91	NA	234.073224132	0	0.7	5.57	1	217.580225558	217.712990577	"19"	634.707682731	632.029338572	1.5	0.1
0.01	1	0.00385142699997232	1	91	NA	234.073224132	0	0.7	5.57	1	217.947462568	217.951313995	"19"	634.707682731	632.029338572	1.5	0.1
0.01	1	0.0820599759999823	1	91	NA	234.073224132	0	0.7	5.57	1	218.181251128	218.263311104	"19"	634.707682731	632.029338572	1.5	0.1
0.01	1	0.00211340100003099	1	91	NA	234.073224132	0	0.7	5.57	1	218.498376708	218.500490109	"19"	634.707682731	632.029338572	1.5	0.1
0.01	1	0.00401541299999053	1	91	NA	234.073224132	0	0.7	5.57	1	218.73205169	218.736067103	"19"	634.707682731	632.029338572	1.5	0.1
0.01	1	0.0815527700000303	1	91	NA	234.073224132	0	0.7	5.57	1	218.965848933	219.047401703	"19"	634.707682731	632.029338572	1.5	0.1
0.01	1	0.00226655199998049	1	91	NA	234.073224132	0	0.7	5.57	1	219.283101725	219.285368277	"19"	634.707682731	632.029338572	1.5	0.1
0.01	1	0.0594427000000337	1	91	NA	234.073224132	0	0.7	5.57	1	219.516791962	219.576234662	"19"	634.707682731	632.029338572	1.5	0.1
0.01	1	0.00992391800002679	1	91	NA	234.073224132	0	0.7	5.57	1	219.800632483	219.810556401	"19"	634.707682731	632.029338572	1.5	0.1
0.01	1	0.108757045000004	1	91	NA	234.073224132	0	0.7	5.57	1	220.03438714	220.143144185	"19"	634.707682731	632.029338572	1.5	0.1
0.01	1	0.00401683800004093	1	91	NA	234.073224132	0	0.7	5.57	1	220.368232733	220.372249571	"19"	634.707682731	632.029338572	1.5	0.1
0.01	1	0.278033709999988	1	91	NA	234.073224132	0	0.7	5.57	1	220.601928448	220.879962158	"19"	634.707682731	632.029338572	1.5	0.1
0.01	1	0.00207043900002191	1	91	NA	234.073224132	0	0.7	5.57	1	221.119546051	221.12161649	"19"	634.707682731	632.029338572	1.5	0.1
0.01	1	0.00204488800000036	1	91	NA	234.073224132	0	0.7	5.57	1	221.353290676	221.355335564	"19"	634.707682731	632.029338572	1.5	0.1
0.01	1	0.0858897979999824	1	91	NA	234.073224132	0	0.7	5.57	1	221.586915825	221.672805623	"19"	634.707682731	632.029338572	1.5	0.1
0.01	1	0.00469053000000486	1	91	NA	234.073224132	0	0.7	5.57	1	221.904329813	221.909020343	"19"	634.707682731	632.029338572	1.5	0.1
0.01	1	0.119019081000033	1	91	NA	234.073224132	0	0.7	5.57	1	222.13792919	222.256948271	"19"	634.707682731	632.029338572	1.5	0.1
0.01	1	0.00210196700004417	1	91	NA	234.073224132	0	0.7	5.57	1	222.488479572	222.490581539	"19"	634.707682731	632.029338572	1.5	0.1
0.01	1	0.11850152400001	1	91	NA	234.073224132	0	0.7	5.57	1	222.722174095	222.840675619	"19"	634.707682731	632.029338572	1.5	0.1
0.01	1	0.0020536939999829	1	91	NA	234.073224132	0	0.7	5.57	1	223.072823343	223.074877037	"19"	634.707682731	632.029338572	1.5	0.1
0.01	1	0.0925801699999624	1	91	NA	234.073224132	0	0.7	5.57	1	223.306557828	223.399137998	"19"	634.707682731	632.029338572	1.5	0.1
0.01	1	0.00269079600002442	1	91	NA	234.073224132	0	0.7	5.57	1	223.623632587	223.626323383	"19"	634.707682731	632.029338572	1.5	0.1
0.01	1	0.00462411699999166	1	91	NA	234.073224132	0	0.7	5.57	1	223.857434813	223.86205893	"19"	634.707682731	632.029338572	1.5	0.1
0.01	1	0.002071366999985	1	91	NA	234.073224132	0	0.7	5.57	1	224.091264469	224.093335836	"19"	634.707682731	632.029338572	1.5	0.1
0.01	1	0.00465678999995589	1	91	NA	234.073224132	0	0.7	5.57	1	224.324885413	224.329542203	"19"	634.707682731	632.029338572	1.5	0.1
0.01	1	0.00403316699998868	1	91	NA	234.073224132	0	0.7	5.57	1	224.55862228	224.562655447	"19"	634.707682731	632.029338572	1.5	0.1
0.01	1	0.0968728349999992	1	91	NA	234.073224132	0	0.7	5.57	1	224.79233121	224.889204045	"19"	634.707682731	632.029338572	1.5	0.1
0.01	1	0.113241720000019	1	91	NA	234.073224132	0	0.7	5.57	1	225.126239228	225.239480948	"19"	634.707682731	632.029338572	1.5	0.1
0.01	1	0.115773734000015	1	91	NA	234.073224132	0	0.7	5.57	1	225.476769465	225.592543199	"19"	634.707682731	632.029338572	1.5	0.1
0.01	1	0.00381129900000587	1	91	NA	234.073224132	0	0.7	5.57	1	225.827453228	225.831264527	"19"	634.707682731	632.029338572	1.5	0.1
0.01	1	0.099112802000036	1	91	NA	234.073224132	0	0.7	5.57	1	226.061212763	226.160325565	"19"	634.707682731	632.029338572	1.5	0.1
0.01	1	0.00697914400001309	1	91	NA	234.073224132	0	0.7	5.57	1	226.395100633	226.402079777	"19"	634.707682731	632.029338572	1.5	0.1
0.01	1	0.00223230900002136	1	91	NA	234.073224132	0	0.7	5.57	1	226.628645869	226.630878178	"19"	634.707682731	632.029338572	1.5	0.1
0.01	1	0.00221802100003288	1	91	NA	234.073224132	0	0.7	5.57	1	226.862514242	226.864732263	"19"	634.707682731	632.029338572	1.5	0.1
0.01	1	0.00212607200001003	1	91	NA	234.073224132	0	0.7	5.57	1	227.096152112	227.098278184	"19"	634.707682731	632.029338572	1.5	0.1
0.01	1	0.00396521999999777	1	91	NA	234.073224132	0	0.7	5.57	1	227.329898503	227.333863723	"19"	634.707682731	632.029338572	1.5	0.1
0.01	1	0.00406695300000592	1	91	NA	234.073224132	0	0.7	5.57	1	227.56359962	227.567666573	"19"	634.707682731	632.029338572	1.5	0.1
0.01	1	0.00404185299998971	1	91	NA	234.073224132	0	0.7	5.57	1	227.797437018	227.801478871	"19"	634.707682731	632.029338572	1.5	0.1
0.01	1	0.00476126199998816	1	91	NA	234.073224132	0	0.7	5.57	1	228.031138238	228.0358995	"19"	634.707682731	632.029338572	1.5	0.1
0.01	1	0.00461403200000632	1	91	NA	234.073224132	0	0.7	5.57	1	228.264945733	228.269559765	"19"	634.707682731	632.029338572	1.5	0.1
0.01	1	0.00278865799998584	1	91	NA	234.073224132	0	0.7	5.57	1	228.498564901	228.501353559	"19"	634.707682731	632.029338572	1.5	0.1
0.01	1	0.0605896679999773	1	91	NA	234.073224132	0	0.7	5.57	1	228.73227627	228.792865938	"19"	634.707682731	632.029338572	1.5	0.1
0.01	1	0.0557519040000329	1	91	NA	234.073224132	0	0.7	5.57	1	229.016096499	229.071848403	"19"	634.707682731	632.029338572	1.5	0.1
0.01	1	0.428629408999996	1	91	NA	234.073224132	0	0.7	5.57	1	229.299985158	229.728614567	"19"	634.707682731	632.029338572	1.5	0.1
0.01	1	0.0253146340000399	1	91	NA	234.073224132	0	0.7	5.57	1	229.950930603	229.976245237	"19"	634.707682731	632.029338572	1.5	0.1
0.01	1	0.00229878300001474	1	91	NA	234.073224132	0	0.7	5.57	1	230.201395116	230.203693899	"19"	634.707682731	632.029338572	1.5	0.1
0.01	1	0.00214156499998808	1	91	NA	234.073224132	0	0.7	5.57	1	230.435178923	230.437320488	"19"	634.707682731	632.029338572	1.5	0.1
0.01	1	0.0041312840000387	1	91	NA	234.073224132	0	0.7	5.57	1	230.668953675	230.673084959	"19"	634.707682731	632.029338572	1.5	0.1
0.01	1	0.122032902000001	1	91	NA	234.073224132	0	0.7	5.57	1	230.902628248	231.02466115	"19"	634.707682731	632.029338572	1.5	0.1
0.01	1	0.00210115199996608	1	91	NA	234.073224132	0	0.7	5.57	1	231.253247585	231.255348737	"19"	634.707682731	632.029338572	1.5	0.1
0.01	1	0.00212483500001781	1	91	NA	234.073224132	0	0.7	5.57	1	231.486999788	231.489124623	"19"	634.707682731	632.029338572	1.5	0.1
0.01	1	0.00211812999998529	1	91	NA	234.073224132	0	0.7	5.57	1	231.7207582	231.72287633	"19"	634.707682731	632.029338572	1.5	0.1
0.01	1	0.00210011600000826	1	91	NA	234.073224132	0	0.7	5.57	1	231.954442693	231.956542809	"19"	634.707682731	632.029338572	1.5	0.1
0.01	1	0.00207986200001642	1	91	NA	234.073224132	0	0.7	5.57	1	232.188092757	232.190172619	"19"	634.707682731	632.029338572	1.5	0.1
0.01	1	0.0022059469999931	1	91	NA	234.073224132	0	0.7	5.57	1	232.421888464	232.424094411	"19"	634.707682731	632.029338572	1.5	0.1
0.01	1	0.00203545900001245	1	91	NA	234.073224132	0	0.7	5.57	1	232.65563224	232.657667699	"19"	634.707682731	632.029338572	1.5	0.1
0.01	1	0.00204200500002116	1	91	NA	234.073224132	0	0.7	5.57	1	232.889365778	232.891407783	"19"	634.707682731	632.029338572	1.5	0.1
0.01	1	0.00225661900003615	1	91	NA	234.073224132	0	0.7	5.57	1	233.122913383	233.125170002	"19"	634.707682731	632.029338572	1.5	0.1
0.01	1	0.0274258849999569	1	91	NA	234.073224132	0	0.7	5.57	1	233.356691748	233.384117633	"19"	634.707682731	632.029338572	1.5	0.1
0.01	1	0.46449478400001	2	91	NA	234.073224132	0	0.7	5.57	1	233.60718695	234.071681734	"19"	634.707682731	632.029338572	1.5	0.1
0.01	1	0.552303870000003	1	5	237.985272638	NA	1	0	5.57	1	236.111383993	236.663687863	"20"	634.707682731	632.029338572	1.5	0.1
0.01	1	0.0887013679999882	1	5	237.985272638	NA	1	0	5.57	1	236.89608833	236.984789698	"20"	634.707682731	632.029338572	1.5	0.1
0.01	1	0.09110112999997	1	5	237.985272638	NA	1	0	5.57	1	237.213196138	237.304297268	"20"	634.707682731	632.029338572	1.5	0.1
0.01	1	0.0608137939999551	1	5	237.985272638	NA	1	0	5.57	1	237.530376353	237.591190147	"20"	634.707682731	632.029338572	1.5	0.1
0.01	1	0.0584604310000714	1	5	237.985272638	NA	1	0	5.57	1	237.814171632	237.872632063	"20"	634.707682731	632.029338572	1.5	0.1
0.01	1	0.734026717999996	1	123	NA	243.624966742	0	0.09	5.66	1	240.017976283	240.752003001	"21"	634.707682731	632.029338572	1.5	0.1
0.01	1	0.0861440140000695	1	123	NA	243.624966742	0	0.09	5.66	1	240.98624823	241.072392244	"21"	634.707682731	632.029338572	1.5	0.1
0.01	1	0.0883661330000223	1	123	NA	243.624966742	0	0.09	5.66	1	241.30339921	241.391765343	"21"	634.707682731	632.029338572	1.5	0.1
0.01	1	0.0844340709999187	1	123	NA	243.624966742	0	0.09	5.66	1	241.62059813	241.705032201	"21"	634.707682731	632.029338572	1.5	0.1
0.01	1	0.0775674109999045	1	123	NA	243.624966742	0	0.09	5.66	1	241.937930868	242.015498279	"21"	634.707682731	632.029338572	1.5	0.1
0.01	1	0.105575617999989	1	123	NA	243.624966742	0	0.09	5.66	1	242.238309243	242.343884861	"21"	634.707682731	632.029338572	1.5	0.1
0.01	1	0.0835423969999738	1	123	NA	243.624966742	0	0.09	5.66	1	242.572309726	242.655852123	"21"	634.707682731	632.029338572	1.5	0.1
0.01	1	0.0705460499999617	1	123	NA	243.624966742	0	0.09	5.66	1	242.889481353	242.960027403	"21"	634.707682731	632.029338572	1.5	0.1
0.01	1	0.0832593540000062	1	123	NA	243.624966742	0	0.09	5.66	1	243.189942425	243.273201779	"21"	634.707682731	632.029338572	1.5	0.1
0.01	1	0.116251417999933	2	123	NA	243.624966742	0	0.09	5.66	1	243.507120853	243.623372271	"21"	634.707682731	632.029338572	1.5	0.1
0.01	1	0.371682531000033	NA	81	NA	246.050794036	0	0	5.66	1	245.677530433	246.049212964	"22"	634.707682731	632.029338572	1.5	0.1
0.01	1	0.710559324999963	1	117	NA	269.425152877	0	0.73	6.39	1	248.098151793	248.808711118	"23"	634.707682731	632.029338572	1.5	0.1
0.01	1	0.0399334160000535	1	117	NA	269.425152877	0	0.73	6.39	1	249.033150858	249.073084274	"23"	634.707682731	632.029338572	1.5	0.1
0.01	1	0.0433138369999142	1	117	NA	269.425152877	0	0.73	6.39	1	249.300264485	249.343578322	"23"	634.707682731	632.029338572	1.5	0.1
0.01	1	0.0887937730000203	1	117	NA	269.425152877	0	0.73	6.39	1	249.583946958	249.672740731	"23"	634.707682731	632.029338572	1.5	0.1
0.01	1	0.00311111399992114	1	117	NA	269.425152877	0	0.73	6.39	1	249.901164141	249.904275255	"23"	634.707682731	632.029338572	1.5	0.1
0.01	1	0.0176428269999178	1	117	NA	269.425152877	0	0.73	6.39	1	250.135049473	250.1526923	"23"	634.707682731	632.029338572	1.5	0.1
0.01	1	0.295259785999974	1	117	NA	269.425152877	0	0.73	6.39	1	250.385447455	250.680707241	"23"	634.707682731	632.029338572	1.5	0.1
0.01	1	0.00281503700000485	1	117	NA	269.425152877	0	0.73	6.39	1	250.902838765	250.905653802	"23"	634.707682731	632.029338572	1.5	0.1
0.01	1	0.00209848399993007	1	117	NA	269.425152877	0	0.73	6.39	1	251.136656799	251.138755283	"23"	634.707682731	632.029338572	1.5	0.1
0.01	1	0.245780091000029	1	117	NA	269.425152877	0	0.73	6.39	1	251.37039001	251.616170101	"23"	634.707682731	632.029338572	1.5	0.1
0.01	1	0.0020957429999271	1	117	NA	269.425152877	0	0.73	6.39	1	251.854586599	251.856682342	"23"	634.707682731	632.029338572	1.5	0.1
0.01	1	0.112403901999983	1	117	NA	269.425152877	0	0.73	6.39	1	252.088246233	252.200650135	"23"	634.707682731	632.029338572	1.5	0.1
0.01	1	0.00411038900006133	1	117	NA	269.425152877	0	0.73	6.39	1	252.4388142	252.442924589	"23"	634.707682731	632.029338572	1.5	0.1
0.01	1	0.00393027699999493	1	117	NA	269.425152877	0	0.73	6.39	1	252.672484778	252.676415055	"23"	634.707682731	632.029338572	1.5	0.1
0.01	1	0.00203301099998043	1	117	NA	269.425152877	0	0.73	6.39	1	252.906260448	252.908293459	"23"	634.707682731	632.029338572	1.5	0.1
0.01	1	0.00394965300006334	1	117	NA	269.425152877	0	0.73	6.39	1	253.14003957	253.143989223	"23"	634.707682731	632.029338572	1.5	0.1
0.01	1	0.00466462500003217	1	117	NA	269.425152877	0	0.73	6.39	1	253.373757393	253.378422018	"23"	634.707682731	632.029338572	1.5	0.1
0.01	1	0.00206706900007703	1	117	NA	269.425152877	0	0.73	6.39	1	253.607473217	253.609540286	"23"	634.707682731	632.029338572	1.5	0.1
0.01	1	0.00466943999992964	1	117	NA	269.425152877	0	0.73	6.39	1	253.841312168	253.845981608	"23"	634.707682731	632.029338572	1.5	0.1
0.01	1	0.00402321500007474	1	117	NA	269.425152877	0	0.73	6.39	1	254.07493861	254.078961825	"23"	634.707682731	632.029338572	1.5	0.1
0.01	1	0.00469053500000882	1	117	NA	269.425152877	0	0.73	6.39	1	254.308721583	254.313412118	"23"	634.707682731	632.029338572	1.5	0.1
0.01	1	0.137425218999965	1	117	NA	269.425152877	0	0.73	6.39	1	254.542379803	254.679805022	"23"	634.707682731	632.029338572	1.5	0.1
0.01	1	0.0115446879999581	1	117	NA	269.425152877	0	0.73	6.39	1	254.909695183	254.921239871	"23"	634.707682731	632.029338572	1.5	0.1
0.01	1	0.00276895000001787	1	117	NA	269.425152877	0	0.73	6.39	1	255.143385251	255.146154201	"23"	634.707682731	632.029338572	1.5	0.1
0.01	1	0.00209625000002234	1	117	NA	269.425152877	0	0.73	6.39	1	255.377132782	255.379229032	"23"	634.707682731	632.029338572	1.5	0.1
0.01	1	0.00383404700005485	1	117	NA	269.425152877	0	0.73	6.39	1	255.61084854	255.614682587	"23"	634.707682731	632.029338572	1.5	0.1
0.01	1	0.00471606700000393	1	117	NA	269.425152877	0	0.73	6.39	1	255.844579133	255.8492952	"23"	634.707682731	632.029338572	1.5	0.1
0.01	1	0.00491741199994067	1	117	NA	269.425152877	0	0.73	6.39	1	256.078298993	256.083216405	"23"	634.707682731	632.029338572	1.5	0.1
0.01	1	0.00406917499992687	1	117	NA	269.425152877	0	0.73	6.39	1	256.311990158	256.316059333	"23"	634.707682731	632.029338572	1.5	0.1
0.01	1	0.00387388299998292	1	117	NA	269.425152877	0	0.73	6.39	1	256.545837148	256.549711031	"23"	634.707682731	632.029338572	1.5	0.1
0.01	1	0.00402468300001146	1	117	NA	269.425152877	0	0.73	6.39	1	256.779466478	256.783491161	"23"	634.707682731	632.029338572	1.5	0.1
0.01	1	0.00468707499999255	1	117	NA	269.425152877	0	0.73	6.39	1	257.013224038	257.017911113	"23"	634.707682731	632.029338572	1.5	0.1
0.01	1	0.00466180500006885	1	117	NA	269.425152877	0	0.73	6.39	1	257.246880768	257.251542573	"23"	634.707682731	632.029338572	1.5	0.1
0.01	1	0.111551847999976	1	117	NA	269.425152877	0	0.73	6.39	1	257.48059682	257.592148668	"23"	634.707682731	632.029338572	1.5	0.1
0.01	1	0.00445159200000944	1	117	NA	269.425152877	0	0.73	6.39	1	257.831287608	257.8357392	"23"	634.707682731	632.029338572	1.5	0.1
0.01	1	0.0633029619999661	1	117	NA	269.425152877	0	0.73	6.39	1	258.064982818	258.12828578	"23"	634.707682731	632.029338572	1.5	0.1
0.01	1	0.00212981100003162	1	117	NA	269.425152877	0	0.73	6.39	1	258.365485388	258.367615199	"23"	634.707682731	632.029338572	1.5	0.1
0.01	1	0.00206187600008434	1	117	NA	269.425152877	0	0.73	6.39	1	258.599152432	258.601214308	"23"	634.707682731	632.029338572	1.5	0.1
0.01	1	0.103041594000047	1	117	NA	269.425152877	0	0.73	6.39	1	258.8329687	258.936010294	"23"	634.707682731	632.029338572	1.5	0.1
0.01	1	0.00219801400010056	1	117	NA	269.425152877	0	0.73	6.39	1	259.166808286	259.1690063	"23"	634.707682731	632.029338572	1.5	0.1
0.01	1	0.00222761899999568	1	117	NA	269.425152877	0	0.73	6.39	1	259.400473759	259.402701378	"23"	634.707682731	632.029338572	1.5	0.1
0.01	1	0.00211463100004039	1	117	NA	269.425152877	0	0.73	6.39	1	259.634328161	259.636442792	"23"	634.707682731	632.029338572	1.5	0.1
0.01	1	0.00452904799999487	1	117	NA	269.425152877	0	0.73	6.39	1	259.867942945	259.872471993	"23"	634.707682731	632.029338572	1.5	0.1
0.01	1	0.0047192270000096	1	117	NA	269.425152877	0	0.73	6.39	1	260.101771843	260.10649107	"23"	634.707682731	632.029338572	1.5	0.1
0.01	1	0.00211694500001158	1	117	NA	269.425152877	0	0.73	6.39	1	260.335456913	260.337573858	"23"	634.707682731	632.029338572	1.5	0.1
0.01	1	0.00465354499999648	1	117	NA	269.425152877	0	0.73	6.39	1	260.569308368	260.573961913	"23"	634.707682731	632.029338572	1.5	0.1
0.01	1	0.00396868600000744	1	117	NA	269.425152877	0	0.73	6.39	1	260.802895433	260.806864119	"23"	634.707682731	632.029338572	1.5	0.1
0.01	1	0.00460417900001175	1	117	NA	269.425152877	0	0.73	6.39	1	261.036741106	261.041345285	"23"	634.707682731	632.029338572	1.5	0.1
0.01	1	0.00407720800001243	1	117	NA	269.425152877	0	0.73	6.39	1	261.270383605	261.274460813	"23"	634.707682731	632.029338572	1.5	0.1
0.01	1	0.00386274499999217	1	117	NA	269.425152877	0	0.73	6.39	1	261.504133568	261.507996313	"23"	634.707682731	632.029338572	1.5	0.1
0.01	1	0.00491264499999033	1	117	NA	269.425152877	0	0.73	6.39	1	261.737773353	261.742685998	"23"	634.707682731	632.029338572	1.5	0.1
0.01	1	0.00752914600002441	1	117	NA	269.425152877	0	0.73	6.39	1	261.971532653	261.979061799	"23"	634.707682731	632.029338572	1.5	0.1
0.01	1	0.00436874500007889	1	117	NA	269.425152877	0	0.73	6.39	1	262.20526306	262.209631805	"23"	634.707682731	632.029338572	1.5	0.1
0.01	1	0.00375656300002447	1	117	NA	269.425152877	0	0.73	6.39	1	262.438979838	262.442736401	"23"	634.707682731	632.029338572	1.5	0.1
0.01	1	0.0151319339998963	1	117	NA	269.425152877	0	0.73	6.39	1	262.67273656	262.687868494	"23"	634.707682731	632.029338572	1.5	0.1
0.01	1	0.49202781200006	1	117	NA	269.425152877	0	0.73	6.39	1	262.923111803	263.415139615	"23"	634.707682731	632.029338572	1.5	0.1
0.01	1	0.0158179690000679	1	117	NA	269.425152877	0	0.73	6.39	1	263.640978365	263.656796334	"23"	634.707682731	632.029338572	1.5	0.1
0.01	1	0.00436547899994366	1	117	NA	269.425152877	0	0.73	6.39	1	263.891493119	263.895858598	"23"	634.707682731	632.029338572	1.5	0.1
0.01	1	0.00466754199999286	1	117	NA	269.425152877	0	0.73	6.39	1	264.125142008	264.12980955	"23"	634.707682731	632.029338572	1.5	0.1
0.01	1	0.00229967699999634	1	117	NA	269.425152877	0	0.73	6.39	1	264.358792892	264.361092569	"23"	634.707682731	632.029338572	1.5	0.1
0.01	1	0.00212891900002887	1	117	NA	269.425152877	0	0.73	6.39	1	264.592683912	264.594812831	"23"	634.707682731	632.029338572	1.5	0.1
0.01	1	0.00395833000004586	1	117	NA	269.425152877	0	0.73	6.39	1	264.826370173	264.830328503	"23"	634.707682731	632.029338572	1.5	0.1
0.01	1	0.436251529999936	1	117	NA	269.425152877	0	0.73	6.39	1	265.060044742	265.496296272	"23"	634.707682731	632.029338572	1.5	0.1
0.01	1	0.00443094500008101	1	117	NA	269.425152877	0	0.73	6.39	1	265.727795153	265.732226098	"23"	634.707682731	632.029338572	1.5	0.1
0.01	1	0.00386676300001909	1	117	NA	269.425152877	0	0.73	6.39	1	265.96155292	265.965419683	"23"	634.707682731	632.029338572	1.5	0.1
0.01	1	0.00211557399995854	1	117	NA	269.425152877	0	0.73	6.39	1	266.195243723	266.197359297	"23"	634.707682731	632.029338572	1.5	0.1
0.01	1	0.00320224400002189	1	117	NA	269.425152877	0	0.73	6.39	1	266.428992297	266.432194541	"23"	634.707682731	632.029338572	1.5	0.1
0.01	1	0.225388627000029	1	117	NA	269.425152877	0	0.73	6.39	1	266.66272987	266.888118497	"23"	634.707682731	632.029338572	1.5	0.1
0.01	1	0.00395012399997086	1	117	NA	269.425152877	0	0.73	6.39	1	267.113534625	267.117484749	"23"	634.707682731	632.029338572	1.5	0.1
0.01	1	0.00396118700007264	1	117	NA	269.425152877	0	0.73	6.39	1	267.34735429	267.351315477	"23"	634.707682731	632.029338572	1.5	0.1
0.01	1	0.00318453800002771	1	117	NA	269.425152877	0	0.73	6.39	1	267.580947811	267.584132349	"23"	634.707682731	632.029338572	1.5	0.1
0.01	1	0.649900838999997	1	117	NA	269.425152877	0	0.73	6.39	1	267.814614413	268.464515252	"23"	634.707682731	632.029338572	1.5	0.1
0.01	1	0.00406949900002473	1	117	NA	269.425152877	0	0.73	6.39	1	268.699520178	268.703589677	"23"	634.707682731	632.029338572	1.5	0.1
0.01	1	0.490374568999982	2	117	NA	269.425152877	0	0.73	6.39	1	268.933246733	269.423621302	"23"	634.707682731	632.029338572	1.5	0.1
0.01	1	0.00407147299995358	1	84	NA	284.914812408	0	0.48	6.87	1	271.470912508	271.474983981	"24"	634.707682731	632.029338572	1.5	0.1
0.01	1	0.00377449300003718	1	84	NA	284.914812408	0	0.48	6.87	1	271.704648238	271.708422731	"24"	634.707682731	632.029338572	1.5	0.1
0.01	1	0.00412182299999131	1	84	NA	284.914812408	0	0.48	6.87	1	271.93824674	271.942368563	"24"	634.707682731	632.029338572	1.5	0.1
0.01	1	0.00407033000010415	1	84	NA	284.914812408	0	0.48	6.87	1	272.172157353	272.176227683	"24"	634.707682731	632.029338572	1.5	0.1
0.01	1	0.00463935699997364	1	84	NA	284.914812408	0	0.48	6.87	1	272.405828023	272.41046738	"24"	634.707682731	632.029338572	1.5	0.1
0.01	1	0.00331692600002498	1	84	NA	284.914812408	0	0.48	6.87	1	272.639457881	272.642774807	"24"	634.707682731	632.029338572	1.5	0.1
0.01	1	0.00467120200005411	1	84	NA	284.914812408	0	0.48	6.87	1	272.873225563	272.877896765	"24"	634.707682731	632.029338572	1.5	0.1
0.01	1	0.00475183200001084	1	84	NA	284.914812408	0	0.48	6.87	1	273.107173218	273.11192505	"24"	634.707682731	632.029338572	1.5	0.1
0.01	1	0.00379870500000834	1	84	NA	284.914812408	0	0.48	6.87	1	273.340621898	273.344420603	"24"	634.707682731	632.029338572	1.5	0.1
0.01	1	0.00406816800000342	1	84	NA	284.914812408	0	0.48	6.87	1	273.574451693	273.578519861	"24"	634.707682731	632.029338572	1.5	0.1
0.01	1	0.00346790100002181	1	84	NA	284.914812408	0	0.48	6.87	1	273.80808508	273.811552981	"24"	634.707682731	632.029338572	1.5	0.1
0.01	1	0.00375337699995271	1	84	NA	284.914812408	0	0.48	6.87	1	274.0418775	274.045630877	"24"	634.707682731	632.029338572	1.5	0.1
0.01	1	0.0047048870000026	1	84	NA	284.914812408	0	0.48	6.87	1	274.275539093	274.28024398	"24"	634.707682731	632.029338572	1.5	0.1
0.01	1	0.00404943900002763	1	84	NA	284.914812408	0	0.48	6.87	1	274.509323708	274.513373147	"24"	634.707682731	632.029338572	1.5	0.1
0.01	1	0.00355344500007959	1	84	NA	284.914812408	0	0.48	6.87	1	274.74303948	274.746592925	"24"	634.707682731	632.029338572	1.5	0.1
0.01	1	0.00226170000007642	1	84	NA	284.914812408	0	0.48	6.87	1	274.976745778	274.979007478	"24"	634.707682731	632.029338572	1.5	0.1
0.01	1	0.00259820499991292	1	84	NA	284.914812408	0	0.48	6.87	1	275.210565903	275.213164108	"24"	634.707682731	632.029338572	1.5	0.1
0.01	1	0.00389004799990289	1	84	NA	284.914812408	0	0.48	6.87	1	275.444147233	275.448037281	"24"	634.707682731	632.029338572	1.5	0.1
0.01	1	0.00403671200001554	1	84	NA	284.914812408	0	0.48	6.87	1	275.677923245	275.681959957	"24"	634.707682731	632.029338572	1.5	0.1
0.01	1	0.00473594200002481	1	84	NA	284.914812408	0	0.48	6.87	1	275.911636958	275.9163729	"24"	634.707682731	632.029338572	1.5	0.1
0.01	1	0.00344716400002198	1	84	NA	284.914812408	0	0.48	6.87	1	276.145368223	276.148815387	"24"	634.707682731	632.029338572	1.5	0.1
0.01	1	0.00402131900000313	1	84	NA	284.914812408	0	0.48	6.87	1	276.37904552	276.383066839	"24"	634.707682731	632.029338572	1.5	0.1
0.01	1	0.0041340880000007	1	84	NA	284.914812408	0	0.48	6.87	1	276.612724973	276.616859061	"24"	634.707682731	632.029338572	1.5	0.1
0.01	1	0.00372881900000266	1	84	NA	284.914812408	0	0.48	6.87	1	276.8466083	276.850337119	"24"	634.707682731	632.029338572	1.5	0.1
0.01	1	0.00440974699995422	1	84	NA	284.914812408	0	0.48	6.87	1	277.080306471	277.084716218	"24"	634.707682731	632.029338572	1.5	0.1
0.01	1	0.00366870599998492	1	84	NA	284.914812408	0	0.48	6.87	1	277.313947723	277.317616429	"24"	634.707682731	632.029338572	1.5	0.1
0.01	1	0.00397242600001846	1	84	NA	284.914812408	0	0.48	6.87	1	277.547821915	277.551794341	"24"	634.707682731	632.029338572	1.5	0.1
0.01	1	0.00395455900002162	1	84	NA	284.914812408	0	0.48	6.87	1	277.78137991	277.785334469	"24"	634.707682731	632.029338572	1.5	0.1
0.01	1	0.00387732199999391	1	84	NA	284.914812408	0	0.48	6.87	1	278.015132213	278.019009535	"24"	634.707682731	632.029338572	1.5	0.1
0.01	1	0.00405380600000171	1	84	NA	284.914812408	0	0.48	6.87	1	278.248841485	278.252895291	"24"	634.707682731	632.029338572	1.5	0.1
0.01	1	0.00391522400002486	1	84	NA	284.914812408	0	0.48	6.87	1	278.482586383	278.486501607	"24"	634.707682731	632.029338572	1.5	0.1
0.01	1	0.00419922499997938	1	84	NA	284.914812408	0	0.48	6.87	1	278.716353308	278.720552533	"24"	634.707682731	632.029338572	1.5	0.1
0.01	1	0.0038560719999623	1	84	NA	284.914812408	0	0.48	6.87	1	278.950080913	278.953936985	"24"	634.707682731	632.029338572	1.5	0.1
0.01	1	0.00391783500003839	1	84	NA	284.914812408	0	0.48	6.87	1	279.183845568	279.187763403	"24"	634.707682731	632.029338572	1.5	0.1
0.01	1	0.00355182600003445	1	84	NA	284.914812408	0	0.48	6.87	1	279.417600843	279.421152669	"24"	634.707682731	632.029338572	1.5	0.1
0.01	1	0.00338640799998302	1	84	NA	284.914812408	0	0.48	6.87	1	279.651282513	279.654668921	"24"	634.707682731	632.029338572	1.5	0.1
0.01	1	0.00470787500000824	1	84	NA	284.914812408	0	0.48	6.87	1	279.885036978	279.889744853	"24"	634.707682731	632.029338572	1.5	0.1
0.01	1	0.00385076000009121	1	84	NA	284.914812408	0	0.48	6.87	1	280.118628265	280.122479025	"24"	634.707682731	632.029338572	1.5	0.1
0.01	1	0.00410467400001835	1	84	NA	284.914812408	0	0.48	6.87	1	280.352405165	280.356509839	"24"	634.707682731	632.029338572	1.5	0.1
0.01	1	0.0038616809999894	1	84	NA	284.914812408	0	0.48	6.87	1	280.58615348	280.590015161	"24"	634.707682731	632.029338572	1.5	0.1
0.01	1	0.00352128700001231	1	84	NA	284.914812408	0	0.48	6.87	1	280.81990345	280.823424737	"24"	634.707682731	632.029338572	1.5	0.1
0.01	1	0.0047091349999846	1	84	NA	284.914812408	0	0.48	6.87	1	281.053715698	281.058424833	"24"	634.707682731	632.029338572	1.5	0.1
0.01	1	0.00375881100001152	1	84	NA	284.914812408	0	0.48	6.87	1	281.28732332	281.291082131	"24"	634.707682731	632.029338572	1.5	0.1
0.01	1	0.00465015999998286	1	84	NA	284.914812408	0	0.48	6.87	1	281.521288248	281.525938408	"24"	634.707682731	632.029338572	1.5	0.1
0.01	1	0.00463791499998933	1	84	NA	284.914812408	0	0.48	6.87	1	281.754835118	281.759473033	"24"	634.707682731	632.029338572	1.5	0.1
0.01	1	0.00399196199998642	1	84	NA	284.914812408	0	0.48	6.87	1	281.988534963	281.992526925	"24"	634.707682731	632.029338572	1.5	0.1
0.01	1	0.00459267099995486	1	84	NA	284.914812408	0	0.48	6.87	1	282.222385182	282.226977853	"24"	634.707682731	632.029338572	1.5	0.1
0.01	1	0.0039220399999067	1	84	NA	284.914812408	0	0.48	6.87	1	282.455931043	282.459853083	"24"	634.707682731	632.029338572	1.5	0.1
0.01	1	2.22351857899992	2	84	NA	284.914812408	0	0.48	6.87	1	282.689715453	284.913234032	"24"	634.707682731	632.029338572	1.5	0.1
0.01	1	0.00394141500009937	1	22	291.99158319	NA	1	0	6.87	1	286.963624418	286.967565833	"25"	634.707682731	632.029338572	1.5	0.1
0.01	1	0.00411042300004283	1	22	291.99158319	NA	1	0	6.87	1	287.19724195	287.201352373	"25"	634.707682731	632.029338572	1.5	0.1
0.01	1	0.0036625529999128	1	22	291.99158319	NA	1	0	6.87	1	287.4310422	287.434704753	"25"	634.707682731	632.029338572	1.5	0.1
0.01	1	0.00333441199995832	1	22	291.99158319	NA	1	0	6.87	1	287.664686679	287.668021091	"25"	634.707682731	632.029338572	1.5	0.1
0.01	1	0.00390484299998661	1	22	291.99158319	NA	1	0	6.87	1	287.898498458	287.902403301	"25"	634.707682731	632.029338572	1.5	0.1
0.01	1	0.00398582200000419	1	22	291.99158319	NA	1	0	6.87	1	288.132172415	288.136158237	"25"	634.707682731	632.029338572	1.5	0.1
0.01	1	0.00402268900006675	1	22	291.99158319	NA	1	0	6.87	1	288.36593623	288.369958919	"25"	634.707682731	632.029338572	1.5	0.1
0.01	1	0.0037343270000747	1	22	291.99158319	NA	1	0	6.87	1	288.599585618	288.603319945	"25"	634.707682731	632.029338572	1.5	0.1
0.01	1	0.00403110500008097	1	22	291.99158319	NA	1	0	6.87	1	288.83334026	288.837371365	"25"	634.707682731	632.029338572	1.5	0.1
0.01	1	0.00453111199999512	1	22	291.99158319	NA	1	0	6.87	1	289.067092358	289.07162347	"25"	634.707682731	632.029338572	1.5	0.1
0.01	1	0.0040380149999919	1	22	291.99158319	NA	1	0	6.87	1	289.30080008	289.304838095	"25"	634.707682731	632.029338572	1.5	0.1
0.01	1	0.00445433999993838	1	22	291.99158319	NA	1	0	6.87	1	289.534612588	289.539066928	"25"	634.707682731	632.029338572	1.5	0.1
0.01	1	0.00404513299997689	1	22	291.99158319	NA	1	0	6.87	1	289.76834053	289.772385663	"25"	634.707682731	632.029338572	1.5	0.1
0.01	1	0.00400367800000367	1	22	291.99158319	NA	1	0	6.87	1	290.002113103	290.006116781	"25"	634.707682731	632.029338572	1.5	0.1
0.01	1	0.00465797200001816	1	22	291.99158319	NA	1	0	6.87	1	290.235848588	290.24050656	"25"	634.707682731	632.029338572	1.5	0.1
0.01	1	0.00408374200003436	1	22	291.99158319	NA	1	0	6.87	1	290.469494275	290.473578017	"25"	634.707682731	632.029338572	1.5	0.1
0.01	1	0.00450673099999221	1	22	291.99158319	NA	1	0	6.87	1	290.703276599	290.70778333	"25"	634.707682731	632.029338572	1.5	0.1
0.01	1	0.00383788300007382	1	22	291.99158319	NA	1	0	6.87	1	290.93700214	290.940840023	"25"	634.707682731	632.029338572	1.5	0.1
0.01	1	0.00394325299998854	1	22	291.99158319	NA	1	0	6.87	1	291.17063193	291.174575183	"25"	634.707682731	632.029338572	1.5	0.1
0.01	1	0.00391635200003293	1	22	291.99158319	NA	1	0	6.87	1	291.404351233	291.408267585	"25"	634.707682731	632.029338572	1.5	0.1
0.01	1	0.0039102969999476	1	22	291.99158319	NA	1	0	6.87	1	291.63809661	291.642006907	"25"	634.707682731	632.029338572	1.5	0.1
0.01	1	0.00335054199990736	1	22	291.99158319	NA	1	0	6.87	1	291.871777601	291.875128143	"25"	634.707682731	632.029338572	1.5	0.1
0.01	1	0.134754152999903	1	36	NA	301.21839973	0	0.3	7.17	1	294.042182908	294.176937061	"26"	634.707682731	632.029338572	1.5	0.1
0.01	1	0.00473500499992952	1	36	NA	301.21839973	0	0.3	7.17	1	294.409606418	294.414341423	"26"	634.707682731	632.029338572	1.5	0.1
0.01	1	0.0038187420000213	1	36	NA	301.21839973	0	0.3	7.17	1	294.643176165	294.646994907	"26"	634.707682731	632.029338572	1.5	0.1
0.01	1	0.0046356850000393	1	36	NA	301.21839973	0	0.3	7.17	1	294.876823968	294.881459653	"26"	634.707682731	632.029338572	1.5	0.1
0.01	1	0.00473929499992209	1	36	NA	301.21839973	0	0.3	7.17	1	295.110583768	295.115323063	"26"	634.707682731	632.029338572	1.5	0.1
0.01	1	0.00396796299992275	1	36	NA	301.21839973	0	0.3	7.17	1	295.344302958	295.348270921	"26"	634.707682731	632.029338572	1.5	0.1
0.01	1	0.0041116189999002	1	36	NA	301.21839973	0	0.3	7.17	1	295.578136688	295.582248307	"26"	634.707682731	632.029338572	1.5	0.1
0.01	1	0.00389508800003568	1	36	NA	301.21839973	0	0.3	7.17	1	295.811759465	295.815654553	"26"	634.707682731	632.029338572	1.5	0.1
0.01	1	0.00344036199999209	1	36	NA	301.21839973	0	0.3	7.17	1	296.045525223	296.048965585	"26"	634.707682731	632.029338572	1.5	0.1
0.01	1	0.00388789900000575	1	36	NA	301.21839973	0	0.3	7.17	1	296.27928795	296.283175849	"26"	634.707682731	632.029338572	1.5	0.1
0.01	1	0.00470514500000263	1	36	NA	301.21839973	0	0.3	7.17	1	296.513074678	296.517779823	"26"	634.707682731	632.029338572	1.5	0.1
0.01	1	0.00378874299997278	1	36	NA	301.21839973	0	0.3	7.17	1	296.74670922	296.750497963	"26"	634.707682731	632.029338572	1.5	0.1
0.01	1	0.00446551800007455	1	36	NA	301.21839973	0	0.3	7.17	1	296.980348315	296.984813833	"26"	634.707682731	632.029338572	1.5	0.1
0.01	1	0.00390114800006813	1	36	NA	301.21839973	0	0.3	7.17	1	297.214275425	297.218176573	"26"	634.707682731	632.029338572	1.5	0.1
0.01	1	0.00389514500000132	1	36	NA	301.21839973	0	0.3	7.17	1	297.447763608	297.451658753	"26"	634.707682731	632.029338572	1.5	0.1
0.01	1	0.00444579099996645	1	36	NA	301.21839973	0	0.3	7.17	1	297.681500409	297.6859462	"26"	634.707682731	632.029338572	1.5	0.1
0.01	1	0.00406818800001929	1	36	NA	301.21839973	0	0.3	7.17	1	297.915279785	297.919347973	"26"	634.707682731	632.029338572	1.5	0.1
0.01	1	0.00345332999995662	1	36	NA	301.21839973	0	0.3	7.17	1	298.149008103	298.152461433	"26"	634.707682731	632.029338572	1.5	0.1
0.01	1	0.00465295000003607	1	36	NA	301.21839973	0	0.3	7.17	1	298.382848223	298.387501173	"26"	634.707682731	632.029338572	1.5	0.1
0.01	1	0.00405797899998106	1	36	NA	301.21839973	0	0.3	7.17	1	298.616532838	298.620590817	"26"	634.707682731	632.029338572	1.5	0.1
0.01	1	0.00404683800002203	1	36	NA	301.21839973	0	0.3	7.17	1	298.850253263	298.854300101	"26"	634.707682731	632.029338572	1.5	0.1
0.01	1	0.00433717900000374	1	36	NA	301.21839973	0	0.3	7.17	1	299.084023421	299.0883606	"26"	634.707682731	632.029338572	1.5	0.1
0.01	1	0.0041832429999431	1	36	NA	301.21839973	0	0.3	7.17	1	299.317712858	299.321896101	"26"	634.707682731	632.029338572	1.5	0.1
0.01	1	0.00353863800000909	1	36	NA	301.21839973	0	0.3	7.17	1	299.551437073	299.554975711	"26"	634.707682731	632.029338572	1.5	0.1
0.01	1	0.0039962179999975	1	36	NA	301.21839973	0	0.3	7.17	1	299.785167933	299.789164151	"26"	634.707682731	632.029338572	1.5	0.1
0.01	1	0.00389265100000102	1	36	NA	301.21839973	0	0.3	7.17	1	300.01886903	300.022761681	"26"	634.707682731	632.029338572	1.5	0.1
0.01	1	0.00403733799998918	1	36	NA	301.21839973	0	0.3	7.17	1	300.252594623	300.256631961	"26"	634.707682731	632.029338572	1.5	0.1
0.01	1	0.00351344800003517	1	36	NA	301.21839973	0	0.3	7.17	1	300.486396873	300.489910321	"26"	634.707682731	632.029338572	1.5	0.1
