"payoff.level"	"balloon"	"rt"	"resp"	"explode.trial"	"explode.time"	"finish.time"	"exploded"	"trial.total"	"cumulative.total"	"finished"	"trial.start"	"trial.end"	"trial.num"	"secs"	"start.time"	"iti"	"isi"
0.01	1	2.03763021299892	1	64	NA	7.11379357499754	0	0.11	0.11	1	0.0099519049981609	2.04758211799708	"1"	22031.989201187	22029.547054839	1.5	0.1
0.01	1	0.436486706999858	1	64	NA	7.11379357499754	0	0.11	0.11	1	2.34707341499961	2.78356012199947	"1"	22031.989201187	22029.547054839	1.5	0.1
0.01	1	0.0884352889988804	1	64	NA	7.11379357499754	0	0.11	0.11	1	3.01494941700003	3.10338470599891	"1"	22031.989201187	22029.547054839	1.5	0.1
0.01	1	0.147115332001704	1	64	NA	7.11379357499754	0	0.11	0.11	1	3.33198513999741	3.47910047199912	"1"	22031.989201187	22029.547054839	1.5	0.1
0.01	1	0.0996967749997566	1	64	NA	7.11379357499754	0	0.11	0.11	1	3.71625842999856	3.81595520499832	"1"	22031.989201187	22029.547054839	1.5	0.1
0.01	1	0.0373321269980806	1	64	NA	7.11379357499754	0	0.11	0.11	1	4.04987060699932	4.0872027339974	"1"	22031.989201187	22029.547054839	1.5	0.1
0.01	1	0.0421268219979538	1	64	NA	7.11379357499754	0	0.11	0.11	1	4.3171152319992	4.35924205399715	"1"	22031.989201187	22029.547054839	1.5	0.1
0.01	1	0.00392434900277294	1	64	NA	7.11379357499754	0	0.11	0.11	1	4.58411795499705	4.58804230399983	"1"	22031.989201187	22029.547054839	1.5	0.1
0.01	1	0.00396679299956304	1	64	NA	7.11379357499754	0	0.11	0.11	1	4.81794021699898	4.82190700999854	"1"	22031.989201187	22029.547054839	1.5	0.1
0.01	1	0.00391703099739971	1	64	NA	7.11379357499754	0	0.11	0.11	1	5.05163316499966	5.05555019599706	"1"	22031.989201187	22029.547054839	1.5	0.1
0.01	1	0.0022707129974151	1	64	NA	7.11379357499754	0	0.11	0.11	1	5.28533607200006	5.28760678499748	"1"	22031.989201187	22029.547054839	1.5	0.1
0.01	1	1.59309268600191	2	64	NA	7.11379357499754	0	0.11	0.11	1	5.51897667699814	7.11206936300005	"1"	22031.989201187	22029.547054839	1.5	0.1
0.01	1	1.02558990399848	1	68	NA	15.6500658579971	0	0.15	0.26	1	9.15853521499957	10.1841251189981	"2"	22031.989201187	22029.547054839	1.5	0.1
0.01	1	0.0539522979997855	1	68	NA	15.6500658579971	0	0.15	0.26	1	10.4106633269985	10.4646156249983	"2"	22031.989201187	22029.547054839	1.5	0.1
0.01	1	0.00496417000249494	1	68	NA	15.6500658579971	0	0.15	0.26	1	10.6946149349969	10.6995791049994	"2"	22031.989201187	22029.547054839	1.5	0.1
0.01	1	0.127412609999737	1	68	NA	15.6500658579971	0	0.15	0.26	1	10.9282961749996	11.0557087849993	"2"	22031.989201187	22029.547054839	1.5	0.1
0.01	1	0.0168340069976693	1	68	NA	15.6500658579971	0	0.15	0.26	1	11.2955057500003	11.312339756998	"2"	22031.989201187	22029.547054839	1.5	0.1
0.01	1	0.00390724300086731	1	68	NA	15.6500658579971	0	0.15	0.26	1	11.545831604999	11.5497388479998	"2"	22031.989201187	22029.547054839	1.5	0.1
0.01	1	0.0363654739994672	1	68	NA	15.6500658579971	0	0.15	0.26	1	11.7796507599996	11.8160162339991	"2"	22031.989201187	22029.547054839	1.5	0.1
0.01	1	0.0967039070019382	1	68	NA	15.6500658579971	0	0.15	0.26	1	12.0467964549971	12.143500361999	"2"	22031.989201187	22029.547054839	1.5	0.1
0.01	1	0.0592833190021338	1	68	NA	15.6500658579971	0	0.15	0.26	1	12.3805631869982	12.4398465060003	"2"	22031.989201187	22029.547054839	1.5	0.1
0.01	1	0.0630180230000406	1	68	NA	15.6500658579971	0	0.15	0.26	1	12.6644455819987	12.7274636049988	"2"	22031.989201187	22029.547054839	1.5	0.1
0.01	1	0.0675448460024199	1	68	NA	15.6500658579971	0	0.15	0.26	1	12.9650191999972	13.0325640459996	"2"	22031.989201187	22029.547054839	1.5	0.1
0.01	1	0.0230370200006291	1	68	NA	15.6500658579971	0	0.15	0.26	1	13.265347444998	13.2883844649987	"2"	22031.989201187	22029.547054839	1.5	0.1
0.01	1	0.0281106460024603	1	68	NA	15.6500658579971	0	0.15	0.26	1	13.5158870399973	13.5439976859998	"2"	22031.989201187	22029.547054839	1.5	0.1
0.01	1	0.169913145000464	1	68	NA	15.6500658579971	0	0.15	0.26	1	13.7664448949981	13.9363580399986	"2"	22031.989201187	22029.547054839	1.5	0.1
0.01	1	0.0177916469983757	1	68	NA	15.6500658579971	0	0.15	0.26	1	14.1669840350005	14.1847756819989	"2"	22031.989201187	22029.547054839	1.5	0.1
0.01	1	1.23105017300259	2	68	NA	15.6500658579971	0	0.15	0.26	1	14.4173268249979	15.6483769980005	"2"	22031.989201187	22029.547054839	1.5	0.1
0.01	1	0.502557107996836	1	33	NA	21.6168416049986	0	0.06	0.32	1	17.6895058400005	18.1920629479973	"3"	22031.989201187	22029.547054839	1.5	0.1
0.01	1	0.0480855339992559	1	33	NA	21.6168416049986	0	0.06	0.32	1	18.4241209049978	18.4722064389971	"3"	22031.989201187	22029.547054839	1.5	0.1
0.01	1	0.524270764999528	1	33	NA	21.6168416049986	0	0.06	0.32	1	18.7079857489989	19.2322565139984	"3"	22031.989201187	22029.547054839	1.5	0.1
0.01	1	0.316352835001453	1	33	NA	21.6168416049986	0	0.06	0.32	1	19.4592018099975	19.7755546449989	"3"	22031.989201187	22029.547054839	1.5	0.1
0.01	1	0.374478402998648	1	33	NA	21.6168416049986	0	0.06	0.32	1	20.0101244549987	20.3846028579974	"3"	22031.989201187	22029.547054839	1.5	0.1
0.01	1	0.349375397996482	1	33	NA	21.6168416049986	0	0.06	0.32	1	20.6111607700004	20.9605361679969	"3"	22031.989201187	22029.547054839	1.5	0.1
0.01	1	0.419760536999092	2	33	NA	21.6168416049986	0	0.06	0.32	1	21.1954018899996	21.6151624269987	"3"	22031.989201187	22029.547054839	1.5	0.1
0.01	1	0.540927382000518	1	105	NA	26.8172153919986	0	0.1	0.42	1	23.6662878059979	24.2072151879984	"4"	22031.989201187	22029.547054839	1.5	0.1
0.01	1	0.0610695349969319	1	105	NA	26.8172153919986	0	0.1	0.42	1	24.434213605	24.4952831399969	"4"	22031.989201187	22029.547054839	1.5	0.1
0.01	1	0.0164159640007711	1	105	NA	26.8172153919986	0	0.1	0.42	1	24.7347234499975	24.7511394139983	"4"	22031.989201187	22029.547054839	1.5	0.1
0.01	1	0.0046053270016273	1	105	NA	26.8172153919986	0	0.1	0.42	1	24.9851604599971	24.9897657869988	"4"	22031.989201187	22029.547054839	1.5	0.1
0.01	1	0.00400661499952548	1	105	NA	26.8172153919986	0	0.1	0.42	1	25.2189272369978	25.2229338519974	"4"	22031.989201187	22029.547054839	1.5	0.1
0.01	1	0.0588632079998206	1	105	NA	26.8172153919986	0	0.1	0.42	1	25.4525224649988	25.5113856729986	"4"	22031.989201187	22029.547054839	1.5	0.1
0.01	1	0.00456047700208728	1	105	NA	26.8172153919986	0	0.1	0.42	1	25.7364075499972	25.7409680269993	"4"	22031.989201187	22029.547054839	1.5	0.1
0.01	1	0.00461489500230527	1	105	NA	26.8172153919986	0	0.1	0.42	1	25.9701517699978	25.9747666650001	"4"	22031.989201187	22029.547054839	1.5	0.1
0.01	1	0.00461605199961923	1	105	NA	26.8172153919986	0	0.1	0.42	1	26.2038705699997	26.2084866219993	"4"	22031.989201187	22029.547054839	1.5	0.1
0.01	1	0.00392924700281583	1	105	NA	26.8172153919986	0	0.1	0.42	1	26.437514604997	26.4414438519998	"4"	22031.989201187	22029.547054839	1.5	0.1
0.01	1	0.144184050001058	2	105	NA	26.8172153919986	0	0.1	0.42	1	26.6713470199975	26.8155310699985	"4"	22031.989201187	22029.547054839	1.5	0.1
0.01	1	0.43831552499978	1	73	NA	31.9544815150002	0	0.09	0.51	1	28.858366176999	29.2966817019988	"5"	22031.989201187	22029.547054839	1.5	0.1
0.01	1	0.00395397099782713	1	73	NA	31.9544815150002	0	0.09	0.51	1	29.5261022369996	29.5300562079974	"5"	22031.989201187	22029.547054839	1.5	0.1
0.01	1	0.0875677230033034	1	73	NA	31.9544815150002	0	0.09	0.51	1	29.7598140569971	29.8473817800004	"5"	22031.989201187	22029.547054839	1.5	0.1
0.01	1	0.00378957599968999	1	73	NA	31.9544815150002	0	0.09	0.51	1	30.07700587	30.0807954459997	"5"	22031.989201187	22029.547054839	1.5	0.1
0.01	1	0.0882893540001533	1	73	NA	31.9544815150002	0	0.09	0.51	1	30.3107647699981	30.3990541239982	"5"	22031.989201187	22029.547054839	1.5	0.1
0.01	1	0.00393583700133604	1	73	NA	31.9544815150002	0	0.09	0.51	1	30.6279191769972	30.6318550139986	"5"	22031.989201187	22029.547054839	1.5	0.1
0.01	1	0.00376070199854439	1	73	NA	31.9544815150002	0	0.09	0.51	1	30.8617461100002	30.8655068119988	"5"	22031.989201187	22029.547054839	1.5	0.1
0.01	1	0.00403110699699027	1	73	NA	31.9544815150002	0	0.09	0.51	1	31.0955051450001	31.0995362519971	"5"	22031.989201187	22029.547054839	1.5	0.1
0.01	1	0.125854505997268	1	73	NA	31.9544815150002	0	0.09	0.51	1	31.3291264750005	31.4549809809978	"5"	22031.989201187	22029.547054839	1.5	0.1
0.01	1	0.273044159999699	2	73	NA	31.9544815150002	0	0.09	0.51	1	31.6797551499985	31.9527993099982	"5"	22031.989201187	22029.547054839	1.5	0.1
0.01	1	0.527037710002332	1	45	NA	37.5862117359975	0	0.08	0.59	1	34.0003019269971	34.5273396369994	"6"	22031.989201187	22029.547054839	1.5	0.1
0.01	1	0.327164600999822	1	45	NA	37.5862117359975	0	0.08	0.59	1	34.7682576279985	35.0954222289984	"6"	22031.989201187	22029.547054839	1.5	0.1
0.01	1	0.248462609000853	1	45	NA	37.5862117359975	0	0.08	0.59	1	35.3192240449971	35.567686653998	"6"	22031.989201187	22029.547054839	1.5	0.1
0.01	1	0.180333074000373	1	45	NA	37.5862117359975	0	0.08	0.59	1	35.8033862369994	35.9837193109997	"6"	22031.989201187	22029.547054839	1.5	0.1
0.01	1	0.139518007999868	1	45	NA	37.5862117359975	0	0.08	0.59	1	36.2207149749993	36.3602329829992	"6"	22031.989201187	22029.547054839	1.5	0.1
0.01	1	0.140251393000653	1	45	NA	37.5862117359975	0	0.08	0.59	1	36.5879888599993	36.728240253	"6"	22031.989201187	22029.547054839	1.5	0.1
0.01	1	0.0446185170003446	1	45	NA	37.5862117359975	0	0.08	0.59	1	36.9553126129977	36.999931129998	"6"	22031.989201187	22029.547054839	1.5	0.1
0.01	1	0.0733746529986092	1	45	NA	37.5862117359975	0	0.08	0.59	1	37.2224238089984	37.295798461997	"6"	22031.989201187	22029.547054839	1.5	0.1
0.01	1	0.0616270989994518	2	45	NA	37.5862117359975	0	0.08	0.59	1	37.5229015900004	37.5845286889999	"6"	22031.989201187	22029.547054839	1.5	0.1
0.01	1	0.573818388998916	1	10	43.235533477	NA	1	0	0.59	1	39.6264148699993	40.2002332589982	"7"	22031.989201187	22029.547054839	1.5	0.1
0.01	1	0.0919291050013271	1	10	43.235533477	NA	1	0	0.59	1	40.4278414949986	40.5197705999999	"7"	22031.989201187	22029.547054839	1.5	0.1
0.01	1	0.0706757850020949	1	10	43.235533477	NA	1	0	0.59	1	40.7449968369983	40.8156726220004	"7"	22031.989201187	22029.547054839	1.5	0.1
0.01	1	0.0664463309985877	1	10	43.235533477	NA	1	0	0.59	1	41.0454547049994	41.111901035998	"7"	22031.989201187	22029.547054839	1.5	0.1
0.01	1	0.0933960769980331	1	10	43.235533477	NA	1	0	0.59	1	41.3460162049996	41.4394122819976	"7"	22031.989201187	22029.547054839	1.5	0.1
0.01	1	0.136659383002552	1	10	43.235533477	NA	1	0	0.59	1	41.6632120769973	41.7998714599998	"7"	22031.989201187	22029.547054839	1.5	0.1
0.01	1	0.0891050589998486	1	10	43.235533477	NA	1	0	0.59	1	42.030492818998	42.1195978779979	"7"	22031.989201187	22029.547054839	1.5	0.1
0.01	1	0.0602771289995871	1	10	43.235533477	NA	1	0	0.59	1	42.3477380570002	42.4080151859998	"7"	22031.989201187	22029.547054839	1.5	0.1
0.01	1	0.175466239998059	1	10	43.235533477	NA	1	0	0.59	1	42.6314818020001	42.8069480419981	"7"	22031.989201187	22029.547054839	1.5	0.1
0.01	1	0.0963327970021055	1	10	43.235533477	NA	1	0	0.59	1	43.0322478649978	43.1285806619999	"7"	22031.989201187	22029.547054839	1.5	0.1
0.01	1	0.762039939996612	1	37	NA	48.7299144719982	0	0.08	0.67	1	45.2859724150003	46.0480123549969	"8"	22031.989201187	22029.547054839	1.5	0.1
0.01	1	0.183356427001854	1	37	NA	48.7299144719982	0	0.08	0.67	1	46.2876247329987	46.4709811600005	"8"	22031.989201187	22029.547054839	1.5	0.1
0.01	1	0.0869182269998419	1	37	NA	48.7299144719982	0	0.08	0.67	1	46.7050159649989	46.7919341919987	"8"	22031.989201187	22029.547054839	1.5	0.1
0.01	1	0.0822903250009404	1	37	NA	48.7299144719982	0	0.08	0.67	1	47.022180609998	47.104470934999	"8"	22031.989201187	22029.547054839	1.5	0.1
0.01	1	0.0364839520007081	1	37	NA	48.7299144719982	0	0.08	0.67	1	47.3395246849977	47.3760086369984	"8"	22031.989201187	22029.547054839	1.5	0.1
0.01	1	0.00392507699871203	1	37	NA	48.7299144719982	0	0.08	0.67	1	47.606606854999	47.6105319319977	"8"	22031.989201187	22029.547054839	1.5	0.1
0.01	1	0.199617604997911	1	37	NA	48.7299144719982	0	0.08	0.67	1	47.8402413149997	48.0398589199976	"8"	22031.989201187	22029.547054839	1.5	0.1
0.01	1	0.10224575599932	1	37	NA	48.7299144719982	0	0.08	0.67	1	48.2743002719981	48.3765460279974	"8"	22031.989201187	22029.547054839	1.5	0.1
0.01	1	0.119946273000096	2	37	NA	48.7299144719982	0	0.08	0.67	1	48.6082840499985	48.7282303229986	"8"	22031.989201187	22029.547054839	1.5	0.1
0.01	1	0.44572628899914	1	108	NA	52.4661417309981	0	0.04	0.71	1	50.7785244299994	51.2242507189985	"9"	22031.989201187	22029.547054839	1.5	0.1
0.01	1	0.0975507299990568	1	108	NA	52.4661417309981	0	0.04	0.71	1	51.4630350299994	51.5605857599985	"9"	22031.989201187	22029.547054839	1.5	0.1
0.01	1	0.034343480001553	1	108	NA	52.4661417309981	0	0.04	0.71	1	51.7969101169983	51.8312535969999	"9"	22031.989201187	22029.547054839	1.5	0.1
0.01	1	0.00354901999889989	1	108	NA	52.4661417309981	0	0.04	0.71	1	52.0640725599987	52.0676215799976	"9"	22031.989201187	22029.547054839	1.5	0.1
0.01	1	0.166709315999469	2	108	NA	52.4661417309981	0	0.04	0.71	1	52.2977623219995	52.4644716379989	"9"	22031.989201187	22029.547054839	1.5	0.1
0.01	1	0.419396198998584	1	18	NA	55.7687617179981	0	0.03	0.74	1	54.501487087	54.9208832859986	"10"	22031.989201187	22029.547054839	1.5	0.1
0.01	1	0.0305806249998568	1	18	NA	55.7687617179981	0	0.03	0.74	1	55.1524945669989	55.1830751919988	"10"	22031.989201187	22029.547054839	1.5	0.1
0.01	1	0.00695497100241482	1	18	NA	55.7687617179981	0	0.03	0.74	1	55.419643596997	55.4265985679995	"10"	22031.989201187	22029.547054839	1.5	0.1
0.01	1	0.113759073003166	2	18	NA	55.7687617179981	0	0.03	0.74	1	55.6533195649972	55.7670786380004	"10"	22031.989201187	22029.547054839	1.5	0.1
0.01	1	0.368016742999316	1	2	58.527929885	NA	1	0	0.74	1	57.807102808998	58.1751195519973	"11"	22031.989201187	22029.547054839	1.5	0.1
0.01	1	0.00376751600197167	1	2	58.527929885	NA	1	0	0.74	1	58.4080022819981	58.411769798	"11"	22031.989201187	22029.547054839	1.5	0.1
0.01	1	0.575166549999267	1	107	NA	62.1946528909975	0	0.03	0.77	1	60.5615851869989	61.1367517369981	"12"	22031.989201187	22029.547054839	1.5	0.1
0.01	1	0.109528876000695	1	107	NA	62.1946528909975	0	0.03	0.77	1	61.3630235849996	61.4725524610003	"12"	22031.989201187	22029.547054839	1.5	0.1
0.01	1	0.109368165001797	1	107	NA	62.1946528909975	0	0.03	0.77	1	61.7135328669974	61.8229010319992	"12"	22031.989201187	22029.547054839	1.5	0.1
0.01	1	0.145103073999053	2	107	NA	62.1946528909975	0	0.03	0.77	1	62.0474130000002	62.1925160739993	"12"	22031.989201187	22029.547054839	1.5	0.1
0.01	1	0.0541302800011181	1	119	NA	65.1538601479988	0	0.03	0.8	1	64.2177296849986	64.2718599649997	"13"	22031.989201187	22029.547054839	1.5	0.1
0.01	1	0.0574345639979583	1	119	NA	65.1538601479988	0	0.03	0.8	1	64.5017069530004	64.5591415169984	"13"	22031.989201187	22029.547054839	1.5	0.1
0.01	1	0.0861163829977158	1	119	NA	65.1538601479988	0	0.03	0.8	1	64.7854926250002	64.8716090079979	"13"	22031.989201187	22029.547054839	1.5	0.1
0.01	1	0.0495424600012484	2	119	NA	65.1538601479988	0	0.03	0.8	1	65.1026286969973	65.1521711569985	"13"	22031.989201187	22029.547054839	1.5	0.1
0.01	1	0.00391909799873247	1	71	NA	68.3685946659971	0	0.04	0.84	1	67.1894825300005	67.1934016279993	"14"	22031.989201187	22029.547054839	1.5	0.1
0.01	1	0.0253944880023482	1	71	NA	68.3685946659971	0	0.04	0.84	1	67.4232515749973	67.4486460629996	"14"	22031.989201187	22029.547054839	1.5	0.1
0.01	1	0.0623566959984601	1	71	NA	68.3685946659971	0	0.04	0.84	1	67.6735682670005	67.735924962999	"14"	22031.989201187	22029.547054839	1.5	0.1
0.01	1	0.0416139779990772	1	71	NA	68.3685946659971	0	0.04	0.84	1	67.9740770399985	68.0156910179976	"14"	22031.989201187	22029.547054839	1.5	0.1
0.01	1	0.125553496000066	2	71	NA	68.3685946659971	0	0.04	0.84	1	68.2413577499974	68.3669112459975	"14"	22031.989201187	22029.547054839	1.5	0.1
0.01	1	0.356082192000031	1	32	NA	72.7458560969972	0	0.07	0.91	1	70.3948732299978	70.7509554219978	"15"	22031.989201187	22029.547054839	1.5	0.1
0.01	1	0.0525514399996609	1	32	NA	72.7458560969972	0	0.07	0.91	1	70.9792100619998	71.0317615019994	"15"	22031.989201187	22029.547054839	1.5	0.1
0.01	1	0.032030787999247	1	32	NA	72.7458560969972	0	0.07	0.91	1	71.2630528299997	71.2950836179989	"15"	22031.989201187	22029.547054839	1.5	0.1
0.01	1	0.00662917099907645	1	32	NA	72.7458560969972	0	0.07	0.91	1	71.530075355	71.5367045259991	"15"	22031.989201187	22029.547054839	1.5	0.1
0.01	1	0.0282209169999987	1	32	NA	72.7458560969972	0	0.07	0.91	1	71.7638117049974	71.7920326219974	"15"	22031.989201187	22029.547054839	1.5	0.1
0.01	1	0.0248100999997405	1	32	NA	72.7458560969972	0	0.07	0.91	1	72.01426928	72.0390793799997	"15"	22031.989201187	22029.547054839	1.5	0.1
0.01	1	0.0227773000005982	1	32	NA	72.7458560969972	0	0.07	0.91	1	72.2647626569997	72.2875399570003	"15"	22031.989201187	22029.547054839	1.5	0.1
0.01	1	0.229013084001053	2	32	NA	72.7458560969972	0	0.07	0.91	1	72.515137729999	72.744150814	"15"	22031.989201187	22029.547054839	1.5	0.1
0.01	1	0.57350713499909	1	7	NA	77.2329177309985	0	0.05	0.96	1	74.7856942699982	75.3592014049973	"16"	22031.989201187	22029.547054839	1.5	0.1
0.01	1	0.109051620001992	1	7	NA	77.2329177309985	0	0.05	0.96	1	75.5869666199978	75.6960182399998	"16"	22031.989201187	22029.547054839	1.5	0.1
0.01	1	0.0626847269995778	1	7	NA	77.2329177309985	0	0.05	0.96	1	75.9375271049976	76.0002118319971	"16"	22031.989201187	22029.547054839	1.5	0.1
0.01	1	0.0585709039987705	1	7	NA	77.2329177309985	0	0.05	0.96	1	76.2380039870004	76.2965748909992	"16"	22031.989201187	22029.547054839	1.5	0.1
0.01	1	0.00460355499672005	1	7	NA	77.2329177309985	0	0.05	0.96	1	76.5218717200005	76.5264752749972	"16"	22031.989201187	22029.547054839	1.5	0.1
0.01	1	0.475582020000729	2	7	NA	77.2329177309985	0	0.05	0.96	1	76.7556478049992	77.2312298249999	"16"	22031.989201187	22029.547054839	1.5	0.1
0.01	1	0.0269190489998437	1	49	NA	81.3368052769983	0	0.06	1.02	1	79.2764806800005	79.3033997290004	"17"	22031.989201187	22029.547054839	1.5	0.1
0.01	1	0.0651582379978208	1	49	NA	81.3368052769983	0	0.06	1.02	1	79.5268521399994	79.5920103779972	"17"	22031.989201187	22029.547054839	1.5	0.1
0.01	1	0.0517062520011677	1	49	NA	81.3368052769983	0	0.06	1.02	1	79.8274248649977	79.8791311169989	"17"	22031.989201187	22029.547054839	1.5	0.1
0.01	1	0.0638040939993516	1	49	NA	81.3368052769983	0	0.06	1.02	1	80.1111639769988	80.1749680709981	"17"	22031.989201187	22029.547054839	1.5	0.1
0.01	1	0.0442736619988864	1	49	NA	81.3368052769983	0	0.06	1.02	1	80.4117096769987	80.4559833389976	"17"	22031.989201187	22029.547054839	1.5	0.1
0.01	1	0.169444888000726	1	49	NA	81.3368052769983	0	0.06	1.02	1	80.6787754479992	80.8482203359999	"17"	22031.989201187	22029.547054839	1.5	0.1
0.01	1	0.255596227998467	2	49	NA	81.3368052769983	0	0.06	1.02	1	81.0795249149996	81.3351211429981	"17"	22031.989201187	22029.547054839	1.5	0.1
0.01	1	0.480320095000934	1	17	NA	86.2662580449978	0	0.06	1.08	1	83.3833508969983	83.8636709919992	"18"	22031.989201187	22029.547054839	1.5	0.1
0.01	1	0.0658860150033433	1	17	NA	86.2662580449978	0	0.06	1.08	1	84.1013320949969	84.1672181100002	"18"	22031.989201187	22029.547054839	1.5	0.1
0.01	1	0.1175109600008	1	17	NA	86.2662580449978	0	0.06	1.08	1	84.4017720849988	84.5192830449996	"18"	22031.989201187	22029.547054839	1.5	0.1
0.01	1	0.0549559329992917	1	17	NA	86.2662580449978	0	0.06	1.08	1	84.7523655449986	84.8073214779979	"18"	22031.989201187	22029.547054839	1.5	0.1
0.01	1	0.123135706999165	1	17	NA	86.2662580449978	0	0.06	1.08	1	85.0361576869982	85.1592933939974	"18"	22031.989201187	22029.547054839	1.5	0.1
0.01	1	0.132754343998386	1	17	NA	86.2662580449978	0	0.06	1.08	1	85.3867248329989	85.5194791769973	"18"	22031.989201187	22029.547054839	1.5	0.1
0.01	1	0.510425428998133	2	17	NA	86.2662580449978	0	0.06	1.08	1	85.7541471799996	86.2645726089977	"18"	22031.989201187	22029.547054839	1.5	0.1
0.01	1	0.00435072999971453	1	20	NA	89.8413536219996	0	0.05	1.13	1	88.3083870749979	88.3127378049976	"19"	22031.989201187	22029.547054839	1.5	0.1
0.01	1	0.0265041060010844	1	20	NA	89.8413536219996	0	0.05	1.13	1	88.5420424419972	88.5685465479983	"19"	22031.989201187	22029.547054839	1.5	0.1
0.01	1	0.0705876519969024	1	20	NA	89.8413536219996	0	0.05	1.13	1	88.8091246570002	88.8797123089971	"19"	22031.989201187	22029.547054839	1.5	0.1
0.01	1	0.185355458001141	1	20	NA	89.8413536219996	0	0.05	1.13	1	89.1096689699989	89.295024428	"19"	22031.989201187	22029.547054839	1.5	0.1
0.01	1	0.0415046900016023	1	20	NA	89.8413536219996	0	0.05	1.13	1	89.526981914998	89.5684866049996	"19"	22031.989201187	22029.547054839	1.5	0.1
0.01	1	0.0455921659995511	2	20	NA	89.8413536219996	0	0.05	1.13	1	89.7940750419984	89.839667207998	"19"	22031.989201187	22029.547054839	1.5	0.1
0.01	1	0.206506680999155	1	21	NA	93.2391422619985	0	0.05	1.18	1	91.8643604249992	92.0708671059983	"20"	22031.989201187	22029.547054839	1.5	0.1
0.01	1	0.00366870499783545	1	21	NA	93.2391422619985	0	0.05	1.18	1	92.298359245	92.3020279499979	"20"	22031.989201187	22029.547054839	1.5	0.1
0.01	1	0.00459892000071704	1	21	NA	93.2391422619985	0	0.05	1.18	1	92.5321627349986	92.5367616549993	"20"	22031.989201187	22029.547054839	1.5	0.1
0.01	1	0.00388674100031494	1	21	NA	93.2391422619985	0	0.05	1.18	1	92.7659177669993	92.7698045079997	"20"	22031.989201187	22029.547054839	1.5	0.1
0.01	1	0.00400009099757881	1	21	NA	93.2391422619985	0	0.05	1.18	1	92.9995652649995	93.0035653559971	"20"	22031.989201187	22029.547054839	1.5	0.1
0.01	1	0.00395179699989967	2	21	NA	93.2391422619985	0	0.05	1.18	1	93.2333451669983	93.2372969639982	"20"	22031.989201187	22029.547054839	1.5	0.1
0.01	1	0.0815710820024833	1	26	NA	99.4647399189998	0	0.05	1.23	1	95.270078759997	95.3516498419995	"21"	22031.989201187	22029.547054839	1.5	0.1
0.01	1	0.00395348000165541	1	26	NA	99.4647399189998	0	0.05	1.23	1	95.587296761998	95.5912502419997	"21"	22031.989201187	22029.547054839	1.5	0.1
0.01	1	0.00394958900142228	1	26	NA	99.4647399189998	0	0.05	1.23	1	95.8209530869972	95.8249026759986	"21"	22031.989201187	22029.547054839	1.5	0.1
0.01	1	0.0036571320015355	1	26	NA	99.4647399189998	0	0.05	1.23	1	96.0546080319982	96.0582651639997	"21"	22031.989201187	22029.547054839	1.5	0.1
0.01	1	0.00376056299865013	1	26	NA	99.4647399189998	0	0.05	1.23	1	96.2884905270002	96.2922510899989	"21"	22031.989201187	22029.547054839	1.5	0.1
0.01	1	2.9409903420019	2	26	NA	99.4647399189998	0	0.05	1.23	1	96.5221250959985	99.4631154380004	"21"	22031.989201187	22029.547054839	1.5	0.1
0.01	1	0.541327853999974	1	97	NA	103.753625320998	0	0.06	1.29	1	101.513836639999	102.055164493999	"22"	22031.989201187	22029.547054839	1.5	0.1
0.01	1	0.00390905200038105	1	97	NA	103.753625320998	0	0.06	1.29	1	102.281853279997	102.285762331998	"22"	22031.989201187	22029.547054839	1.5	0.1
0.01	1	0.00469604000318213	1	97	NA	103.753625320998	0	0.06	1.29	1	102.515609914997	102.520305955	"22"	22031.989201187	22029.547054839	1.5	0.1
0.01	1	0.115372935000778	1	97	NA	103.753625320998	0	0.06	1.29	1	102.749311027997	102.864683962998	"22"	22031.989201187	22029.547054839	1.5	0.1
0.01	1	0.0037444180015882	1	97	NA	103.753625320998	0	0.06	1.29	1	103.099916349998	103.103660768	"22"	22031.989201187	22029.547054839	1.5	0.1
0.01	1	0.0900143350008875	1	97	NA	103.753625320998	0	0.06	1.29	1	103.333651459998	103.423665794999	"22"	22031.989201187	22029.547054839	1.5	0.1
0.01	1	0.101142684998194	2	97	NA	103.753625320998	0	0.06	1.29	1	103.650797478	103.751940162998	"22"	22031.989201187	22029.547054839	1.5	0.1
0.01	1	0.243829367998842	1	118	NA	107.713045273998	0	0.06	1.35	1	105.78772009	106.031549457999	"23"	22031.989201187	22029.547054839	1.5	0.1
0.01	1	0.104665631999524	1	118	NA	107.713045273998	0	0.06	1.35	1	106.271899784999	106.376565416998	"23"	22031.989201187	22029.547054839	1.5	0.1
0.01	1	0.00365869700181065	1	118	NA	107.713045273998	0	0.06	1.35	1	106.605820214998	106.609478912	"23"	22031.989201187	22029.547054839	1.5	0.1
0.01	1	0.072975826999027	1	118	NA	107.713045273998	0	0.06	1.35	1	106.839516058	106.912491884999	"23"	22031.989201187	22029.547054839	1.5	0.1
0.01	1	0.00461593699947116	1	118	NA	107.713045273998	0	0.06	1.35	1	107.13999643	107.144612366999	"23"	22031.989201187	22029.547054839	1.5	0.1
0.01	1	0.107067664997885	1	118	NA	107.713045273998	0	0.06	1.35	1	107.373692555	107.480760219998	"23"	22031.989201187	22029.547054839	1.5	0.1
0.01	1	0.00356838500010781	2	118	NA	107.713045273998	0	0.06	1.35	1	107.707644355	107.71121274	"23"	22031.989201187	22029.547054839	1.5	0.1
0.01	1	0.159461156999896	1	100	NA	111.787160794	0	0.07	1.42	1	109.761077816998	109.920538973998	"24"	22031.989201187	22029.547054839	1.5	0.1
0.01	1	0.00455269500162103	1	100	NA	111.787160794	0	0.07	1.42	1	110.161830534998	110.16638323	"24"	22031.989201187	22029.547054839	1.5	0.1
0.01	1	0.109147011000459	1	100	NA	111.787160794	0	0.07	1.42	1	110.395513146999	110.504660158	"24"	22031.989201187	22029.547054839	1.5	0.1
0.01	1	0.00338852999993833	1	100	NA	111.787160794	0	0.07	1.42	1	110.729457234	110.732845764	"24"	22031.989201187	22029.547054839	1.5	0.1
0.01	1	0.00390693200097303	1	100	NA	111.787160794	0	0.07	1.42	1	110.963061081999	110.966968014	"24"	22031.989201187	22029.547054839	1.5	0.1
0.01	1	0.122121251999488	1	100	NA	111.787160794	0	0.07	1.42	1	111.196774521999	111.318895773999	"24"	22031.989201187	22029.547054839	1.5	0.1
0.01	1	0.00356839999949443	1	100	NA	111.787160794	0	0.07	1.42	1	111.54739553	111.55096393	"24"	22031.989201187	22029.547054839	1.5	0.1
0.01	1	0.00406622899754439	2	100	NA	111.787160794	0	0.07	1.42	1	111.781255767	111.785321995998	"24"	22031.989201187	22029.547054839	1.5	0.1
0.01	1	0.340592864999053	1	46	NA	117.315900263999	0	0.13	1.55	1	113.834644859999	114.175237724998	"25"	22031.989201187	22029.547054839	1.5	0.1
0.01	1	0.00221811899973545	1	46	NA	117.315900263999	0	0.13	1.55	1	114.402190904999	114.404409023999	"25"	22031.989201187	22029.547054839	1.5	0.1
0.01	1	0.00355216800016933	1	46	NA	117.315900263999	0	0.13	1.55	1	114.63602455	114.639576718	"25"	22031.989201187	22029.547054839	1.5	0.1
0.01	1	0.00382363300013822	1	46	NA	117.315900263999	0	0.13	1.55	1	114.869684704998	114.873508337998	"25"	22031.989201187	22029.547054839	1.5	0.1
0.01	1	0.00415418299962766	1	46	NA	117.315900263999	0	0.13	1.55	1	115.103348631998	115.107502814997	"25"	22031.989201187	22029.547054839	1.5	0.1
0.01	1	0.03915871999925	1	46	NA	117.315900263999	0	0.13	1.55	1	115.337195101998	115.376353821997	"25"	22031.989201187	22029.547054839	1.5	0.1
0.01	1	0.0135516980008106	1	46	NA	117.315900263999	0	0.13	1.55	1	115.604289439998	115.617841137999	"25"	22031.989201187	22029.547054839	1.5	0.1
0.01	1	0.00371701600306551	1	46	NA	117.315900263999	0	0.13	1.55	1	115.854587439997	115.858304456	"25"	22031.989201187	22029.547054839	1.5	0.1
0.01	1	0.00955023099959362	1	46	NA	117.315900263999	0	0.13	1.55	1	116.088519101999	116.098069332998	"25"	22031.989201187	22029.547054839	1.5	0.1
0.01	1	0.045453571001417	1	46	NA	117.315900263999	0	0.13	1.55	1	116.322102966999	116.367556538	"25"	22031.989201187	22029.547054839	1.5	0.1
0.01	1	0.00402026499796193	1	46	NA	117.315900263999	0	0.13	1.55	1	116.605828165	116.609848429998	"25"	22031.989201187	22029.547054839	1.5	0.1
0.01	1	0.00467804200161481	1	46	NA	117.315900263999	0	0.13	1.55	1	116.839604714998	116.844282757	"25"	22031.989201187	22029.547054839	1.5	0.1
0.01	1	0.00386945799982641	1	46	NA	117.315900263999	0	0.13	1.55	1	117.07334318	117.077212638	"25"	22031.989201187	22029.547054839	1.5	0.1
0.01	1	0.0069943059970683	2	46	NA	117.315900263999	0	0.13	1.55	1	117.307137582	117.314131887997	"25"	22031.989201187	22029.547054839	1.5	0.1
0.01	1	0.103097029001219	1	102	NA	122.409650514997	0	0.09	1.64	1	119.360584079997	119.463681108999	"26"	22031.989201187	22029.547054839	1.5	0.1
0.01	1	0.00468769699728	1	102	NA	122.409650514997	0	0.09	1.64	1	119.69447559	119.699163286998	"26"	22031.989201187	22029.547054839	1.5	0.1
0.01	1	0.00384567299988703	1	102	NA	122.409650514997	0	0.09	1.64	1	119.928153214998	119.931998887998	"26"	22031.989201187	22029.547054839	1.5	0.1
0.01	1	0.00459601300099166	1	102	NA	122.409650514997	0	0.09	1.64	1	120.162000871998	120.166596884999	"26"	22031.989201187	22029.547054839	1.5	0.1
0.01	1	0.0285970600016299	1	102	NA	122.409650514997	0	0.09	1.64	1	120.395605689999	120.42420275	"26"	22031.989201187	22029.547054839	1.5	0.1
0.01	1	0.0266157629994268	1	102	NA	122.409650514997	0	0.09	1.64	1	120.646064475	120.672680238	"26"	22031.989201187	22029.547054839	1.5	0.1
0.01	1	0.00942922200192697	1	102	NA	122.409650514997	0	0.09	1.64	1	120.896524706997	120.905953928999	"26"	22031.989201187	22029.547054839	1.5	0.1
0.01	1	0.0135522769996896	1	102	NA	122.409650514997	0	0.09	1.64	1	121.130225404999	121.143777681998	"26"	22031.989201187	22029.547054839	1.5	0.1
0.01	1	0.011706237000908	1	102	NA	122.409650514997	0	0.09	1.64	1	121.380675314998	121.392381551999	"26"	22031.989201187	22029.547054839	1.5	0.1
0.01	1	0.793660888000886	2	102	NA	122.409650514997	0	0.09	1.64	1	121.614297814998	122.407958702999	"26"	22031.989201187	22029.547054839	1.5	0.1
0.01	1	0.00227916099902359	1	120	NA	129.490142586998	0	0.1	1.74	1	124.452422561	124.454701721999	"27"	22031.989201187	22029.547054839	1.5	0.1
0.01	1	0.23448425099923	1	120	NA	129.490142586998	0	0.1	1.74	1	124.686205899998	124.920690150997	"27"	22031.989201187	22029.547054839	1.5	0.1
0.01	1	0.261356660001184	1	120	NA	129.490142586998	0	0.1	1.74	1	125.153658576997	125.415015236998	"27"	22031.989201187	22029.547054839	1.5	0.1
0.01	1	0.274252500999864	1	120	NA	129.490142586998	0	0.1	1.74	1	125.637798065	125.912050565999	"27"	22031.989201187	22029.547054839	1.5	0.1
0.01	1	0.293680274000508	1	120	NA	129.490142586998	0	0.1	1.74	1	126.138672998997	126.432353272998	"27"	22031.989201187	22029.547054839	1.5	0.1
0.01	1	0.280066834002355	1	120	NA	129.490142586998	0	0.1	1.74	1	126.656197509998	126.936264344	"27"	22031.989201187	22029.547054839	1.5	0.1
0.01	1	0.250204760999623	1	120	NA	129.490142586998	0	0.1	1.74	1	127.173632629998	127.423837390998	"27"	22031.989201187	22029.547054839	1.5	0.1
0.01	1	0.246113993998733	1	120	NA	129.490142586998	0	0.1	1.74	1	127.657884017	127.903998010999	"27"	22031.989201187	22029.547054839	1.5	0.1
0.01	1	0.314066677998198	1	120	NA	129.490142586998	0	0.1	1.74	1	128.142049347	128.456116024998	"27"	22031.989201187	22029.547054839	1.5	0.1
0.01	1	0.23535731100128	1	120	NA	129.490142586998	0	0.1	1.74	1	128.692903619998	128.928260930999	"27"	22031.989201187	22029.547054839	1.5	0.1
0.01	1	0.328045630001725	2	120	NA	129.490142586998	0	0.1	1.74	1	129.160411763998	129.488457394	"27"	22031.989201187	22029.547054839	1.5	0.1
0.01	1	0.164757870003086	1	44	NA	132.972150411999	0	0.05	1.79	1	131.531080819997	131.695838690001	"28"	22031.989201187	22029.547054839	1.5	0.1
0.01	1	0.00368133899974055	1	44	NA	132.972150411999	0	0.05	1.79	1	131.931686214997	131.935367553997	"28"	22031.989201187	22029.547054839	1.5	0.1
0.01	1	0.00450719199943705	1	44	NA	132.972150411999	0	0.05	1.79	1	132.165412342998	132.169919534997	"28"	22031.989201187	22029.547054839	1.5	0.1
0.01	1	0.00396040299892775	1	44	NA	132.972150411999	0	0.05	1.79	1	132.399087037	132.403047439999	"28"	22031.989201187	22029.547054839	1.5	0.1
0.01	1	0.102684854999097	1	44	NA	132.972150411999	0	0.05	1.79	1	132.632843864998	132.735528719997	"28"	22031.989201187	22029.547054839	1.5	0.1
0.01	1	0.00364149099914357	2	44	NA	132.972150411999	0	0.05	1.79	1	132.966678946999	132.970320437998	"28"	22031.989201187	22029.547054839	1.5	0.1
0.01	1	0.0434237580011541	1	75	NA	137.225931243	0	0.09	1.88	1	135.003519456997	135.046943214998	"29"	22031.989201187	22029.547054839	1.5	0.1
0.01	1	0.0105481249993318	1	75	NA	137.225931243	0	0.09	1.88	1	135.287328053	135.297876178	"29"	22031.989201187	22029.547054839	1.5	0.1
0.01	1	0.00818482300019241	1	75	NA	137.225931243	0	0.09	1.88	1	135.521039345	135.529224168	"29"	22031.989201187	22029.547054839	1.5	0.1
0.01	1	0.00822001499909675	1	75	NA	137.225931243	0	0.09	1.88	1	135.754725985	135.762945999999	"29"	22031.989201187	22029.547054839	1.5	0.1
0.01	1	0.00370495300012408	1	75	NA	137.225931243	0	0.09	1.88	1	135.988584044997	135.992288997997	"29"	22031.989201187	22029.547054839	1.5	0.1
0.01	1	0.00378904699755367	1	75	NA	137.225931243	0	0.09	1.88	1	136.222171767	136.225960813998	"29"	22031.989201187	22029.547054839	1.5	0.1
0.01	1	0.00398730800225167	1	75	NA	137.225931243	0	0.09	1.88	1	136.455917799998	136.459905108	"29"	22031.989201187	22029.547054839	1.5	0.1
0.01	1	0.00461694200203056	1	75	NA	137.225931243	0	0.09	1.88	1	136.689796814997	136.694413756999	"29"	22031.989201187	22029.547054839	1.5	0.1
0.01	1	0.00458775999868521	1	75	NA	137.225931243	0	0.09	1.88	1	136.923364089998	136.927951849997	"29"	22031.989201187	22029.547054839	1.5	0.1
0.01	1	0.067091052998876	2	75	NA	137.225931243	0	0.09	1.88	1	137.157156255998	137.224247308997	"29"	22031.989201187	22029.547054839	1.5	0.1
0.01	1	0.043537550001929	1	61	NA	142.145695417999	0	0.12	2	1	139.277355086997	139.320892636999	"30"	22031.989201187	22029.547054839	1.5	0.1
0.01	1	0.0036040659979335	1	61	NA	142.145695417999	0	0.12	2	1	139.561183282	139.564787347997	"30"	22031.989201187	22029.547054839	1.5	0.1
0.01	1	0.00404236699978355	1	61	NA	142.145695417999	0	0.12	2	1	139.794937535	139.798979902	"30"	22031.989201187	22029.547054839	1.5	0.1
0.01	1	0.00463520499761216	1	61	NA	142.145695417999	0	0.12	2	1	140.028693655	140.033328859998	"30"	22031.989201187	22029.547054839	1.5	0.1
0.01	1	0.00386683300166624	1	61	NA	142.145695417999	0	0.12	2	1	140.262289326998	140.26615616	"30"	22031.989201187	22029.547054839	1.5	0.1
0.01	1	0.00378371699844138	1	61	NA	142.145695417999	0	0.12	2	1	140.496094624999	140.499878341998	"30"	22031.989201187	22029.547054839	1.5	0.1
0.01	1	0.00464833200021531	1	61	NA	142.145695417999	0	0.12	2	1	140.729897944999	140.734546276999	"30"	22031.989201187	22029.547054839	1.5	0.1
0.01	1	0.00395515899799648	1	61	NA	142.145695417999	0	0.12	2	1	140.963581467	140.967536625998	"30"	22031.989201187	22029.547054839	1.5	0.1
0.01	1	0.00397252199763898	1	61	NA	142.145695417999	0	0.12	2	1	141.19730584	141.201278361998	"30"	22031.989201187	22029.547054839	1.5	0.1
0.01	1	0.0038122010009829	1	61	NA	142.145695417999	0	0.12	2	1	141.430974086998	141.434786287999	"30"	22031.989201187	22029.547054839	1.5	0.1
0.01	1	0.00356273500074167	1	61	NA	142.145695417999	0	0.12	2	1	141.664659244998	141.668221979999	"30"	22031.989201187	22029.547054839	1.5	0.1
0.01	1	0.00388787100018817	1	61	NA	142.145695417999	0	0.12	2	1	141.898528596997	141.902416467998	"30"	22031.989201187	22029.547054839	1.5	0.1
0.01	1	0.0118637150007999	2	61	NA	142.145695417999	0	0.12	2	1	142.132146726999	142.144010442	"30"	22031.989201187	22029.547054839	1.5	0.1
