"payoff.level"	"balloon"	"rt"	"resp"	"explode.trial"	"explode.time"	"finish.time"	"exploded"	"trial.total"	"cumulative.total"	"finished"	"trial.start"	"trial.end"	"trial.num"	"secs"	"start.time"	"iti"	"isi"
0.01	1	2.5784881489999	1	64	NA	6.29680409800039	0	0.03	0.03	1	0.0201573570002438	2.59864550600014	"1"	5627.708220608	5541.878235045	1.5	0.1
0.01	1	0.711341094999625	1	64	NA	6.29680409800039	0	0.03	0.03	1	2.97523099299997	3.68657208799959	"1"	5627.708220608	5541.878235045	1.5	0.1
0.01	1	1.43284864899942	1	64	NA	6.29680409800039	0	0.03	0.03	1	3.9101790450004	5.34302769399983	"1"	5627.708220608	5541.878235045	1.5	0.1
0.01	1	0.715527592000399	2	64	NA	6.29680409800039	0	0.03	0.03	1	5.57969779999985	6.29522539200025	"1"	5627.708220608	5541.878235045	1.5	0.1
0.01	1	0.864351332999831	1	102	NA	12.3684795290001	0	0.04	0.07	1	8.35087068499979	9.21522201799962	"2"	5627.708220608	5541.878235045	1.5	0.1
0.01	1	0.769489412999974	1	102	NA	12.3684795290001	0	0.04	0.07	1	9.45272223800021	10.2222116510002	"2"	5627.708220608	5541.878235045	1.5	0.1
0.01	1	0.44007839599999	1	102	NA	12.3684795290001	0	0.04	0.07	1	10.4544479730002	10.8945263690002	"2"	5627.708220608	5541.878235045	1.5	0.1
0.01	1	0.596716365999782	1	102	NA	12.3684795290001	0	0.04	0.07	1	11.1222797230002	11.718996089	"2"	5627.708220608	5541.878235045	1.5	0.1
0.01	1	0.409903904999737	2	102	NA	12.3684795290001	0	0.04	0.07	1	11.9569843529998	12.3668882579996	"2"	5627.708220608	5541.878235045	1.5	0.1
0.01	1	1.17863473800026	1	97	NA	18.1286959210001	0	0.05	0.12	1	14.4277172279999	15.6063519660001	"3"	5627.708220608	5541.878235045	1.5	0.1
0.01	1	0.240302971999881	1	97	NA	18.1286959210001	0	0.05	0.12	1	15.8467794930002	16.0870824650001	"3"	5627.708220608	5541.878235045	1.5	0.1
0.01	1	0.268309965999833	1	97	NA	18.1286959210001	0	0.05	0.12	1	16.3143012480004	16.5826112140003	"3"	5627.708220608	5541.878235045	1.5	0.1
0.01	1	0.239966402999926	1	97	NA	18.1286959210001	0	0.05	0.12	1	16.8151113630001	17.0550777660001	"3"	5627.708220608	5541.878235045	1.5	0.1
0.01	1	0.21195046199955	1	97	NA	18.1286959210001	0	0.05	0.12	1	17.2826042650004	17.4945547269999	"3"	5627.708220608	5541.878235045	1.5	0.1
0.01	1	0.410453769999549	2	97	NA	18.1286959210001	0	0.05	0.12	1	17.7166486850001	18.1271024549997	"3"	5627.708220608	5541.878235045	1.5	0.1
0.01	1	0.556320142000004	1	51	NA	23.8647247680001	0	0.07	0.19	1	20.1707047979999	20.7270249399999	"4"	5627.708220608	5541.878235045	1.5	0.1
0.01	1	0.259002681000311	1	51	NA	23.8647247680001	0	0.07	0.19	1	20.9555895129997	21.214592194	"4"	5627.708220608	5541.878235045	1.5	0.1
0.01	1	0.2154084900003	1	51	NA	23.8647247680001	0	0.07	0.19	1	21.4396174679996	21.6550259579999	"4"	5627.708220608	5541.878235045	1.5	0.1
0.01	1	0.196713969000484	1	51	NA	23.8647247680001	0	0.07	0.19	1	21.8902655399997	22.0869795090002	"4"	5627.708220608	5541.878235045	1.5	0.1
0.01	1	0.146215812000264	1	51	NA	23.8647247680001	0	0.07	0.19	1	22.3243623979997	22.47057821	"4"	5627.708220608	5541.878235045	1.5	0.1
0.01	1	0.202645856999879	1	51	NA	23.8647247680001	0	0.07	0.19	1	22.7084273780001	22.911073235	"4"	5627.708220608	5541.878235045	1.5	0.1
0.01	1	0.1766561179993	1	51	NA	23.8647247680001	0	0.07	0.19	1	23.1424634880004	23.3191196059997	"4"	5627.708220608	5541.878235045	1.5	0.1
0.01	1	0.320119744999829	2	51	NA	23.8647247680001	0	0.07	0.19	1	23.5430359800002	23.8631557250001	"4"	5627.708220608	5541.878235045	1.5	0.1
0.01	1	0.973171379000632	1	116	NA	30.2159689749997	0	0.07	0.26	1	25.9138099829997	26.8869813620004	"5"	5627.708220608	5541.878235045	1.5	0.1
0.01	1	0.291158768000059	1	116	NA	30.2159689749997	0	0.07	0.26	1	27.1158220329999	27.4069808009999	"5"	5627.708220608	5541.878235045	1.5	0.1
0.01	1	0.157517334000659	1	116	NA	30.2159689749997	0	0.07	0.26	1	27.6333348199996	27.7908521540003	"5"	5627.708220608	5541.878235045	1.5	0.1
0.01	1	0.23756867999964	1	116	NA	30.2159689749997	0	0.07	0.26	1	28.0173374550004	28.2549061350001	"5"	5627.708220608	5541.878235045	1.5	0.1
0.01	1	0.226306298000054	1	116	NA	30.2159689749997	0	0.07	0.26	1	28.4847489399999	28.711055238	"5"	5627.708220608	5541.878235045	1.5	0.1
0.01	1	0.238963687000251	1	116	NA	30.2159689749997	0	0.07	0.26	1	28.9522210249997	29.191184712	"5"	5627.708220608	5541.878235045	1.5	0.1
0.01	1	0.162551690000328	1	116	NA	30.2159689749997	0	0.07	0.26	1	29.4197437579996	29.582295448	"5"	5627.708220608	5541.878235045	1.5	0.1
0.01	1	0.394102680999822	2	116	NA	30.2159689749997	0	0.07	0.26	1	29.8203270849999	30.2144297659997	"5"	5627.708220608	5541.878235045	1.5	0.1
0.01	1	0.469453281999449	1	118	NA	38.4001285579998	0	0.11	0.37	1	32.2411255750003	32.7105788569997	"6"	5627.708220608	5541.878235045	1.5	0.1
0.01	1	0.560367790999408	1	118	NA	38.4001285579998	0	0.11	0.37	1	32.9423248880003	33.5026926789997	"6"	5627.708220608	5541.878235045	1.5	0.1
0.01	1	0.367855768000481	1	118	NA	38.4001285579998	0	0.11	0.37	1	33.7269765649999	34.0948323330003	"6"	5627.708220608	5541.878235045	1.5	0.1
0.01	1	0.206456204999995	1	118	NA	38.4001285579998	0	0.11	0.37	1	34.327928273	34.534384478	"6"	5627.708220608	5541.878235045	1.5	0.1
0.01	1	0.285050336000495	1	118	NA	38.4001285579998	0	0.11	0.37	1	34.7619414379997	35.0469917740002	"6"	5627.708220608	5541.878235045	1.5	0.1
0.01	1	0.207333862000269	1	118	NA	38.4001285579998	0	0.11	0.37	1	35.2796029430001	35.4869368050004	"6"	5627.708220608	5541.878235045	1.5	0.1
0.01	1	0.108809511999425	1	118	NA	38.4001285579998	0	0.11	0.37	1	35.7136280450004	35.8224375569998	"6"	5627.708220608	5541.878235045	1.5	0.1
0.01	1	0.127196206000008	1	118	NA	38.4001285579998	0	0.11	0.37	1	36.0474544429999	36.1746506489999	"6"	5627.708220608	5541.878235045	1.5	0.1
0.01	1	0.159480999000152	1	118	NA	38.4001285579998	0	0.11	0.37	1	36.4147823980002	36.5742633970003	"6"	5627.708220608	5541.878235045	1.5	0.1
0.01	1	0.231616406000285	1	118	NA	38.4001285579998	0	0.11	0.37	1	36.7988068730001	37.0304232790004	"6"	5627.708220608	5541.878235045	1.5	0.1
0.01	1	0.284541863000413	1	118	NA	38.4001285579998	0	0.11	0.37	1	37.2661703379999	37.5507122010004	"6"	5627.708220608	5541.878235045	1.5	0.1
0.01	1	0.614885448999303	2	118	NA	38.4001285579998	0	0.11	0.37	1	37.7837594230004	38.3986448719997	"6"	5627.708220608	5541.878235045	1.5	0.1
0.01	1	0.423278774999744	1	87	NA	44.9127712520003	0	0.1	0.47	1	40.4549395479999	40.8782183229996	"7"	5627.708220608	5541.878235045	1.5	0.1
0.01	1	0.1964913719994	1	87	NA	44.9127712520003	0	0.1	0.47	1	41.1060235200002	41.3025148919996	"7"	5627.708220608	5541.878235045	1.5	0.1
0.01	1	0.114562399000533	1	87	NA	44.9127712520003	0	0.1	0.47	1	41.5400848179997	41.6546472170003	"7"	5627.708220608	5541.878235045	1.5	0.1
0.01	1	0.0521075770002426	1	87	NA	44.9127712520003	0	0.1	0.47	1	41.89070584	41.9428134170003	"7"	5627.708220608	5541.878235045	1.5	0.1
0.01	1	0.144523670000126	1	87	NA	44.9127712520003	0	0.1	0.47	1	42.1744877880001	42.3190114580002	"7"	5627.708220608	5541.878235045	1.5	0.1
0.01	1	0.128812785000264	1	87	NA	44.9127712520003	0	0.1	0.47	1	42.5418052229998	42.670618008	"7"	5627.708220608	5541.878235045	1.5	0.1
0.01	1	0.105337777000386	1	87	NA	44.9127712520003	0	0.1	0.47	1	42.9090727729999	43.0144105500003	"7"	5627.708220608	5541.878235045	1.5	0.1
0.01	1	0.067220498000097	1	87	NA	44.9127712520003	0	0.1	0.47	1	43.2429787250003	43.3101992230004	"7"	5627.708220608	5541.878235045	1.5	0.1
0.01	1	0.0954555180005627	1	87	NA	44.9127712520003	0	0.1	0.47	1	43.5434421729997	43.6388976910002	"7"	5627.708220608	5541.878235045	1.5	0.1
0.01	1	0.11376466999991	1	87	NA	44.9127712520003	0	0.1	0.47	1	43.877336562	43.9911012319999	"7"	5627.708220608	5541.878235045	1.5	0.1
0.01	1	0.683225929999935	2	87	NA	44.9127712520003	0	0.1	0.47	1	44.2279256929996	44.9111516229996	"7"	5627.708220608	5541.878235045	1.5	0.1
0.01	1	0.689198897999631	1	6	50.4255039879999	NA	1	0	0.47	1	46.9659422650002	47.6551411629998	"8"	5627.708220608	5541.878235045	1.5	0.1
0.01	1	1.0984014859996	1	6	50.4255039879999	NA	1	0	0.47	1	47.8840783980004	48.982479884	"8"	5627.708220608	5541.878235045	1.5	0.1
0.01	1	0.0430930279999302	1	6	50.4255039879999	NA	1	0	0.47	1	49.21963839	49.2627314179999	"8"	5627.708220608	5541.878235045	1.5	0.1
0.01	1	0.280317572000058	1	6	50.4255039879999	NA	1	0	0.47	1	49.4868060099998	49.7671235819998	"8"	5627.708220608	5541.878235045	1.5	0.1
0.01	1	0.041976884000178	1	6	50.4255039879999	NA	1	0	0.47	1	50.0043507849996	50.0463276689998	"8"	5627.708220608	5541.878235045	1.5	0.1
0.01	1	0.0310817149993454	1	6	50.4255039879999	NA	1	0	0.47	1	50.2714474900004	50.3025292049997	"8"	5627.708220608	5541.878235045	1.5	0.1
0.01	1	0.403493112999968	1	106	NA	54.3602938180002	0	0.03	0.5	1	52.4751328049997	52.8786259179997	"9"	5627.708220608	5541.878235045	1.5	0.1
0.01	1	0.0654380320002019	1	106	NA	54.3602938180002	0	0.03	0.5	1	53.1095964249998	53.175034457	"9"	5627.708220608	5541.878235045	1.5	0.1
0.01	1	0.100424763000774	1	106	NA	54.3602938180002	0	0.03	0.5	1	53.4100534279996	53.5104781910004	"9"	5627.708220608	5541.878235045	1.5	0.1
0.01	1	0.614849384999616	2	106	NA	54.3602938180002	0	0.03	0.5	1	53.7439583300002	54.3588077149998	"9"	5627.708220608	5541.878235045	1.5	0.1
0.01	1	0.464562613999988	1	21	NA	58.8958622580003	0	0.03	0.53	1	56.3983406799998	56.8629032939998	"10"	5627.708220608	5541.878235045	1.5	0.1
0.01	1	0.443213346999983	1	21	NA	58.8958622580003	0	0.03	0.53	1	57.0995948279997	57.5428081749997	"10"	5627.708220608	5541.878235045	1.5	0.1
0.01	1	0.263066002999949	1	21	NA	58.8958622580003	0	0.03	0.53	1	57.7673220799998	58.0303880829997	"10"	5627.708220608	5541.878235045	1.5	0.1
0.01	1	0.62609723300011	2	21	NA	58.8958622580003	0	0.03	0.53	1	58.2682893589999	58.894386592	"10"	5627.708220608	5541.878235045	1.5	0.1
0.01	1	0.219706776999374	1	19	NA	63.104541527	0	0.04	0.57	1	60.9394401830004	61.1591469599998	"11"	5627.708220608	5541.878235045	1.5	0.1
0.01	1	0.264257566999731	1	19	NA	63.104541527	0	0.04	0.57	1	61.3902122700001	61.6544698369999	"11"	5627.708220608	5541.878235045	1.5	0.1
0.01	1	0.211490110999875	1	19	NA	63.104541527	0	0.04	0.57	1	61.8909431020002	62.102433213	"11"	5627.708220608	5541.878235045	1.5	0.1
0.01	1	0.241235775999485	1	19	NA	63.104541527	0	0.04	0.57	1	62.3250390080002	62.5662747839997	"11"	5627.708220608	5541.878235045	1.5	0.1
0.01	1	0.310503320999487	2	19	NA	63.104541527	0	0.04	0.57	1	62.7925062450004	63.1030095659999	"11"	5627.708220608	5541.878235045	1.5	0.1
0.01	1	0.492037434999474	1	63	NA	68.7683254599997	0	0.05	0.62	1	65.1464140300004	65.6384514649999	"12"	5627.708220608	5541.878235045	1.5	0.1
0.01	1	0.310613268999987	1	63	NA	68.7683254599997	0	0.05	0.62	1	65.8643458910001	66.1749591600001	"12"	5627.708220608	5541.878235045	1.5	0.1
0.01	1	0.343286533000537	1	63	NA	68.7683254599997	0	0.05	0.62	1	66.4153468349996	66.7586333680001	"12"	5627.708220608	5541.878235045	1.5	0.1
0.01	1	0.488017015999503	1	63	NA	68.7683254599997	0	0.05	0.62	1	66.9828276950002	67.4708447109997	"12"	5627.708220608	5541.878235045	1.5	0.1
0.01	1	0.546135930000673	1	63	NA	68.7683254599997	0	0.05	0.62	1	67.7007333129995	68.2468692430002	"12"	5627.708220608	5541.878235045	1.5	0.1
0.01	1	0.298147884999707	2	63	NA	68.7683254599997	0	0.05	0.62	1	68.4686967130001	68.7668445979998	"12"	5627.708220608	5541.878235045	1.5	0.1
0.01	1	0.280396621999898	1	54	NA	72.9844696629998	0	0.04	0.66	1	70.8226237950003	71.1030204170002	"13"	5627.708220608	5541.878235045	1.5	0.1
0.01	1	0.266586558000199	1	54	NA	72.9844696629998	0	0.04	0.66	1	71.3402472050002	71.6068337630004	"13"	5627.708220608	5541.878235045	1.5	0.1
0.01	1	0.237300837000475	1	54	NA	72.9844696629998	0	0.04	0.66	1	71.8410545879997	72.0783554250002	"13"	5627.708220608	5541.878235045	1.5	0.1
0.01	1	0.169708678999996	1	54	NA	72.9844696629998	0	0.04	0.66	1	72.3085022280002	72.4782109070002	"13"	5627.708220608	5541.878235045	1.5	0.1
0.01	1	0.273743591999846	2	54	NA	72.9844696629998	0	0.04	0.66	1	72.7092391220003	72.9829827140002	"13"	5627.708220608	5541.878235045	1.5	0.1
0.01	1	1.12105417200019	1	103	NA	81.1119900849999	0	0.09	0.75	1	75.029813401	76.1508675730001	"14"	5627.708220608	5541.878235045	1.5	0.1
0.01	1	0.184727012000621	1	103	NA	81.1119900849999	0	0.09	0.75	1	76.3820535679997	76.5667805800003	"14"	5627.708220608	5541.878235045	1.5	0.1
0.01	1	0.159269493000465	1	103	NA	81.1119900849999	0	0.09	0.75	1	76.799354668	76.9586241610004	"14"	5627.708220608	5541.878235045	1.5	0.1
0.01	1	0.703227149000668	1	103	NA	81.1119900849999	0	0.09	0.75	1	77.1833843189997	77.8866114680004	"14"	5627.708220608	5541.878235045	1.5	0.1
0.01	1	0.520004355999845	1	103	NA	81.1119900849999	0	0.09	0.75	1	78.1183155899998	78.6383199459997	"14"	5627.708220608	5541.878235045	1.5	0.1
0.01	1	0.305373092999616	1	103	NA	81.1119900849999	0	0.09	0.75	1	78.8695116700001	79.1748847629997	"14"	5627.708220608	5541.878235045	1.5	0.1
0.01	1	0.227023098000245	1	103	NA	81.1119900849999	0	0.09	0.75	1	79.4037753599996	79.6307984579998	"14"	5627.708220608	5541.878235045	1.5	0.1
0.01	1	0.279558133000137	1	103	NA	81.1119900849999	0	0.09	0.75	1	79.871231485	80.1507896180001	"14"	5627.708220608	5541.878235045	1.5	0.1
0.01	1	0.2259777700001	1	103	NA	81.1119900849999	0	0.09	0.75	1	80.3887584779995	80.6147362479996	"14"	5627.708220608	5541.878235045	1.5	0.1
0.01	1	0.271035419000327	2	103	NA	81.1119900849999	0	0.09	0.75	1	80.8394758349996	81.1105112539999	"14"	5627.708220608	5541.878235045	1.5	0.1
0.01	1	0.614771545000622	1	120	NA	92.111778341	0	0.15	0.9	1	83.1434216919997	83.7581932370003	"15"	5627.708220608	5541.878235045	1.5	0.1
0.01	1	0.220019174999834	1	120	NA	92.111778341	0	0.15	0.9	1	83.994776218	84.2147953929998	"15"	5627.708220608	5541.878235045	1.5	0.1
0.01	1	0.369170148999729	1	120	NA	92.111778341	0	0.15	0.9	1	84.4455892229998	84.8147593719996	"15"	5627.708220608	5541.878235045	1.5	0.1
0.01	1	0.288274699000794	1	120	NA	92.111778341	0	0.15	0.9	1	85.0465899479996	85.3348646470004	"15"	5627.708220608	5541.878235045	1.5	0.1
0.01	1	0.258433015000264	1	120	NA	92.111778341	0	0.15	0.9	1	85.5641645429996	85.8225975579999	"15"	5627.708220608	5541.878235045	1.5	0.1
0.01	1	0.294027414999618	1	120	NA	92.111778341	0	0.15	0.9	1	86.0482630300003	86.3422904449999	"15"	5627.708220608	5541.878235045	1.5	0.1
0.01	1	0.28073923699958	1	120	NA	92.111778341	0	0.15	0.9	1	86.5657455680002	86.8464848049998	"15"	5627.708220608	5541.878235045	1.5	0.1
0.01	1	0.243511894000221	1	120	NA	92.111778341	0	0.15	0.9	1	87.0834078799999	87.3269197740001	"15"	5627.708220608	5541.878235045	1.5	0.1
0.01	1	0.423680575999242	1	120	NA	92.111778341	0	0.15	0.9	1	87.5507855980004	87.9744661739996	"15"	5627.708220608	5541.878235045	1.5	0.1
0.01	1	0.236192975000449	1	120	NA	92.111778341	0	0.15	0.9	1	88.2020022999995	88.438195275	"15"	5627.708220608	5541.878235045	1.5	0.1
0.01	1	0.337344788999872	1	120	NA	92.111778341	0	0.15	0.9	1	88.6694196429999	89.0067644319997	"15"	5627.708220608	5541.878235045	1.5	0.1
0.01	1	0.369929282999692	1	120	NA	92.111778341	0	0.15	0.9	1	89.236989305	89.6069185879996	"15"	5627.708220608	5541.878235045	1.5	0.1
0.01	1	0.345085922999715	1	120	NA	92.111778341	0	0.15	0.9	1	89.8379729850003	90.183058908	"15"	5627.708220608	5541.878235045	1.5	0.1
0.01	1	0.312009444000068	1	120	NA	92.111778341	0	0.15	0.9	1	90.4222460729998	90.7342555169998	"15"	5627.708220608	5541.878235045	1.5	0.1
0.01	1	0.522074831000282	1	120	NA	92.111778341	0	0.15	0.9	1	90.9566009629998	91.4786757940001	"15"	5627.708220608	5541.878235045	1.5	0.1
0.01	1	0.402440154000033	2	120	NA	92.111778341	0	0.15	0.9	1	91.7078602029997	92.1103003569997	"15"	5627.708220608	5541.878235045	1.5	0.1
0.01	1	0.500964961000136	1	109	NA	101.03203455	0	0.14	1.04	1	94.1619639410001	94.6629289020002	"16"	5627.708220608	5541.878235045	1.5	0.1
0.01	1	0.126455669000279	1	109	NA	101.03203455	0	0.14	1.04	1	94.8965116709996	95.0229673399999	"16"	5627.708220608	5541.878235045	1.5	0.1
0.01	1	0.303210754000247	1	109	NA	101.03203455	0	0.14	1.04	1	95.247040538	95.5502512920002	"16"	5627.708220608	5541.878235045	1.5	0.1
0.01	1	0.217637054999614	1	109	NA	101.03203455	0	0.14	1.04	1	95.7813978450004	95.9990349	"16"	5627.708220608	5541.878235045	1.5	0.1
0.01	1	0.198917269999583	1	109	NA	101.03203455	0	0.14	1.04	1	96.2321161700002	96.4310334399997	"16"	5627.708220608	5541.878235045	1.5	0.1
0.01	1	0.148577605000355	1	109	NA	101.03203455	0	0.14	1.04	1	96.66613048	96.8147080850003	"16"	5627.708220608	5541.878235045	1.5	0.1
0.01	1	0.132984282000507	1	109	NA	101.03203455	0	0.14	1.04	1	97.0501390549998	97.1831233370003	"16"	5627.708220608	5541.878235045	1.5	0.1
0.01	1	0.141073222000159	1	109	NA	101.03203455	0	0.14	1.04	1	97.4174197499997	97.5584929719998	"16"	5627.708220608	5541.878235045	1.5	0.1
0.01	1	0.150073550999878	1	109	NA	101.03203455	0	0.14	1.04	1	97.7846153150003	97.9346888660002	"16"	5627.708220608	5541.878235045	1.5	0.1
0.01	1	0.254459560000214	1	109	NA	101.03203455	0	0.14	1.04	1	98.168597418	98.4230569780002	"16"	5627.708220608	5541.878235045	1.5	0.1
0.01	1	0.185443761999522	1	109	NA	101.03203455	0	0.14	1.04	1	98.6528062130001	98.8382499749996	"16"	5627.708220608	5541.878235045	1.5	0.1
0.01	1	0.184125285999471	1	109	NA	101.03203455	0	0.14	1.04	1	99.0701542750003	99.2542795609997	"16"	5627.708220608	5541.878235045	1.5	0.1
0.01	1	0.391374638999878	1	109	NA	101.03203455	0	0.14	1.04	1	99.487627253	99.8790018919999	"16"	5627.708220608	5541.878235045	1.5	0.1
0.01	1	0.277161038000486	1	109	NA	101.03203455	0	0.14	1.04	1	100.105221123	100.382382161	"16"	5627.708220608	5541.878235045	1.5	0.1
0.01	1	0.424396921000152	2	109	NA	101.03203455	0	0.14	1.04	1	100.606143685	101.030540606	"16"	5627.708220608	5541.878235045	1.5	0.1
0.01	1	0.785472044000016	1	71	NA	110.624044912	0	0.14	1.18	1	103.076894048	103.862366092	"17"	5627.708220608	5541.878235045	1.5	0.1
0.01	1	0.183116074999816	1	71	NA	110.624044912	0	0.14	1.18	1	104.095294153	104.278410228	"17"	5627.708220608	5541.878235045	1.5	0.1
0.01	1	0.126208243999827	1	71	NA	110.624044912	0	0.14	1.18	1	104.512678788	104.638887032	"17"	5627.708220608	5541.878235045	1.5	0.1
0.01	1	0.311379163999845	1	71	NA	110.624044912	0	0.14	1.18	1	104.863256533	105.174635697	"17"	5627.708220608	5541.878235045	1.5	0.1
0.01	1	0.129411105000145	1	71	NA	110.624044912	0	0.14	1.18	1	105.397549058	105.526960163	"17"	5627.708220608	5541.878235045	1.5	0.1
0.01	1	0.225680493999789	1	71	NA	110.624044912	0	0.14	1.18	1	105.764702703	105.990383197	"17"	5627.708220608	5541.878235045	1.5	0.1
0.01	1	0.255253160999928	1	71	NA	110.624044912	0	0.14	1.18	1	106.215558708	106.470811869	"17"	5627.708220608	5541.878235045	1.5	0.1
0.01	1	0.163003714999832	1	71	NA	110.624044912	0	0.14	1.18	1	106.699650128	106.862653843	"17"	5627.708220608	5541.878235045	1.5	0.1
0.01	1	0.282222535000074	1	71	NA	110.624044912	0	0.14	1.18	1	107.100378728	107.382601263	"17"	5627.708220608	5541.878235045	1.5	0.1
0.01	1	0.164443022999876	1	71	NA	110.624044912	0	0.14	1.18	1	107.617832145	107.782275168	"17"	5627.708220608	5541.878235045	1.5	0.1
0.01	1	0.140281885999684	1	71	NA	110.624044912	0	0.14	1.18	1	108.018522995	108.158804881	"17"	5627.708220608	5541.878235045	1.5	0.1
0.01	1	0.108764974999758	1	71	NA	110.624044912	0	0.14	1.18	1	108.385859443	108.494624418	"17"	5627.708220608	5541.878235045	1.5	0.1
0.01	1	0.590439085000071	1	71	NA	110.624044912	0	0.14	1.18	1	108.719800353	109.310239438	"17"	5627.708220608	5541.878235045	1.5	0.1
0.01	1	0.413102813000478	1	71	NA	110.624044912	0	0.14	1.18	1	109.537790165	109.950892978	"17"	5627.708220608	5541.878235045	1.5	0.1
0.01	1	0.433648055000049	2	71	NA	110.624044912	0	0.14	1.18	1	110.18885692	110.622504975	"17"	5627.708220608	5541.878235045	1.5	0.1
0.01	1	0.0824553279999236	1	96	161.261518088	NA	1	0	1.18	1	112.659772493	112.742227821	"18"	5627.708220608	5541.878235045	1.5	0.1
0.01	1	0.261745232999601	1	96	161.261518088	NA	1	0	1.18	1	112.97694313	113.238688363	"18"	5627.708220608	5541.878235045	1.5	0.1
0.01	1	0.336639637999724	1	96	161.261518088	NA	1	0	1.18	1	113.47775393	113.814393568	"18"	5627.708220608	5541.878235045	1.5	0.1
0.01	1	0.337287561000267	1	96	161.261518088	NA	1	0	1.18	1	114.04535451	114.382642071	"18"	5627.708220608	5541.878235045	1.5	0.1
0.01	1	0.234117313999377	1	96	161.261518088	NA	1	0	1.18	1	114.613018863	114.847136177	"18"	5627.708220608	5541.878235045	1.5	0.1
0.01	1	0.269689253999786	1	96	161.261518088	NA	1	0	1.18	1	115.080524043	115.350213297	"18"	5627.708220608	5541.878235045	1.5	0.1
0.01	1	0.305420415999833	1	96	161.261518088	NA	1	0	1.18	1	115.58125621	115.886676626	"18"	5627.708220608	5541.878235045	1.5	0.1
0.01	1	0.307436973000222	1	96	161.261518088	NA	1	0	1.18	1	116.115598498	116.423035471	"18"	5627.708220608	5541.878235045	1.5	0.1
0.01	1	0.436860206000347	1	96	161.261518088	NA	1	0	1.18	1	116.649828115	117.086688321	"18"	5627.708220608	5541.878235045	1.5	0.1
0.01	1	0.280687593000039	1	96	161.261518088	NA	1	0	1.18	1	117.317547048	117.598234641	"18"	5627.708220608	5541.878235045	1.5	0.1
0.01	1	0.26763644499988	1	96	161.261518088	NA	1	0	1.18	1	117.835066218	118.102702663	"18"	5627.708220608	5541.878235045	1.5	0.1
0.01	1	0.239175430000614	1	96	161.261518088	NA	1	0	1.18	1	118.335834168	118.575009598	"18"	5627.708220608	5541.878235045	1.5	0.1
0.01	1	0.45928513600029	1	96	161.261518088	NA	1	0	1.18	1	118.803393458	119.262678594	"18"	5627.708220608	5541.878235045	1.5	0.1
0.01	1	0.350626378000015	1	96	161.261518088	NA	1	0	1.18	1	119.48791614	119.838542518	"18"	5627.708220608	5541.878235045	1.5	0.1
0.01	1	0.454134165999676	1	96	161.261518088	NA	1	0	1.18	1	120.072141748	120.526275914	"18"	5627.708220608	5541.878235045	1.5	0.1
0.01	1	0.298172494999562	1	96	161.261518088	NA	1	0	1.18	1	120.75663934	121.054811835	"18"	5627.708220608	5541.878235045	1.5	0.1
0.01	1	0.531644675999814	1	96	161.261518088	NA	1	0	1.18	1	121.29090265	121.822547326	"18"	5627.708220608	5541.878235045	1.5	0.1
0.01	1	0.403808037999625	1	96	161.261518088	NA	1	0	1.18	1	122.058819353	122.462627391	"18"	5627.708220608	5541.878235045	1.5	0.1
0.01	1	0.481456939999589	1	96	161.261518088	NA	1	0	1.18	1	122.693335983	123.174792923	"18"	5627.708220608	5541.878235045	1.5	0.1
0.01	1	0.299440207999396	1	96	161.261518088	NA	1	0	1.18	1	123.411213938	123.710654146	"18"	5627.708220608	5541.878235045	1.5	0.1
0.01	1	0.32521449000069	1	96	161.261518088	NA	1	0	1.18	1	123.945369685	124.270584175	"18"	5627.708220608	5541.878235045	1.5	0.1
0.01	1	0.358642662999955	1	96	161.261518088	NA	1	0	1.18	1	124.496253388	124.854896051	"18"	5627.708220608	5541.878235045	1.5	0.1
0.01	1	0.413713356999324	1	96	161.261518088	NA	1	0	1.18	1	125.080616721	125.494330078	"18"	5627.708220608	5541.878235045	1.5	0.1
0.01	1	0.298609022000164	1	96	161.261518088	NA	1	0	1.18	1	125.731702603	126.030311625	"18"	5627.708220608	5541.878235045	1.5	0.1
0.01	1	0.348726715000339	1	96	161.261518088	NA	1	0	1.18	1	126.26601589	126.614742605	"18"	5627.708220608	5541.878235045	1.5	0.1
0.01	1	0.324622803000238	1	96	161.261518088	NA	1	0	1.18	1	126.850290425	127.174913228	"18"	5627.708220608	5541.878235045	1.5	0.1
0.01	1	0.349603347000084	1	96	161.261518088	NA	1	0	1.18	1	127.401154018	127.750757365	"18"	5627.708220608	5541.878235045	1.5	0.1
0.01	1	0.308884269999908	1	96	161.261518088	NA	1	0	1.18	1	127.98549151	128.29437578	"18"	5627.708220608	5541.878235045	1.5	0.1
0.01	1	0.326446621999821	1	96	161.261518088	NA	1	0	1.18	1	128.519775963	128.846222585	"18"	5627.708220608	5541.878235045	1.5	0.1
0.01	1	0.440006587000425	1	96	161.261518088	NA	1	0	1.18	1	129.07073073	129.510737317	"18"	5627.708220608	5541.878235045	1.5	0.1
0.01	1	0.276315228000385	1	96	161.261518088	NA	1	0	1.18	1	129.738503738	130.014818966	"18"	5627.708220608	5541.878235045	1.5	0.1
0.01	1	0.334842038999341	1	96	161.261518088	NA	1	0	1.18	1	130.25606638	130.590908419	"18"	5627.708220608	5541.878235045	1.5	0.1
0.01	1	0.406828504000259	1	96	161.261518088	NA	1	0	1.18	1	130.823528008	131.230356512	"18"	5627.708220608	5541.878235045	1.5	0.1
0.01	1	0.292392805999953	1	96	161.261518088	NA	1	0	1.18	1	131.457977391	131.750370197	"18"	5627.708220608	5541.878235045	1.5	0.1
0.01	1	0.342956794999736	1	96	161.261518088	NA	1	0	1.18	1	131.975603468	132.318560263	"18"	5627.708220608	5541.878235045	1.5	0.1
0.01	1	0.31981350299975	1	96	161.261518088	NA	1	0	1.18	1	132.543186948	132.863000451	"18"	5627.708220608	5541.878235045	1.5	0.1
0.01	1	0.376269179000701	1	96	161.261518088	NA	1	0	1.18	1	133.094147958	133.470417137	"18"	5627.708220608	5541.878235045	1.5	0.1
0.01	1	0.318476218999422	1	96	161.261518088	NA	1	0	1.18	1	133.711777989	134.030254208	"18"	5627.708220608	5541.878235045	1.5	0.1
0.01	1	0.255817553999805	1	96	161.261518088	NA	1	0	1.18	1	134.262723453	134.518541007	"18"	5627.708220608	5541.878235045	1.5	0.1
0.01	1	0.331616551000479	1	96	161.261518088	NA	1	0	1.18	1	134.74683614	135.078452691	"18"	5627.708220608	5541.878235045	1.5	0.1
0.01	1	0.323826503999953	1	96	161.261518088	NA	1	0	1.18	1	135.314519985	135.638346489	"18"	5627.708220608	5541.878235045	1.5	0.1
0.01	1	0.300820203000512	1	96	161.261518088	NA	1	0	1.18	1	135.865446895	136.166267098	"18"	5627.708220608	5541.878235045	1.5	0.1
0.01	1	0.302867799000524	1	96	161.261518088	NA	1	0	1.18	1	136.399652272	136.702520071	"18"	5627.708220608	5541.878235045	1.5	0.1
0.01	1	0.296416487999522	1	96	161.261518088	NA	1	0	1.18	1	136.933987878	137.230404366	"18"	5627.708220608	5541.878235045	1.5	0.1
0.01	1	0.386327449999953	1	96	161.261518088	NA	1	0	1.18	1	137.46808381	137.85441126	"18"	5627.708220608	5541.878235045	1.5	0.1
0.01	1	0.264601378999942	1	96	161.261518088	NA	1	0	1.18	1	138.08591767	138.350519049	"18"	5627.708220608	5541.878235045	1.5	0.1
0.01	1	0.267553900999701	1	96	161.261518088	NA	1	0	1.18	1	138.586763428	138.854317329	"18"	5627.708220608	5541.878235045	1.5	0.1
0.01	1	0.278833207999924	1	96	161.261518088	NA	1	0	1.18	1	139.087606353	139.366439561	"18"	5627.708220608	5541.878235045	1.5	0.1
0.01	1	0.298530647000007	1	96	161.261518088	NA	1	0	1.18	1	139.588293758	139.886824405	"18"	5627.708220608	5541.878235045	1.5	0.1
0.01	1	0.308322997999312	1	96	161.261518088	NA	1	0	1.18	1	140.12253956	140.430862558	"18"	5627.708220608	5541.878235045	1.5	0.1
0.01	1	0.253408028999729	1	96	161.261518088	NA	1	0	1.18	1	140.656826628	140.910234657	"18"	5627.708220608	5541.878235045	1.5	0.1
0.01	1	0.338002039999992	1	96	161.261518088	NA	1	0	1.18	1	141.140929938	141.478931978	"18"	5627.708220608	5541.878235045	1.5	0.1
0.01	1	0.0019260850003775	1	96	161.261518088	NA	1	0	1.18	1	141.70858092	141.710507005	"18"	5627.708220608	5541.878235045	1.5	0.1
0.01	1	0.0562975979992189	1	96	161.261518088	NA	1	0	1.18	1	141.94239884	141.998696438	"18"	5627.708220608	5541.878235045	1.5	0.1
0.01	1	0.276153507000345	1	96	161.261518088	NA	1	0	1.18	1	142.226091498	142.502245005	"18"	5627.708220608	5541.878235045	1.5	0.1
0.01	1	0.247900373999983	1	96	161.261518088	NA	1	0	1.18	1	142.7270524	142.974952774	"18"	5627.708220608	5541.878235045	1.5	0.1
0.01	1	0.243192906000331	1	96	161.261518088	NA	1	0	1.18	1	143.211154348	143.454347254	"18"	5627.708220608	5541.878235045	1.5	0.1
0.01	1	0.264345354999932	1	96	161.261518088	NA	1	0	1.18	1	143.678512523	143.942857878	"18"	5627.708220608	5541.878235045	1.5	0.1
0.01	1	0.21955694799999	1	96	161.261518088	NA	1	0	1.18	1	144.179439878	144.398996826	"18"	5627.708220608	5541.878235045	1.5	0.1
0.01	1	0.240071248999811	1	96	161.261518088	NA	1	0	1.18	1	144.630152243	144.870223492	"18"	5627.708220608	5541.878235045	1.5	0.1
0.01	1	0.228565232999244	1	96	161.261518088	NA	1	0	1.18	1	145.09763196	145.326197193	"18"	5627.708220608	5541.878235045	1.5	0.1
0.01	1	0.266619592999632	1	96	161.261518088	NA	1	0	1.18	1	145.548351155	145.814970748	"18"	5627.708220608	5541.878235045	1.5	0.1
0.01	1	0.23737490700023	1	96	161.261518088	NA	1	0	1.18	1	146.049238433	146.28661334	"18"	5627.708220608	5541.878235045	1.5	0.1
0.01	1	0.250361845000043	1	96	161.261518088	NA	1	0	1.18	1	146.516781013	146.767142858	"18"	5627.708220608	5541.878235045	1.5	0.1
0.01	1	0.230227392000415	1	96	161.261518088	NA	1	0	1.18	1	147.00082219	147.231049582	"18"	5627.708220608	5541.878235045	1.5	0.1
0.01	1	0.274708554000426	1	96	161.261518088	NA	1	0	1.18	1	147.46836394	147.743072494	"18"	5627.708220608	5541.878235045	1.5	0.1
0.01	1	0.277426094000475	1	96	161.261518088	NA	1	0	1.18	1	147.96917272	148.246598814	"18"	5627.708220608	5541.878235045	1.5	0.1
0.01	1	0.248232522999388	1	96	161.261518088	NA	1	0	1.18	1	148.469964828	148.718197351	"18"	5627.708220608	5541.878235045	1.5	0.1
0.01	1	0.228401872999711	1	96	161.261518088	NA	1	0	1.18	1	148.954129693	149.182531566	"18"	5627.708220608	5541.878235045	1.5	0.1
0.01	1	0.249888983999881	1	96	161.261518088	NA	1	0	1.18	1	149.404872713	149.654761697	"18"	5627.708220608	5541.878235045	1.5	0.1
0.01	1	0.245525807000377	1	96	161.261518088	NA	1	0	1.18	1	149.889032018	150.134557825	"18"	5627.708220608	5541.878235045	1.5	0.1
0.01	1	0.250269446999482	1	96	161.261518088	NA	1	0	1.18	1	150.356500048	150.606769495	"18"	5627.708220608	5541.878235045	1.5	0.1
0.01	1	0.205728886000543	1	96	161.261518088	NA	1	0	1.18	1	150.840633188	151.046362074	"18"	5627.708220608	5541.878235045	1.5	0.1
0.01	1	0.291561924000234	1	96	161.261518088	NA	1	0	1.18	1	151.274707445	151.566269369	"18"	5627.708220608	5541.878235045	1.5	0.1
0.01	1	0.21480646100008	1	96	161.261518088	NA	1	0	1.18	1	151.79231264	152.007119101	"18"	5627.708220608	5541.878235045	1.5	0.1
0.01	1	0.203850827999304	1	96	161.261518088	NA	1	0	1.18	1	152.24295589	152.446806718	"18"	5627.708220608	5541.878235045	1.5	0.1
0.01	1	0.209527057999367	1	96	161.261518088	NA	1	0	1.18	1	152.677014945	152.886542003	"18"	5627.708220608	5541.878235045	1.5	0.1
0.01	1	0.183358204999422	1	96	161.261518088	NA	1	0	1.18	1	153.111081738	153.294439943	"18"	5627.708220608	5541.878235045	1.5	0.1
0.01	1	0.222294480000528	1	96	161.261518088	NA	1	0	1.18	1	153.5285341	153.75082858	"18"	5627.708220608	5541.878235045	1.5	0.1
0.01	1	0.235774241999934	1	96	161.261518088	NA	1	0	1.18	1	153.97929595	154.215070192	"18"	5627.708220608	5541.878235045	1.5	0.1
0.01	1	0.271977845999572	1	96	161.261518088	NA	1	0	1.18	1	154.446626803	154.718604649	"18"	5627.708220608	5541.878235045	1.5	0.1
0.01	1	0.195243004000076	1	96	161.261518088	NA	1	0	1.18	1	154.947532115	155.142775119	"18"	5627.708220608	5541.878235045	1.5	0.1
0.01	1	0.22522612100056	1	96	161.261518088	NA	1	0	1.18	1	155.381575578	155.606801699	"18"	5627.708220608	5541.878235045	1.5	0.1
0.01	1	0.237722473999384	1	96	161.261518088	NA	1	0	1.18	1	155.832549546	156.07027202	"18"	5627.708220608	5541.878235045	1.5	0.1
0.01	1	0.259105674000239	1	96	161.261518088	NA	1	0	1.18	1	156.299909433	156.559015107	"18"	5627.708220608	5541.878235045	1.5	0.1
0.01	1	0.21487102699939	1	96	161.261518088	NA	1	0	1.18	1	156.783922358	156.998793385	"18"	5627.708220608	5541.878235045	1.5	0.1
0.01	1	0.139833801999885	1	96	161.261518088	NA	1	0	1.18	1	157.234743215	157.374577017	"18"	5627.708220608	5541.878235045	1.5	0.1
0.01	1	0.16435529499995	1	96	161.261518088	NA	1	0	1.18	1	157.60203282	157.766388115	"18"	5627.708220608	5541.878235045	1.5	0.1
0.01	1	0.251722944999528	1	96	161.261518088	NA	1	0	1.18	1	158.002618718	158.254341663	"18"	5627.708220608	5541.878235045	1.5	0.1
0.01	1	0.295780439999362	1	96	161.261518088	NA	1	0	1.18	1	158.486815203	158.782595643	"18"	5627.708220608	5541.878235045	1.5	0.1
0.01	1	0.241699845000767	1	96	161.261518088	NA	1	0	1.18	1	159.021062755	159.2627626	"18"	5627.708220608	5541.878235045	1.5	0.1
0.01	1	0.254130030999477	1	96	161.261518088	NA	1	0	1.18	1	159.488549298	159.742679329	"18"	5627.708220608	5541.878235045	1.5	0.1
0.01	1	0.177758982999876	1	96	161.261518088	NA	1	0	1.18	1	159.972694525	160.150453508	"18"	5627.708220608	5541.878235045	1.5	0.1
0.01	1	0.20139349999954	1	96	161.261518088	NA	1	0	1.18	1	160.373515033	160.574908533	"18"	5627.708220608	5541.878235045	1.5	0.1
0.01	1	0.111039555000389	1	96	161.261518088	NA	1	0	1.18	1	160.8074744	160.918513955	"18"	5627.708220608	5541.878235045	1.5	0.1
0.01	1	0.00190703299995221	1	96	161.261518088	NA	1	0	1.18	1	161.14137021	161.143277243	"18"	5627.708220608	5541.878235045	1.5	0.1
0.01	1	0.750715807000233	1	91	NA	174.831933091	0	0.35	1.53	1	163.311653858	164.062369665	"19"	5627.708220608	5541.878235045	1.5	0.1
0.01	1	0.293723292000323	1	91	NA	174.831933091	0	0.35	1.53	1	164.296670688	164.59039398	"19"	5627.708220608	5541.878235045	1.5	0.1
0.01	1	0.104294564999691	1	91	NA	174.831933091	0	0.35	1.53	1	164.814183843	164.918478408	"19"	5627.708220608	5541.878235045	1.5	0.1
0.01	1	0.058998657000302	1	91	NA	174.831933091	0	0.35	1.53	1	165.148057349	165.207056006	"19"	5627.708220608	5541.878235045	1.5	0.1
0.01	1	0.239081805000751	1	91	NA	174.831933091	0	0.35	1.53	1	165.431811203	165.670893008	"19"	5627.708220608	5541.878235045	1.5	0.1
0.01	1	0.043062173999715	1	91	NA	174.831933091	0	0.35	1.53	1	165.899272838	165.942335012	"19"	5627.708220608	5541.878235045	1.5	0.1
0.01	1	0.112110048000432	1	91	NA	174.831933091	0	0.35	1.53	1	166.16639442	166.278504468	"19"	5627.708220608	5541.878235045	1.5	0.1
0.01	1	0.0572820099996534	1	91	NA	174.831933091	0	0.35	1.53	1	166.516966903	166.574248913	"19"	5627.708220608	5541.878235045	1.5	0.1
0.01	1	0.0141175529997781	1	91	NA	174.831933091	0	0.35	1.53	1	166.800814348	166.814931901	"19"	5627.708220608	5541.878235045	1.5	0.1
0.01	1	0.00159900800008472	1	91	NA	174.831933091	0	0.35	1.53	1	167.051197569	167.052796577	"19"	5627.708220608	5541.878235045	1.5	0.1
0.01	1	0.0974913549998746	1	91	NA	174.831933091	0	0.35	1.53	1	167.28491688	167.382408235	"19"	5627.708220608	5541.878235045	1.5	0.1
0.01	1	0.00138289000005898	1	91	NA	174.831933091	0	0.35	1.53	1	167.618836213	167.620219103	"19"	5627.708220608	5541.878235045	1.5	0.1
0.01	1	0.00966460200015717	1	91	NA	174.831933091	0	0.35	1.53	1	167.85259163	167.862256232	"19"	5627.708220608	5541.878235045	1.5	0.1
0.01	1	0.00192785499984893	1	91	NA	174.831933091	0	0.35	1.53	1	168.08634219	168.088270045	"19"	5627.708220608	5541.878235045	1.5	0.1
0.01	1	0.094372172000476	1	91	NA	174.831933091	0	0.35	1.53	1	168.320019958	168.41439213	"19"	5627.708220608	5541.878235045	1.5	0.1
0.01	1	0.297027677999722	1	91	NA	174.831933091	0	0.35	1.53	1	168.63719295	168.934220628	"19"	5627.708220608	5541.878235045	1.5	0.1
0.01	1	0.115332508000392	1	91	NA	174.831933091	0	0.35	1.53	1	169.171546318	169.286878826	"19"	5627.708220608	5541.878235045	1.5	0.1
0.01	1	0.0441138740006863	1	91	NA	174.831933091	0	0.35	1.53	1	169.522095398	169.566209272	"19"	5627.708220608	5541.878235045	1.5	0.1
0.01	1	0.0493656109993026	1	91	NA	174.831933091	0	0.35	1.53	1	169.789166448	169.838532059	"19"	5627.708220608	5541.878235045	1.5	0.1
0.01	1	0.00170288899971638	1	91	NA	174.831933091	0	0.35	1.53	1	170.072933768	170.074636657	"19"	5627.708220608	5541.878235045	1.5	0.1
0.01	1	0.131571359000191	1	91	NA	174.831933091	0	0.35	1.53	1	170.306707295	170.438278654	"19"	5627.708220608	5541.878235045	1.5	0.1
0.01	1	0.00594254699990415	1	91	NA	174.831933091	0	0.35	1.53	1	170.673958598	170.679901145	"19"	5627.708220608	5541.878235045	1.5	0.1
0.01	1	0.00130406599964772	1	91	NA	174.831933091	0	0.35	1.53	1	170.907693051	170.908997117	"19"	5627.708220608	5541.878235045	1.5	0.1
0.01	1	0.0727306150001823	1	91	NA	174.831933091	0	0.35	1.53	1	171.141604263	171.214334878	"19"	5627.708220608	5541.878235045	1.5	0.1
0.01	1	0.00138050799978373	1	91	NA	174.831933091	0	0.35	1.53	1	171.441961843	171.443342351	"19"	5627.708220608	5541.878235045	1.5	0.1
0.01	1	0.00191787000039767	1	91	NA	174.831933091	0	0.35	1.53	1	171.67566388	171.67758175	"19"	5627.708220608	5541.878235045	1.5	0.1
0.01	1	0.00247607999972388	1	91	NA	174.831933091	0	0.35	1.53	1	171.909405553	171.911881633	"19"	5627.708220608	5541.878235045	1.5	0.1
0.01	1	0.103589254999861	1	91	NA	174.831933091	0	0.35	1.53	1	172.143149528	172.246738783	"19"	5627.708220608	5541.878235045	1.5	0.1
0.01	1	0.201602796999396	1	91	NA	174.831933091	0	0.35	1.53	1	172.477050911	172.678653708	"19"	5627.708220608	5541.878235045	1.5	0.1
0.01	1	0.135073661999741	1	91	NA	174.831933091	0	0.35	1.53	1	172.91116449	173.046238152	"19"	5627.708220608	5541.878235045	1.5	0.1
0.01	1	0.0560500319998027	1	91	NA	174.831933091	0	0.35	1.53	1	173.278405778	173.33445581	"19"	5627.708220608	5541.878235045	1.5	0.1
0.01	1	0.0447550160006358	1	91	NA	174.831933091	0	0.35	1.53	1	173.562201553	173.606956569	"19"	5627.708220608	5541.878235045	1.5	0.1
0.01	1	0.00161818400010816	1	91	NA	174.831933091	0	0.35	1.53	1	173.829276909	173.830895093	"19"	5627.708220608	5541.878235045	1.5	0.1
0.01	1	0.00115701599952445	1	91	NA	174.831933091	0	0.35	1.53	1	174.063055335	174.064212351	"19"	5627.708220608	5541.878235045	1.5	0.1
0.01	1	0.00138586400044005	1	91	NA	174.831933091	0	0.35	1.53	1	174.296817939	174.298203803	"19"	5627.708220608	5541.878235045	1.5	0.1
0.01	1	0.299963335999564	2	91	NA	174.831933091	0	0.35	1.53	1	174.530439045	174.830402381	"19"	5627.708220608	5541.878235045	1.5	0.1
0.01	1	0.809848330999557	1	5	178.857394345	NA	1	0	1.53	1	176.884454883	177.694303214	"20"	5627.708220608	5541.878235045	1.5	0.1
0.01	1	0.0155019220001122	1	5	178.857394345	NA	1	0	1.53	1	177.91952814	177.935030062	"20"	5627.708220608	5541.878235045	1.5	0.1
0.01	1	0.00499691400000302	1	5	178.857394345	NA	1	0	1.53	1	178.170052393	178.175049307	"20"	5627.708220608	5541.878235045	1.5	0.1
0.01	1	0.106579682000302	1	5	178.857394345	NA	1	0	1.53	1	178.403677278	178.51025696	"20"	5627.708220608	5541.878235045	1.5	0.1
0.01	1	0.0132979299996805	1	5	178.857394345	NA	1	0	1.53	1	178.737588473	178.750886403	"20"	5627.708220608	5541.878235045	1.5	0.1
0.01	1	0.0830879029999778	1	123	NA	187.551991145	0	0.17	1.7	1	180.891215048	180.974302951	"21"	5627.708220608	5541.878235045	1.5	0.1
0.01	1	0.110135461999562	1	123	NA	187.551991145	0	0.17	1.7	1	181.208406853	181.318542315	"21"	5627.708220608	5541.878235045	1.5	0.1
0.01	1	0.136351264999576	1	123	NA	187.551991145	0	0.17	1.7	1	181.542357303	181.678708568	"21"	5627.708220608	5541.878235045	1.5	0.1
0.01	1	0.128787894000197	1	123	NA	187.551991145	0	0.17	1.7	1	181.909592778	182.038380672	"21"	5627.708220608	5541.878235045	1.5	0.1
0.01	1	0.122835685000609	1	123	NA	187.551991145	0	0.17	1.7	1	182.260125395	182.38296108	"21"	5627.708220608	5541.878235045	1.5	0.1
0.01	1	0.131842484000117	1	123	NA	187.551991145	0	0.17	1.7	1	182.610791573	182.742634057	"21"	5627.708220608	5541.878235045	1.5	0.1
0.01	1	0.116723570999966	1	123	NA	187.551991145	0	0.17	1.7	1	182.977992358	183.094715929	"21"	5627.708220608	5541.878235045	1.5	0.1
0.01	1	0.142072030999771	1	123	NA	187.551991145	0	0.17	1.7	1	183.32860169	183.470673721	"21"	5627.708220608	5541.878235045	1.5	0.1
0.01	1	0.279202700000496	1	123	NA	187.551991145	0	0.17	1.7	1	183.695894078	183.975096778	"21"	5627.708220608	5541.878235045	1.5	0.1
0.01	1	0.169276163000177	1	123	NA	187.551991145	0	0.17	1.7	1	184.21344013	184.382716293	"21"	5627.708220608	5541.878235045	1.5	0.1
0.01	1	0.112132770999779	1	123	NA	187.551991145	0	0.17	1.7	1	184.614153188	184.726285959	"21"	5627.708220608	5541.878235045	1.5	0.1
0.01	1	0.097663826999451	1	123	NA	187.551991145	0	0.17	1.7	1	184.964703505	185.062367332	"21"	5627.708220608	5541.878235045	1.5	0.1
0.01	1	0.124288605999936	1	123	NA	187.551991145	0	0.17	1.7	1	185.29860634	185.422894946	"21"	5627.708220608	5541.878235045	1.5	0.1
0.01	1	0.205321704000198	1	123	NA	187.551991145	0	0.17	1.7	1	185.649190388	185.854512092	"21"	5627.708220608	5541.878235045	1.5	0.1
0.01	1	0.195731090000663	1	123	NA	187.551991145	0	0.17	1.7	1	186.083134123	186.278865213	"21"	5627.708220608	5541.878235045	1.5	0.1
0.01	1	0.161033878000126	1	123	NA	187.551991145	0	0.17	1.7	1	186.517247883	186.678281761	"21"	5627.708220608	5541.878235045	1.5	0.1
0.01	1	0.200881722999839	1	123	NA	187.551991145	0	0.17	1.7	1	186.901350659	187.102232382	"21"	5627.708220608	5541.878235045	1.5	0.1
0.01	1	0.215107846000137	2	123	NA	187.551991145	0	0.17	1.7	1	187.335377668	187.550485514	"21"	5627.708220608	5541.878235045	1.5	0.1
0.01	1	0.408743344999493	1	81	NA	199.399820967	0	0.2	1.9	1	189.605845183	190.014588528	"22"	5627.708220608	5541.878235045	1.5	0.1
0.01	1	0.310770576999857	1	81	NA	199.399820967	0	0.2	1.9	1	190.240206598	190.550977175	"22"	5627.708220608	5541.878235045	1.5	0.1
0.01	1	0.247492895000505	1	81	NA	199.399820967	0	0.2	1.9	1	190.791143543	191.038636438	"22"	5627.708220608	5541.878235045	1.5	0.1
0.01	1	0.227641243999642	1	81	NA	199.399820967	0	0.2	1.9	1	191.275290925	191.502932169	"22"	5627.708220608	5541.878235045	1.5	0.1
0.01	1	0.192441115000292	1	81	NA	199.399820967	0	0.2	1.9	1	191.726021978	191.918463093	"22"	5627.708220608	5541.878235045	1.5	0.1
0.01	1	0.190767379000135	1	81	NA	199.399820967	0	0.2	1.9	1	192.14343792	192.334205299	"22"	5627.708220608	5541.878235045	1.5	0.1
0.01	1	0.18222258500009	1	81	NA	199.399820967	0	0.2	1.9	1	192.560756858	192.742979443	"22"	5627.708220608	5541.878235045	1.5	0.1
0.01	1	0.172839695000221	1	81	NA	199.399820967	0	0.2	1.9	1	192.978208003	193.151047698	"22"	5627.708220608	5541.878235045	1.5	0.1
0.01	1	0.260053558000436	1	81	NA	199.399820967	0	0.2	1.9	1	193.37885483	193.638908388	"22"	5627.708220608	5541.878235045	1.5	0.1
0.01	1	0.159226003000185	1	81	NA	199.399820967	0	0.2	1.9	1	193.879611305	194.038837308	"22"	5627.708220608	5541.878235045	1.5	0.1
0.01	1	0.182648770000014	1	81	NA	199.399820967	0	0.2	1.9	1	194.263694699	194.446343469	"22"	5627.708220608	5541.878235045	1.5	0.1
0.01	1	0.133231085999796	1	81	NA	199.399820967	0	0.2	1.9	1	194.681111863	194.814342949	"22"	5627.708220608	5541.878235045	1.5	0.1
0.01	1	0.222033330999693	1	81	NA	199.399820967	0	0.2	1.9	1	195.048342698	195.270376029	"22"	5627.708220608	5541.878235045	1.5	0.1
0.01	1	0.171329653999237	1	81	NA	199.399820967	0	0.2	1.9	1	195.498996848	195.670326502	"22"	5627.708220608	5541.878235045	1.5	0.1
0.01	1	0.186650061000364	1	81	NA	199.399820967	0	0.2	1.9	1	195.899827798	196.086477859	"22"	5627.708220608	5541.878235045	1.5	0.1
0.01	1	0.241485600000487	1	81	NA	199.399820967	0	0.2	1.9	1	196.317084298	196.558569898	"22"	5627.708220608	5541.878235045	1.5	0.1
0.01	1	0.221636733000196	1	81	NA	199.399820967	0	0.2	1.9	1	196.78462875	197.006265483	"22"	5627.708220608	5541.878235045	1.5	0.1
0.01	1	0.283416910000597	1	81	NA	199.399820967	0	0.2	1.9	1	197.235369902	197.518786812	"22"	5627.708220608	5541.878235045	1.5	0.1
0.01	1	0.437279324999508	1	81	NA	199.399820967	0	0.2	1.9	1	197.752933603	198.190212928	"22"	5627.708220608	5541.878235045	1.5	0.1
0.01	1	0.322103946000425	1	81	NA	199.399820967	0	0.2	1.9	1	198.420685638	198.742789584	"22"	5627.708220608	5541.878235045	1.5	0.1
0.01	1	0.426775466000436	2	81	NA	199.399820967	0	0.2	1.9	1	198.97154618	199.398321646	"22"	5627.708220608	5541.878235045	1.5	0.1
0.01	1	0.00191622500005906	1	117	NA	210.192040518	0	0.21	2.11	1	201.442416885	201.44433311	"23"	5627.708220608	5541.878235045	1.5	0.1
0.01	1	0.162749088000055	1	117	NA	210.192040518	0	0.21	2.11	1	201.676104763	201.838853851	"23"	5627.708220608	5541.878235045	1.5	0.1
0.01	1	0.226242134000131	1	117	NA	210.192040518	0	0.21	2.11	1	202.076788068	202.303030202	"23"	5627.708220608	5541.878235045	1.5	0.1
0.01	1	0.190984460999971	1	117	NA	210.192040518	0	0.21	2.11	1	202.52748957	202.718474031	"23"	5627.708220608	5541.878235045	1.5	0.1
0.01	1	0.00190637699961371	1	117	NA	210.192040518	0	0.21	2.11	1	202.944903028	202.946809405	"23"	5627.708220608	5541.878235045	1.5	0.1
0.01	1	0.148471380000046	1	117	NA	210.192040518	0	0.21	2.11	1	203.178600608	203.327071988	"23"	5627.708220608	5541.878235045	1.5	0.1
0.01	1	0.347663958999874	1	117	NA	210.192040518	0	0.21	2.11	1	203.562639633	203.910303592	"23"	5627.708220608	5541.878235045	1.5	0.1
0.01	1	0.155327737999869	1	117	NA	210.192040518	0	0.21	2.11	1	204.147056208	204.302383946	"23"	5627.708220608	5541.878235045	1.5	0.1
0.01	1	0.236010951000026	1	117	NA	210.192040518	0	0.21	2.11	1	204.531003423	204.767014374	"23"	5627.708220608	5541.878235045	1.5	0.1
0.01	1	0.136336450999806	1	117	NA	210.192040518	0	0.21	2.11	1	204.99842521	205.134761661	"23"	5627.708220608	5541.878235045	1.5	0.1
0.01	1	0.193073715000537	1	117	NA	210.192040518	0	0.21	2.11	1	205.365667798	205.558741513	"23"	5627.708220608	5541.878235045	1.5	0.1
0.01	1	0.183122113000536	1	117	NA	210.192040518	0	0.21	2.11	1	205.783078408	205.966200521	"23"	5627.708220608	5541.878235045	1.5	0.1
0.01	1	0.190508055999999	1	117	NA	210.192040518	0	0.21	2.11	1	206.200397063	206.390905119	"23"	5627.708220608	5541.878235045	1.5	0.1
0.01	1	0.172619845000554	1	117	NA	210.192040518	0	0.21	2.11	1	206.61784089	206.790460735	"23"	5627.708220608	5541.878235045	1.5	0.1
0.01	1	0.1806215229999	1	117	NA	210.192040518	0	0.21	2.11	1	207.018489783	207.199111306	"23"	5627.708220608	5541.878235045	1.5	0.1
0.01	1	0.171254387999397	1	117	NA	210.192040518	0	0.21	2.11	1	207.435820503	207.607074891	"23"	5627.708220608	5541.878235045	1.5	0.1
0.01	1	0.154420848999507	1	117	NA	210.192040518	0	0.21	2.11	1	207.836600925	207.991021774	"23"	5627.708220608	5541.878235045	1.5	0.1
0.01	1	0.258399709000514	1	117	NA	210.192040518	0	0.21	2.11	1	208.22053006	208.478929769	"23"	5627.708220608	5541.878235045	1.5	0.1
0.01	1	0.214094924999699	1	117	NA	210.192040518	0	0.21	2.11	1	208.70465976	208.918754685	"23"	5627.708220608	5541.878235045	1.5	0.1
0.01	1	0.162926971999696	1	117	NA	210.192040518	0	0.21	2.11	1	209.155510208	209.31843718	"23"	5627.708220608	5541.878235045	1.5	0.1
0.01	1	0.154216988999906	1	117	NA	210.192040518	0	0.21	2.11	1	209.556124213	209.710341202	"23"	5627.708220608	5541.878235045	1.5	0.1
0.01	1	0.250393570000597	2	117	NA	210.192040518	0	0.21	2.11	1	209.940149063	210.190542633	"23"	5627.708220608	5541.878235045	1.5	0.1
0.01	1	0.131668693999927	1	84	NA	227.52850189	0	0.39	2.5	1	212.227279885	212.358948579	"24"	5627.708220608	5541.878235045	1.5	0.1
0.01	1	0.299693416000082	1	84	NA	227.52850189	0	0.39	2.5	1	212.594533908	212.894227324	"24"	5627.708220608	5541.878235045	1.5	0.1
0.01	1	0.141889495000214	1	84	NA	227.52850189	0	0.39	2.5	1	213.128783233	213.270672728	"24"	5627.708220608	5541.878235045	1.5	0.1
0.01	1	0.151008341000306	1	84	NA	227.52850189	0	0.39	2.5	1	213.496102255	213.647110596	"24"	5627.708220608	5541.878235045	1.5	0.1
0.01	1	0.215087974999733	1	84	NA	227.52850189	0	0.39	2.5	1	213.879995143	214.095083118	"24"	5627.708220608	5541.878235045	1.5	0.1
0.01	1	0.147562600000128	1	84	NA	227.52850189	0	0.39	2.5	1	214.330844338	214.478406938	"24"	5627.708220608	5541.878235045	1.5	0.1
0.01	1	0.156316564999543	1	84	NA	227.52850189	0	0.39	2.5	1	214.714765875	214.87108244	"24"	5627.708220608	5541.878235045	1.5	0.1
0.01	1	0.163907344999643	1	84	NA	227.52850189	0	0.39	2.5	1	215.09867267	215.262580015	"24"	5627.708220608	5541.878235045	1.5	0.1
0.01	1	0.219045515999824	1	84	NA	227.52850189	0	0.39	2.5	1	215.499520993	215.718566509	"24"	5627.708220608	5541.878235045	1.5	0.1
0.01	1	0.152201095000237	1	84	NA	227.52850189	0	0.39	2.5	1	215.950174118	216.102375213	"24"	5627.708220608	5541.878235045	1.5	0.1
0.01	1	0.144527503999598	1	84	NA	227.52850189	0	0.39	2.5	1	216.334181778	216.478709282	"24"	5627.708220608	5541.878235045	1.5	0.1
0.01	1	0.121076205999998	1	84	NA	227.52850189	0	0.39	2.5	1	216.701374269	216.822450475	"24"	5627.708220608	5541.878235045	1.5	0.1
0.01	1	0.146937176999927	1	84	NA	227.52850189	0	0.39	2.5	1	217.052008303	217.19894548	"24"	5627.708220608	5541.878235045	1.5	0.1
0.01	1	0.162984558000062	1	84	NA	227.52850189	0	0.39	2.5	1	217.436018263	217.599002821	"24"	5627.708220608	5541.878235045	1.5	0.1
0.01	1	0.106025054999918	1	84	NA	227.52850189	0	0.39	2.5	1	217.836687088	217.942712143	"24"	5627.708220608	5541.878235045	1.5	0.1
0.01	1	0.148333932000241	1	84	NA	227.52850189	0	0.39	2.5	1	218.170525865	218.318859797	"24"	5627.708220608	5541.878235045	1.5	0.1
0.01	1	0.115874329999315	1	84	NA	227.52850189	0	0.39	2.5	1	218.554495348	218.670369678	"24"	5627.708220608	5541.878235045	1.5	0.1
0.01	1	0.133094353999695	1	84	NA	227.52850189	0	0.39	2.5	1	218.90509686	219.038191214	"24"	5627.708220608	5541.878235045	1.5	0.1
0.01	1	0.150159585999972	1	84	NA	227.52850189	0	0.39	2.5	1	219.272422705	219.422582291	"24"	5627.708220608	5541.878235045	1.5	0.1
0.01	1	0.133949199000199	1	84	NA	227.52850189	0	0.39	2.5	1	219.656371373	219.790320572	"24"	5627.708220608	5541.878235045	1.5	0.1
0.01	1	0.143026922999525	1	84	NA	227.52850189	0	0.39	2.5	1	220.023786368	220.166813291	"24"	5627.708220608	5541.878235045	1.5	0.1
0.01	1	0.175639572999899	1	84	NA	227.52850189	0	0.39	2.5	1	220.390903228	220.566542801	"24"	5627.708220608	5541.878235045	1.5	0.1
0.01	1	0.182409541999732	1	84	NA	227.52850189	0	0.39	2.5	1	220.791787053	220.974196595	"24"	5627.708220608	5541.878235045	1.5	0.1
0.01	1	0.17345505799949	1	84	NA	227.52850189	0	0.39	2.5	1	221.209016415	221.382471473	"24"	5627.708220608	5541.878235045	1.5	0.1
0.01	1	0.140907548000541	1	84	NA	227.52850189	0	0.39	2.5	1	221.609719368	221.750626916	"24"	5627.708220608	5541.878235045	1.5	0.1
0.01	1	0.157581774000391	1	84	NA	227.52850189	0	0.39	2.5	1	221.97685916	222.134440934	"24"	5627.708220608	5541.878235045	1.5	0.1
0.01	1	0.15752066999994	1	84	NA	227.52850189	0	0.39	2.5	1	222.360970918	222.518491588	"24"	5627.708220608	5541.878235045	1.5	0.1
0.01	1	0.165389480000158	1	84	NA	227.52850189	0	0.39	2.5	1	222.744971868	222.910361348	"24"	5627.708220608	5541.878235045	1.5	0.1
0.01	1	0.14071064700056	1	84	NA	227.52850189	0	0.39	2.5	1	223.14557893	223.286289577	"24"	5627.708220608	5541.878235045	1.5	0.1
0.01	1	0.173727774000326	1	84	NA	227.52850189	0	0.39	2.5	1	223.512817709	223.686545483	"24"	5627.708220608	5541.878235045	1.5	0.1
0.01	1	0.132996399999683	1	84	NA	227.52850189	0	0.39	2.5	1	223.913537223	224.046533623	"24"	5627.708220608	5541.878235045	1.5	0.1
0.01	1	0.134123928000008	1	84	NA	227.52850189	0	0.39	2.5	1	224.280880623	224.415004551	"24"	5627.708220608	5541.878235045	1.5	0.1
0.01	1	0.0861449430003631	1	84	NA	227.52850189	0	0.39	2.5	1	224.648104325	224.734249268	"24"	5627.708220608	5541.878235045	1.5	0.1
0.01	1	0.161056010999346	1	84	NA	227.52850189	0	0.39	2.5	1	224.965339258	225.126395269	"24"	5627.708220608	5541.878235045	1.5	0.1
0.01	1	0.16104891499981	1	84	NA	227.52850189	0	0.39	2.5	1	225.349357668	225.510406583	"24"	5627.708220608	5541.878235045	1.5	0.1
0.01	1	0.137000145999991	1	84	NA	227.52850189	0	0.39	2.5	1	225.733268229	225.870268375	"24"	5627.708220608	5541.878235045	1.5	0.1
0.01	1	0.13812242899985	1	84	NA	227.52850189	0	0.39	2.5	1	226.100605162	226.238727591	"24"	5627.708220608	5541.878235045	1.5	0.1
0.01	1	0.131154736999633	1	84	NA	227.52850189	0	0.39	2.5	1	226.467786598	226.598941335	"24"	5627.708220608	5541.878235045	1.5	0.1
0.01	1	0.107151213999714	1	84	NA	227.52850189	0	0.39	2.5	1	226.835207543	226.942358757	"24"	5627.708220608	5541.878235045	1.5	0.1
0.01	1	0.357956363000085	2	84	NA	227.52850189	0	0.39	2.5	1	227.168992985	227.526949348	"24"	5627.708220608	5541.878235045	1.5	0.1
0.01	1	0.681830897000509	1	22	237.90684436	NA	1	0	2.5	1	229.57313214	230.254963037	"25"	5627.708220608	5541.878235045	1.5	0.1
0.01	1	0.187546310000471	1	22	237.90684436	NA	1	0	2.5	1	230.491317172	230.678863482	"25"	5627.708220608	5541.878235045	1.5	0.1
0.01	1	0.121739127999717	1	22	237.90684436	NA	1	0	2.5	1	230.908624075	231.030363203	"25"	5627.708220608	5541.878235045	1.5	0.1
0.01	1	0.171741248000217	1	22	237.90684436	NA	1	0	2.5	1	231.259287673	231.431028921	"25"	5627.708220608	5541.878235045	1.5	0.1
0.01	1	0.12297203000071	1	22	237.90684436	NA	1	0	2.5	1	231.660006638	231.782978668	"25"	5627.708220608	5541.878235045	1.5	0.1
0.01	1	0.1402417040008	1	22	237.90684436	NA	1	0	2.5	1	232.010577208	232.150818912	"25"	5627.708220608	5541.878235045	1.5	0.1
0.01	1	0.00248661499972513	1	22	237.90684436	NA	1	0	2.5	1	232.377816868	232.380303483	"25"	5627.708220608	5541.878235045	1.5	0.1
0.01	1	0.00192845299989131	1	22	237.90684436	NA	1	0	2.5	1	232.611587525	232.613515978	"25"	5627.708220608	5541.878235045	1.5	0.1
0.01	1	0.0891211089992794	1	22	237.90684436	NA	1	0	2.5	1	232.845243503	232.934364612	"25"	5627.708220608	5541.878235045	1.5	0.1
0.01	1	0.124671810000109	1	22	237.90684436	NA	1	0	2.5	1	233.162395148	233.287066958	"25"	5627.708220608	5541.878235045	1.5	0.1
0.01	1	0.141987384999993	1	22	237.90684436	NA	1	0	2.5	1	233.513118723	233.655106108	"25"	5627.708220608	5541.878235045	1.5	0.1
0.01	1	0.142395615000169	1	22	237.90684436	NA	1	0	2.5	1	233.880317343	234.022712958	"25"	5627.708220608	5541.878235045	1.5	0.1
0.01	1	0.158931250000023	1	22	237.90684436	NA	1	0	2.5	1	234.247602668	234.406533918	"25"	5627.708220608	5541.878235045	1.5	0.1
0.01	1	0.118845839999267	1	22	237.90684436	NA	1	0	2.5	1	234.6316628	234.75050864	"25"	5627.708220608	5541.878235045	1.5	0.1
0.01	1	0.128287436999926	1	22	237.90684436	NA	1	0	2.5	1	234.98215271	235.110440147	"25"	5627.708220608	5541.878235045	1.5	0.1
0.01	1	0.130058501999883	1	22	237.90684436	NA	1	0	2.5	1	235.332771433	235.462829935	"25"	5627.708220608	5541.878235045	1.5	0.1
0.01	1	0.178407203999996	1	22	237.90684436	NA	1	0	2.5	1	235.700080493	235.878487697	"25"	5627.708220608	5541.878235045	1.5	0.1
0.01	1	0.169993882000199	1	22	237.90684436	NA	1	0	2.5	1	236.100734078	236.27072796	"25"	5627.708220608	5541.878235045	1.5	0.1
0.01	1	0.217487439000251	1	22	237.90684436	NA	1	0	2.5	1	236.50137239	236.718859829	"25"	5627.708220608	5541.878235045	1.5	0.1
0.01	1	0.190383502999794	1	22	237.90684436	NA	1	0	2.5	1	236.952302678	237.142686181	"25"	5627.708220608	5541.878235045	1.5	0.1
0.01	1	0.189337509999859	1	22	237.90684436	NA	1	0	2.5	1	237.369511358	237.558848868	"25"	5627.708220608	5541.878235045	1.5	0.1
0.01	1	0.00191837800048233	1	22	237.90684436	NA	1	0	2.5	1	237.78696469	237.788883068	"25"	5627.708220608	5541.878235045	1.5	0.1
0.01	1	0.162040049999632	1	36	NA	246.760264917	0	0.16	2.66	1	239.940510728	240.102550778	"26"	5627.708220608	5541.878235045	1.5	0.1
0.01	1	0.162395027999992	1	36	NA	246.760264917	0	0.16	2.66	1	240.32440565	240.486800678	"26"	5627.708220608	5541.878235045	1.5	0.1
0.01	1	0.129249505000189	1	36	NA	246.760264917	0	0.16	2.66	1	240.72510919	240.854358695	"26"	5627.708220608	5541.878235045	1.5	0.1
0.01	1	0.146957849000501	1	36	NA	246.760264917	0	0.16	2.66	1	241.07571752	241.222675369	"26"	5627.708220608	5541.878235045	1.5	0.1
0.01	1	0.147308353999506	1	36	NA	246.760264917	0	0.16	2.66	1	241.45977946	241.607087814	"26"	5627.708220608	5541.878235045	1.5	0.1
0.01	1	0.187326629999916	1	36	NA	246.760264917	0	0.16	2.66	1	241.843724098	242.031050728	"26"	5627.708220608	5541.878235045	1.5	0.1
0.01	1	0.137338954999905	1	36	NA	246.760264917	0	0.16	2.66	1	242.261092673	242.398431628	"26"	5627.708220608	5541.878235045	1.5	0.1
0.01	1	0.154352659999859	1	36	NA	246.760264917	0	0.16	2.66	1	242.628420938	242.782773598	"26"	5627.708220608	5541.878235045	1.5	0.1
0.01	1	0.394325996000589	1	36	NA	246.760264917	0	0.16	2.66	1	243.012372978	243.406698974	"26"	5627.708220608	5541.878235045	1.5	0.1
0.01	1	0.096233492000465	1	36	NA	246.760264917	0	0.16	2.66	1	243.646769053	243.743002545	"26"	5627.708220608	5541.878235045	1.5	0.1
0.01	1	0.170211716999802	1	36	NA	246.760264917	0	0.16	2.66	1	243.9806392	244.150850917	"26"	5627.708220608	5541.878235045	1.5	0.1
0.01	1	0.224963415000275	1	36	NA	246.760264917	0	0.16	2.66	1	244.381318848	244.606282263	"26"	5627.708220608	5541.878235045	1.5	0.1
0.01	1	0.222776295000585	1	36	NA	246.760264917	0	0.16	2.66	1	244.832169533	245.054945828	"26"	5627.708220608	5541.878235045	1.5	0.1
0.01	1	0.155676074000439	1	36	NA	246.760264917	0	0.16	2.66	1	245.282835935	245.438512009	"26"	5627.708220608	5541.878235045	1.5	0.1
0.01	1	0.195894862000387	1	36	NA	246.760264917	0	0.16	2.66	1	245.666862595	245.862757457	"26"	5627.708220608	5541.878235045	1.5	0.1
0.01	1	0.162185848000263	1	36	NA	246.760264917	0	0.16	2.66	1	246.10079342	246.262979268	"26"	5627.708220608	5541.878235045	1.5	0.1
0.01	1	0.256721314999595	2	36	NA	246.760264917	0	0.16	2.66	1	246.501546495	246.75826781	"26"	5627.708220608	5541.878235045	1.5	0.1
0.01	1	0.00246478999997635	1	124	NA	258.215988401	0	0.23	2.89	1	248.805457013	248.807921803	"27"	5627.708220608	5541.878235045	1.5	0.1
0.01	1	0.0958094240004357	1	124	NA	258.215988401	0	0.23	2.89	1	249.039132723	249.134942147	"27"	5627.708220608	5541.878235045	1.5	0.1
0.01	1	0.161863479999738	1	124	NA	258.215988401	0	0.23	2.89	1	249.372979038	249.534842518	"27"	5627.708220608	5541.878235045	1.5	0.1
0.01	1	0.161788022999644	1	124	NA	258.215988401	0	0.23	2.89	1	249.757075208	249.918863231	"27"	5627.708220608	5541.878235045	1.5	0.1
0.01	1	0.153542269999889	1	124	NA	258.215988401	0	0.23	2.89	1	250.140995108	250.294537378	"27"	5627.708220608	5541.878235045	1.5	0.1
0.01	1	0.177428809999583	1	124	NA	258.215988401	0	0.23	2.89	1	250.525011085	250.702439895	"27"	5627.708220608	5541.878235045	1.5	0.1
0.01	1	0.169461716999649	1	124	NA	258.215988401	0	0.23	2.89	1	250.925614095	251.095075812	"27"	5627.708220608	5541.878235045	1.5	0.1
0.01	1	0.12054075099968	1	124	NA	258.215988401	0	0.23	2.89	1	251.32630105	251.446841801	"27"	5627.708220608	5541.878235045	1.5	0.1
0.01	1	0.153470556999309	1	124	NA	258.215988401	0	0.23	2.89	1	251.676974058	251.830444615	"27"	5627.708220608	5541.878235045	1.5	0.1
0.01	1	0.321135583999421	1	124	NA	258.215988401	0	0.23	2.89	1	252.061106768	252.382242352	"27"	5627.708220608	5541.878235045	1.5	0.1
0.01	1	0.22723347200008	1	124	NA	258.215988401	0	0.23	2.89	1	252.611771971	252.839005443	"27"	5627.708220608	5541.878235045	1.5	0.1
0.01	1	0.288096637999843	1	124	NA	258.215988401	0	0.23	2.89	1	253.062514643	253.350611281	"27"	5627.708220608	5541.878235045	1.5	0.1
0.01	1	0.242620254999565	1	124	NA	258.215988401	0	0.23	2.89	1	253.580132983	253.822753238	"27"	5627.708220608	5541.878235045	1.5	0.1
0.01	1	0.00190472299982503	1	124	NA	258.215988401	0	0.23	2.89	1	254.04748829	254.049393013	"27"	5627.708220608	5541.878235045	1.5	0.1
0.01	1	0.00136489299984532	1	124	NA	258.215988401	0	0.23	2.89	1	254.281234559	254.282599452	"27"	5627.708220608	5541.878235045	1.5	0.1
0.01	1	0.156042712000271	1	124	NA	258.215988401	0	0.23	2.89	1	254.514955758	254.67099847	"27"	5627.708220608	5541.878235045	1.5	0.1
0.01	1	0.187899819000449	1	124	NA	258.215988401	0	0.23	2.89	1	254.899083138	255.086982957	"27"	5627.708220608	5541.878235045	1.5	0.1
0.01	1	0.138450906999424	1	124	NA	258.215988401	0	0.23	2.89	1	255.3163308	255.454781707	"27"	5627.708220608	5541.878235045	1.5	0.1
0.01	1	0.275368309999976	1	124	NA	258.215988401	0	0.23	2.89	1	255.683709758	255.959078068	"27"	5627.708220608	5541.878235045	1.5	0.1
0.01	1	0.181703736999225	1	124	NA	258.215988401	0	0.23	2.89	1	256.184636728	256.366340465	"27"	5627.708220608	5541.878235045	1.5	0.1
0.01	1	0.12587970200002	1	124	NA	258.215988401	0	0.23	2.89	1	256.601969098	256.7278488	"27"	5627.708220608	5541.878235045	1.5	0.1
0.01	1	0.246341213000051	1	124	NA	258.215988401	0	0.23	2.89	1	256.952495268	257.198836481	"27"	5627.708220608	5541.878235045	1.5	0.1
0.01	1	0.161685344999569	1	124	NA	258.215988401	0	0.23	2.89	1	257.436618878	257.598304223	"27"	5627.708220608	5541.878235045	1.5	0.1
0.01	1	0.393891196000368	2	124	NA	258.215988401	0	0.23	2.89	1	257.820602833	258.214494029	"27"	5627.708220608	5541.878235045	1.5	0.1
0.01	1	0.0766922499997236	1	13	265.06898207	NA	1	0	2.89	1	260.258023118	260.334715368	"28"	5627.708220608	5541.878235045	1.5	0.1
0.01	1	0.199388401999386	1	13	265.06898207	NA	1	0	2.89	1	260.575209698	260.7745981	"28"	5627.708220608	5541.878235045	1.5	0.1
0.01	1	0.149367391999476	1	13	265.06898207	NA	1	0	2.89	1	261.009303705	261.158671097	"28"	5627.708220608	5541.878235045	1.5	0.1
0.01	1	0.17378583000027	1	13	265.06898207	NA	1	0	2.89	1	261.39324281	261.56702864	"28"	5627.708220608	5541.878235045	1.5	0.1
0.01	1	0.132474666000235	1	13	265.06898207	NA	1	0	2.89	1	261.794005779	261.926480445	"28"	5627.708220608	5541.878235045	1.5	0.1
0.01	1	0.197615160999703	1	13	265.06898207	NA	1	0	2.89	1	262.16121012	262.358825281	"28"	5627.708220608	5541.878235045	1.5	0.1
0.01	1	0.115683348999482	1	13	265.06898207	NA	1	0	2.89	1	262.595351513	262.711034862	"28"	5627.708220608	5541.878235045	1.5	0.1
0.01	1	0.164281141999709	1	13	265.06898207	NA	1	0	2.89	1	262.945995408	263.11027655	"28"	5627.708220608	5541.878235045	1.5	0.1
0.01	1	0.11596397700032	1	13	265.06898207	NA	1	0	2.89	1	263.346618158	263.462582135	"28"	5627.708220608	5541.878235045	1.5	0.1
0.01	1	0.197491493000598	1	13	265.06898207	NA	1	0	2.89	1	263.697099153	263.894590646	"28"	5627.708220608	5541.878235045	1.5	0.1
0.01	1	0.0911050579998118	1	13	265.06898207	NA	1	0	2.89	1	264.131270333	264.222375391	"28"	5627.708220608	5541.878235045	1.5	0.1
0.01	1	0.150582623999981	1	13	265.06898207	NA	1	0	2.89	1	264.448468913	264.599051537	"28"	5627.708220608	5541.878235045	1.5	0.1
0.01	1	0.117694886999743	1	13	265.06898207	NA	1	0	2.89	1	264.832484278	264.950179165	"28"	5627.708220608	5541.878235045	1.5	0.1
0.01	1	0.00104347500018775	1	125	NA	270.328498594	0	0.09	2.98	1	267.119571063	267.120614538	"29"	5627.708220608	5541.878235045	1.5	0.1
0.01	1	0.109663377999823	1	125	NA	270.328498594	0	0.09	2.98	1	267.353272413	267.462935791	"29"	5627.708220608	5541.878235045	1.5	0.1
0.01	1	0.127704096999878	1	125	NA	270.328498594	0	0.09	2.98	1	267.68721095	267.814915047	"29"	5627.708220608	5541.878235045	1.5	0.1
0.01	1	0.128901594000126	1	125	NA	270.328498594	0	0.09	2.98	1	268.037819388	268.166720982	"29"	5627.708220608	5541.878235045	1.5	0.1
0.01	1	0.114691560999745	1	125	NA	270.328498594	0	0.09	2.98	1	268.388385213	268.503076774	"29"	5627.708220608	5541.878235045	1.5	0.1
0.01	1	0.0994978380003886	1	125	NA	270.328498594	0	0.09	2.98	1	268.73894168	268.838439518	"29"	5627.708220608	5541.878235045	1.5	0.1
0.01	1	0.0782625949996145	1	125	NA	270.328498594	0	0.09	2.98	1	269.072834648	269.151097243	"29"	5627.708220608	5541.878235045	1.5	0.1
0.01	1	0.112857811999675	1	125	NA	270.328498594	0	0.09	2.98	1	269.37341466	269.486272472	"29"	5627.708220608	5541.878235045	1.5	0.1
0.01	1	0.131028277000041	1	125	NA	270.328498594	0	0.09	2.98	1	269.723936533	269.85496481	"29"	5627.708220608	5541.878235045	1.5	0.1
0.01	1	0.235725731000457	2	125	NA	270.328498594	0	0.09	2.98	1	270.091280025	270.327005756	"29"	5627.708220608	5541.878235045	1.5	0.1
0.01	1	0.100340615000277	1	105	NA	278.935876577	0	0.16	3.14	1	272.378454148	272.478794763	"30"	5627.708220608	5541.878235045	1.5	0.1
0.01	1	0.174175469000147	1	105	NA	278.935876577	0	0.16	3.14	1	272.712348428	272.886523897	"30"	5627.708220608	5541.878235045	1.5	0.1
0.01	1	0.157290249000653	1	105	NA	278.935876577	0	0.16	3.14	1	273.113018765	273.270309014	"30"	5627.708220608	5541.878235045	1.5	0.1
0.01	1	0.173423033999825	1	105	NA	278.935876577	0	0.16	3.14	1	273.496936753	273.670359787	"30"	5627.708220608	5541.878235045	1.5	0.1
0.01	1	0.165006728000662	1	105	NA	278.935876577	0	0.16	3.14	1	273.897669853	274.062676581	"30"	5627.708220608	5541.878235045	1.5	0.1
0.01	1	0.156784777999746	1	105	NA	278.935876577	0	0.16	3.14	1	274.29827904	274.455063818	"30"	5627.708220608	5541.878235045	1.5	0.1
0.01	1	0.164144065999608	1	105	NA	278.935876577	0	0.16	3.14	1	274.682307713	274.846451779	"30"	5627.708220608	5541.878235045	1.5	0.1
0.01	1	0.187743878000219	1	105	NA	278.935876577	0	0.16	3.14	1	275.082867688	275.270611566	"30"	5627.708220608	5541.878235045	1.5	0.1
0.01	1	0.106502504000673	1	105	NA	278.935876577	0	0.16	3.14	1	275.500339863	275.606842367	"30"	5627.708220608	5541.878235045	1.5	0.1
0.01	1	0.172670563999418	1	105	NA	278.935876577	0	0.16	3.14	1	275.834230958	276.006901522	"30"	5627.708220608	5541.878235045	1.5	0.1
0.01	1	0.171445091000351	1	105	NA	278.935876577	0	0.16	3.14	1	276.234878243	276.406323334	"30"	5627.708220608	5541.878235045	1.5	0.1
0.01	1	0.218732197999998	1	105	NA	278.935876577	0	0.16	3.14	1	276.63552934	276.854261538	"30"	5627.708220608	5541.878235045	1.5	0.1
0.01	1	0.1762182880002	1	105	NA	278.935876577	0	0.16	3.14	1	277.08637244	277.262590728	"30"	5627.708220608	5541.878235045	1.5	0.1
0.01	1	0.183984670999962	1	105	NA	278.935876577	0	0.16	3.14	1	277.487050005	277.671034676	"30"	5627.708220608	5541.878235045	1.5	0.1
0.01	1	0.158075371999985	1	105	NA	278.935876577	0	0.16	3.14	1	277.904428405	278.062503777	"30"	5627.708220608	5541.878235045	1.5	0.1
0.01	1	0.126519790000202	1	105	NA	278.935876577	0	0.16	3.14	1	278.288328262	278.414848052	"30"	5627.708220608	5541.878235045	1.5	0.1
0.01	1	0.295490012999835	2	105	NA	278.935876577	0	0.16	3.14	1	278.638880288	278.934370301	"30"	5627.708220608	5541.878235045	1.5	0.1
