"payoff.level"	"balloon"	"rt"	"resp"	"explode.trial"	"explode.time"	"finish.time"	"exploded"	"trial.total"	"cumulative.total"	"finished"	"trial.start"	"trial.end"	"trial.num"	"secs"	"start.time"	"iti"	"isi"
0.01	1	1.32425844499994	1	64	NA	112.618660249	0	0.58	0.58	1	0.0203839000005246	1.34464234500047	"1"	13995.600588049	13987.217676062	1.5	0.1
0.01	1	0.557840661000228	1	64	NA	112.618660249	0	0.58	0.58	1	1.70652214800066	2.26436280900089	"1"	13995.600588049	13987.217676062	1.5	0.1
0.01	1	0.805030903999068	1	64	NA	112.618660249	0	0.58	0.58	1	2.49115482700108	3.29618573100015	"1"	13995.600588049	13987.217676062	1.5	0.1
0.01	1	0.593368354999257	1	64	NA	112.618660249	0	0.58	0.58	1	3.52624185000059	4.11961020499984	"1"	13995.600588049	13987.217676062	1.5	0.1
0.01	1	0.519707290000952	1	64	NA	112.618660249	0	0.58	0.58	1	4.36086805500054	4.88057534500149	"1"	13995.600588049	13987.217676062	1.5	0.1
0.01	1	0.53627450500062	1	64	NA	112.618660249	0	0.58	0.58	1	5.11220977999983	5.64848428500045	"1"	13995.600588049	13987.217676062	1.5	0.1
0.01	1	0.808237360999556	1	64	NA	112.618660249	0	0.58	0.58	1	5.88011688200095	6.6883542430005	"1"	13995.600588049	13987.217676062	1.5	0.1
0.01	1	0.685951290000958	1	64	NA	112.618660249	0	0.58	0.58	1	6.91522533500029	7.60117662500124	"1"	13995.600588049	13987.217676062	1.5	0.1
0.01	1	0.599073676001353	1	64	NA	112.618660249	0	0.58	0.58	1	7.83354107000014	8.43261474600149	"1"	13995.600588049	13987.217676062	1.5	0.1
0.01	1	1.42838050699902	1	64	NA	112.618660249	0	0.58	0.58	1	8.66814071500085	10.0965212219999	"1"	13995.600588049	13987.217676062	1.5	0.1
0.01	1	0.407343446999221	1	64	NA	112.618660249	0	0.58	0.58	1	10.320955049001	10.7282984960002	"1"	13995.600588049	13987.217676062	1.5	0.1
0.01	1	0.436303962000238	1	64	NA	112.618660249	0	0.58	0.58	1	10.9553969150002	11.3917008770004	"1"	13995.600588049	13987.217676062	1.5	0.1
0.01	1	0.442279880999195	1	64	NA	112.618660249	0	0.58	0.58	1	11.6230993000008	12.065379181	"1"	13995.600588049	13987.217676062	1.5	0.1
0.01	1	0.517071169000701	1	64	NA	112.618660249	0	0.58	0.58	1	12.2909282580003	12.8079994270011	"1"	13995.600588049	13987.217676062	1.5	0.1
0.01	1	0.517389950999132	1	64	NA	112.618660249	0	0.58	0.58	1	13.0422019070011	13.5595918580002	"1"	13995.600588049	13987.217676062	1.5	0.1
0.01	1	1.07175658699998	1	64	NA	112.618660249	0	0.58	0.58	1	13.7934497550013	14.8652063420013	"1"	13995.600588049	13987.217676062	1.5	0.1
0.01	1	1.59257306899963	1	64	NA	112.618660249	0	0.58	0.58	1	15.0956334600014	16.688206529001	"1"	13995.600588049	13987.217676062	1.5	0.1
0.01	1	1.20537811800023	1	64	NA	112.618660249	0	0.58	0.58	1	16.915480085001	18.1208582030013	"1"	13995.600588049	13987.217676062	1.5	0.1
0.01	1	2.29769704200044	1	64	NA	112.618660249	0	0.58	0.58	1	18.3512739580001	20.6489710000005	"1"	13995.600588049	13987.217676062	1.5	0.1
0.01	1	1.20883505999882	1	64	NA	112.618660249	0	0.58	0.58	1	20.8720764300015	22.0809114900003	"1"	13995.600588049	13987.217676062	1.5	0.1
0.01	1	1.81266990899894	1	64	NA	112.618660249	0	0.58	0.58	1	22.307815428001	24.120485337	"1"	13995.600588049	13987.217676062	1.5	0.1
0.01	1	3.50280963899968	1	64	NA	112.618660249	0	0.58	0.58	1	24.3611855800009	27.8639952190006	"1"	13995.600588049	13987.217676062	1.5	0.1
0.01	1	4.59491390500079	1	64	NA	112.618660249	0	0.58	0.58	1	28.1008963450004	32.6958102500012	"1"	13995.600588049	13987.217676062	1.5	0.1
0.01	1	3.5311551220002	1	64	NA	112.618660249	0	0.58	0.58	1	32.9256785070011	36.4568336290013	"1"	13995.600588049	13987.217676062	1.5	0.1
0.01	1	2.64633327199954	1	64	NA	112.618660249	0	0.58	0.58	1	36.6820703270005	39.328403599	"1"	13995.600588049	13987.217676062	1.5	0.1
0.01	1	3.50247155699981	1	64	NA	112.618660249	0	0.58	0.58	1	39.5535457770002	43.056017334	"1"	13995.600588049	13987.217676062	1.5	0.1
0.01	1	5.05164853299902	1	64	NA	112.618660249	0	0.58	0.58	1	43.2931200970015	48.3447686300005	"1"	13995.600588049	13987.217676062	1.5	0.1
0.01	1	1.11187333399903	1	64	NA	112.618660249	0	0.58	0.58	1	48.5852762520008	49.6971495859998	"1"	13995.600588049	13987.217676062	1.5	0.1
0.01	1	2.22271433999958	1	64	NA	112.618660249	0	0.58	0.58	1	49.9209369950004	52.143651335	"1"	13995.600588049	13987.217676062	1.5	0.1
0.01	1	4.38547765799922	1	64	NA	112.618660249	0	0.58	0.58	1	52.3750373300009	56.7605149880001	"1"	13995.600588049	13987.217676062	1.5	0.1
0.01	1	2.26377882499946	1	64	NA	112.618660249	0	0.58	0.58	1	56.9995878450009	59.2633666700003	"1"	13995.600588049	13987.217676062	1.5	0.1
0.01	1	1.65696892900087	1	64	NA	112.618660249	0	0.58	0.58	1	59.4870094170001	61.1439783460009	"1"	13995.600588049	13987.217676062	1.5	0.1
0.01	1	1.77177249499982	1	64	NA	112.618660249	0	0.58	0.58	1	61.3735421649999	63.1453146599997	"1"	13995.600588049	13987.217676062	1.5	0.1
0.01	1	1.87058197700026	1	64	NA	112.618660249	0	0.58	0.58	1	63.3769723450005	65.2475543220007	"1"	13995.600588049	13987.217676062	1.5	0.1
0.01	1	2.47188816299968	1	64	NA	112.618660249	0	0.58	0.58	1	65.4804068350004	67.9522949980001	"1"	13995.600588049	13987.217676062	1.5	0.1
0.01	1	2.75937186900046	1	64	NA	112.618660249	0	0.58	0.58	1	68.1849498749998	70.9443217440003	"1"	13995.600588049	13987.217676062	1.5	0.1
0.01	1	3.31530745300006	1	64	NA	112.618660249	0	0.58	0.58	1	71.1734483470009	74.4887558000009	"1"	13995.600588049	13987.217676062	1.5	0.1
0.01	1	1.4480064670006	1	64	NA	112.618660249	0	0.58	0.58	1	74.7293505470006	76.1773570140012	"1"	13995.600588049	13987.217676062	1.5	0.1
0.01	1	0.896536677999393	1	64	NA	112.618660249	0	0.58	0.58	1	76.4156003700009	77.3121370480003	"1"	13995.600588049	13987.217676062	1.5	0.1
0.01	1	1.2184262589999	1	64	NA	112.618660249	0	0.58	0.58	1	77.5507212000011	78.769147459001	"1"	13995.600588049	13987.217676062	1.5	0.1
0.01	1	1.54922024400003	1	64	NA	112.618660249	0	0.58	0.58	1	79.0032911070011	80.5525113510012	"1"	13995.600588049	13987.217676062	1.5	0.1
0.01	1	0.746886089998952	1	64	NA	112.618660249	0	0.58	0.58	1	80.7895196670015	81.5364057570005	"1"	13995.600588049	13987.217676062	1.5	0.1
0.01	1	2.01803969499997	1	64	NA	112.618660249	0	0.58	0.58	1	81.757848655001	83.775888350001	"1"	13995.600588049	13987.217676062	1.5	0.1
0.01	1	2.91588754899931	1	64	NA	112.618660249	0	0.58	0.58	1	84.0116710260008	86.9275585750001	"1"	13995.600588049	13987.217676062	1.5	0.1
0.01	1	0.72175823500038	1	64	NA	112.618660249	0	0.58	0.58	1	87.1668577670007	87.8886160020011	"1"	13995.600588049	13987.217676062	1.5	0.1
0.01	1	1.12214704100006	1	64	NA	112.618660249	0	0.58	0.58	1	88.1186386850004	89.2407857260005	"1"	13995.600588049	13987.217676062	1.5	0.1
0.01	1	1.45726810300039	1	64	NA	112.618660249	0	0.58	0.58	1	89.4708460170004	90.9281141200008	"1"	13995.600588049	13987.217676062	1.5	0.1
0.01	1	0.380070651999631	1	64	NA	112.618660249	0	0.58	0.58	1	91.1569878750015	91.5370585270011	"1"	13995.600588049	13987.217676062	1.5	0.1
0.01	1	0.64128171899938	1	64	NA	112.618660249	0	0.58	0.58	1	91.7747352470014	92.4160169660008	"1"	13995.600588049	13987.217676062	1.5	0.1
0.01	1	0.941119959999924	1	64	NA	112.618660249	0	0.58	0.58	1	92.6428812949998	93.5840012549997	"1"	13995.600588049	13987.217676062	1.5	0.1
0.01	1	0.980170262999309	1	64	NA	112.618660249	0	0.58	0.58	1	93.8115488100011	94.7917190730004	"1"	13995.600588049	13987.217676062	1.5	0.1
0.01	1	3.87449864799964	1	64	NA	112.618660249	0	0.58	0.58	1	95.0301521070014	98.9046507550011	"1"	13995.600588049	13987.217676062	1.5	0.1
0.01	1	1.07875882200096	1	64	NA	112.618660249	0	0.58	0.58	1	99.1371938749999	100.215952697001	"1"	13995.600588049	13987.217676062	1.5	0.1
0.01	1	1.97746130699852	1	64	NA	112.618660249	0	0.58	0.58	1	100.439271320001	102.416732627	"1"	13995.600588049	13987.217676062	1.5	0.1
0.01	1	1.44552085800024	1	64	NA	112.618660249	0	0.58	0.58	1	102.643043490001	104.088564348001	"1"	13995.600588049	13987.217676062	1.5	0.1
0.01	1	2.1918211079992	1	64	NA	112.618660249	0	0.58	0.58	1	104.329219987001	106.521041095	"1"	13995.600588049	13987.217676062	1.5	0.1
0.01	1	2.42591341700063	1	64	NA	112.618660249	0	0.58	0.58	1	106.749883945	109.175797362001	"1"	13995.600588049	13987.217676062	1.5	0.1
0.01	1	2.02009322800041	1	64	NA	112.618660249	0	0.58	0.58	1	109.404336817001	111.424430045001	"1"	13995.600588049	13987.217676062	1.5	0.1
0.01	1	0.958828549000827	2	64	NA	112.618660249	0	0.58	0.58	1	111.658210177	112.617038726001	"1"	13995.600588049	13987.217676062	1.5	0.1
0.01	1	1.88997835300142	1	110	NA	158.457768406	0	0.53	1.11	1	114.646532252	116.536510605001	"2"	13995.600588049	13987.217676062	1.5	0.1
0.01	1	0.633245706998423	1	110	NA	158.457768406	0	0.53	1.11	1	116.766789537001	117.400035244	"2"	13995.600588049	13987.217676062	1.5	0.1
0.01	1	0.382025572998828	1	110	NA	158.457768406	0	0.53	1.11	1	117.634856157001	118.01688173	"2"	13995.600588049	13987.217676062	1.5	0.1
0.01	1	0.0597300709996489	1	110	NA	158.457768406	0	0.53	1.11	1	118.252600699001	118.312330770001	"2"	13995.600588049	13987.217676062	1.5	0.1
0.01	1	0.119498633999683	1	110	NA	158.457768406	0	0.53	1.11	1	118.536446777001	118.655945411001	"2"	13995.600588049	13987.217676062	1.5	0.1
0.01	1	0.152468655000121	1	110	NA	158.457768406	0	0.53	1.11	1	118.887023880001	119.039492535001	"2"	13995.600588049	13987.217676062	1.5	0.1
0.01	1	0.105482626999219	1	110	NA	158.457768406	0	0.53	1.11	1	119.270928925001	119.376411552001	"2"	13995.600588049	13987.217676062	1.5	0.1
0.01	1	0.180275087999689	1	110	NA	158.457768406	0	0.53	1.11	1	119.60494336	119.785218448	"2"	13995.600588049	13987.217676062	1.5	0.1
0.01	1	0.874498024000786	1	110	NA	158.457768406	0	0.53	1.11	1	120.022241695	120.896739719001	"2"	13995.600588049	13987.217676062	1.5	0.1
0.01	1	0.436637927999982	1	110	NA	158.457768406	0	0.53	1.11	1	121.12411262	121.560750548	"2"	13995.600588049	13987.217676062	1.5	0.1
0.01	1	0.191451852000682	1	110	NA	158.457768406	0	0.53	1.11	1	121.791902257	121.983354109001	"2"	13995.600588049	13987.217676062	1.5	0.1
0.01	1	0.327937010999449	1	110	NA	158.457768406	0	0.53	1.11	1	122.209193333001	122.537130344001	"2"	13995.600588049	13987.217676062	1.5	0.1
0.01	1	0.351537218999511	1	110	NA	158.457768406	0	0.53	1.11	1	122.760138276	123.111675495	"2"	13995.600588049	13987.217676062	1.5	0.1
0.01	1	0.190834346998599	1	110	NA	158.457768406	0	0.53	1.11	1	123.344528082001	123.535362429	"2"	13995.600588049	13987.217676062	1.5	0.1
0.01	1	0.439342699000917	1	110	NA	158.457768406	0	0.53	1.11	1	123.761891795	124.201234494001	"2"	13995.600588049	13987.217676062	1.5	0.1
0.01	1	0.315362510000341	1	110	NA	158.457768406	0	0.53	1.11	1	124.429566205001	124.744928715001	"2"	13995.600588049	13987.217676062	1.5	0.1
0.01	1	0.227745007001431	1	110	NA	158.457768406	0	0.53	1.11	1	124.980605625	125.208350632001	"2"	13995.600588049	13987.217676062	1.5	0.1
0.01	1	0.337217756999962	1	110	NA	158.457768406	0	0.53	1.11	1	125.431389897001	125.768607654001	"2"	13995.600588049	13987.217676062	1.5	0.1
0.01	1	0.306000444999881	1	110	NA	158.457768406	0	0.53	1.11	1	125.998905460001	126.304905905001	"2"	13995.600588049	13987.217676062	1.5	0.1
0.01	1	0.324104283001361	1	110	NA	158.457768406	0	0.53	1.11	1	126.5332356	126.857339883001	"2"	13995.600588049	13987.217676062	1.5	0.1
0.01	1	0.221223607000866	1	110	NA	158.457768406	0	0.53	1.11	1	127.084111405	127.305335012001	"2"	13995.600588049	13987.217676062	1.5	0.1
0.01	1	0.178021055000499	1	110	NA	158.457768406	0	0.53	1.11	1	127.534892775	127.712913830001	"2"	13995.600588049	13987.217676062	1.5	0.1
0.01	1	0.287245810000968	1	110	NA	158.457768406	0	0.53	1.11	1	127.95225305	128.239498860001	"2"	13995.600588049	13987.217676062	1.5	0.1
0.01	1	0.218177900000228	1	110	NA	158.457768406	0	0.53	1.11	1	128.469868145001	128.688046045001	"2"	13995.600588049	13987.217676062	1.5	0.1
0.01	1	0.167079166998519	1	110	NA	158.457768406	0	0.53	1.11	1	128.920583087001	129.087662254	"2"	13995.600588049	13987.217676062	1.5	0.1
0.01	1	0.151507308999498	1	110	NA	158.457768406	0	0.53	1.11	1	129.321255009001	129.472762318001	"2"	13995.600588049	13987.217676062	1.5	0.1
0.01	1	0.70300790300098	1	110	NA	158.457768406	0	0.53	1.11	1	129.705206547	130.408214450001	"2"	13995.600588049	13987.217676062	1.5	0.1
0.01	1	1.05701102500097	1	110	NA	158.457768406	0	0.53	1.11	1	130.64007261	131.697083635001	"2"	13995.600588049	13987.217676062	1.5	0.1
0.01	1	0.418069156999991	1	110	NA	158.457768406	0	0.53	1.11	1	131.925604566	132.343673723	"2"	13995.600588049	13987.217676062	1.5	0.1
0.01	1	0.543127432998517	1	110	NA	158.457768406	0	0.53	1.11	1	132.576758365001	133.119885798	"2"	13995.600588049	13987.217676062	1.5	0.1
0.01	1	1.0072028400009	1	110	NA	158.457768406	0	0.53	1.11	1	133.344642922	134.351845762001	"2"	13995.600588049	13987.217676062	1.5	0.1
0.01	1	0.827792422998755	1	110	NA	158.457768406	0	0.53	1.11	1	134.580028805001	135.407821228	"2"	13995.600588049	13987.217676062	1.5	0.1
0.01	1	1.59235174700007	1	110	NA	158.457768406	0	0.53	1.11	1	135.648509257	137.240861004	"2"	13995.600588049	13987.217676062	1.5	0.1
0.01	1	0.475975405999634	1	110	NA	158.457768406	0	0.53	1.11	1	137.468164605001	137.944140011001	"2"	13995.600588049	13987.217676062	1.5	0.1
0.01	1	0.598567463001018	1	110	NA	158.457768406	0	0.53	1.11	1	138.169409197	138.767976660001	"2"	13995.600588049	13987.217676062	1.5	0.1
0.01	1	1.40523300299901	1	110	NA	158.457768406	0	0.53	1.11	1	139.004184237001	140.40941724	"2"	13995.600588049	13987.217676062	1.5	0.1
0.01	1	1.11279892300081	1	110	NA	158.457768406	0	0.53	1.11	1	140.640263657	141.753062580001	"2"	13995.600588049	13987.217676062	1.5	0.1
0.01	1	1.04820058599944	1	110	NA	158.457768406	0	0.53	1.11	1	141.992448206001	143.040648792001	"2"	13995.600588049	13987.217676062	1.5	0.1
0.01	1	2.05108613999982	1	110	NA	158.457768406	0	0.53	1.11	1	143.278000210001	145.329086350001	"2"	13995.600588049	13987.217676062	1.5	0.1
0.01	1	0.898116727999877	1	110	NA	158.457768406	0	0.53	1.11	1	145.565235137001	146.463351865001	"2"	13995.600588049	13987.217676062	1.5	0.1
0.01	1	0.964758195001195	1	110	NA	158.457768406	0	0.53	1.11	1	146.7004084	147.665166595001	"2"	13995.600588049	13987.217676062	1.5	0.1
0.01	1	0.105998983000973	1	110	NA	158.457768406	0	0.53	1.11	1	147.902458737	148.008457720001	"2"	13995.600588049	13987.217676062	1.5	0.1
0.01	1	0.652851344999362	1	110	NA	158.457768406	0	0.53	1.11	1	148.236488284001	148.889339629	"2"	13995.600588049	13987.217676062	1.5	0.1
0.01	1	0.00468112700036727	1	110	NA	158.457768406	0	0.53	1.11	1	149.12134636	149.126027487	"2"	13995.600588049	13987.217676062	1.5	0.1
0.01	1	0.605680349999602	1	110	NA	158.457768406	0	0.53	1.11	1	149.354989315001	149.960669665001	"2"	13995.600588049	13987.217676062	1.5	0.1
0.01	1	0.699061798999537	1	110	NA	158.457768406	0	0.53	1.11	1	150.189759300001	150.888821099001	"2"	13995.600588049	13987.217676062	1.5	0.1
0.01	1	0.964807360000123	1	110	NA	158.457768406	0	0.53	1.11	1	151.124543895001	152.089351255001	"2"	13995.600588049	13987.217676062	1.5	0.1
0.01	1	0.811016835001283	1	110	NA	158.457768406	0	0.53	1.11	1	152.326605003	153.137621838001	"2"	13995.600588049	13987.217676062	1.5	0.1
0.01	1	0.854975475998799	1	110	NA	158.457768406	0	0.53	1.11	1	153.361631667001	154.216607143	"2"	13995.600588049	13987.217676062	1.5	0.1
0.01	1	0.00225706399942283	1	110	NA	158.457768406	0	0.53	1.11	1	154.446785388001	154.449042452001	"2"	13995.600588049	13987.217676062	1.5	0.1
0.01	1	0.0713881109986687	1	110	NA	158.457768406	0	0.53	1.11	1	154.680611720001	154.751999831	"2"	13995.600588049	13987.217676062	1.5	0.1
0.01	1	1.55590201499945	1	110	NA	158.457768406	0	0.53	1.11	1	154.981107052001	156.537009067	"2"	13995.600588049	13987.217676062	1.5	0.1
0.01	1	0.928774992000399	1	110	NA	158.457768406	0	0.53	1.11	1	156.767543037	157.696318029	"2"	13995.600588049	13987.217676062	1.5	0.1
0.01	1	0.536892819000059	2	110	NA	158.457768406	0	0.53	1.11	1	157.919293230001	158.456186049001	"2"	13995.600588049	13987.217676062	1.5	0.1
0.01	1	1.94876779199876	1	17	167.588903582	NA	1	0	1.11	1	160.507047345001	162.455815137	"3"	13995.600588049	13987.217676062	1.5	0.1
0.01	1	0.321611854998991	1	17	167.588903582	NA	1	0	1.11	1	162.694017847001	163.015629702	"3"	13995.600588049	13987.217676062	1.5	0.1
0.01	1	0.276413556999614	1	17	167.588903582	NA	1	0	1.11	1	163.245019842001	163.521433399001	"3"	13995.600588049	13987.217676062	1.5	0.1
0.01	1	0.0379113559993129	1	17	167.588903582	NA	1	0	1.11	1	163.745837017001	163.783748373	"3"	13995.600588049	13987.217676062	1.5	0.1
0.01	1	0.00444057500135386	1	17	167.588903582	NA	1	0	1.11	1	164.013019975	164.017460550001	"3"	13995.600588049	13987.217676062	1.5	0.1
0.01	1	0.00262056999963534	1	17	167.588903582	NA	1	0	1.11	1	164.246645006	164.249265576	"3"	13995.600588049	13987.217676062	1.5	0.1
0.01	1	0.00388622799982841	1	17	167.588903582	NA	1	0	1.11	1	164.480365580001	164.484251808	"3"	13995.600588049	13987.217676062	1.5	0.1
0.01	1	0.0534815980008716	1	17	167.588903582	NA	1	0	1.11	1	164.714097417	164.767579015001	"3"	13995.600588049	13987.217676062	1.5	0.1
0.01	1	0.00373013999887917	1	17	167.588903582	NA	1	0	1.11	1	164.997825702001	165.001555842	"3"	13995.600588049	13987.217676062	1.5	0.1
0.01	1	0.297424571999727	1	17	167.588903582	NA	1	0	1.11	1	165.231644137	165.529068709	"3"	13995.600588049	13987.217676062	1.5	0.1
0.01	1	0.00401027800035081	1	17	167.588903582	NA	1	0	1.11	1	165.765821070001	165.769831348001	"3"	13995.600588049	13987.217676062	1.5	0.1
0.01	1	0.0817541989999881	1	17	167.588903582	NA	1	0	1.11	1	165.999589526	166.081343725	"3"	13995.600588049	13987.217676062	1.5	0.1
0.01	1	0.0917874429997028	1	17	167.588903582	NA	1	0	1.11	1	166.316730566001	166.408518009001	"3"	13995.600588049	13987.217676062	1.5	0.1
0.01	1	0.0020627499998227	1	17	167.588903582	NA	1	0	1.11	1	166.634025160001	166.636087910001	"3"	13995.600588049	13987.217676062	1.5	0.1
0.01	1	0.0763981050004077	1	17	167.588903582	NA	1	0	1.11	1	166.867744585001	166.944142690001	"3"	13995.600588049	13987.217676062	1.5	0.1
0.01	1	0.00405021700134967	1	17	167.588903582	NA	1	0	1.11	1	167.168205897	167.172256114001	"3"	13995.600588049	13987.217676062	1.5	0.1
0.01	1	0.0713264570003957	1	17	167.588903582	NA	1	0	1.11	1	167.401917845	167.473244302	"3"	13995.600588049	13987.217676062	1.5	0.1
0.01	1	1.44216401899939	1	61	NA	204.993404727	0	0.41	1.52	1	169.639019885	171.081183904	"4"	13995.600588049	13987.217676062	1.5	0.1
0.01	1	0.00390799500019057	1	61	NA	204.993404727	0	0.41	1.52	1	171.308556165	171.312464160001	"4"	13995.600588049	13987.217676062	1.5	0.1
0.01	1	0.0334630420002213	1	61	NA	204.993404727	0	0.41	1.52	1	171.542225835001	171.575688877001	"4"	13995.600588049	13987.217676062	1.5	0.1
0.01	1	0.00391123299959872	1	61	NA	204.993404727	0	0.41	1.52	1	171.809327427001	171.813238660001	"4"	13995.600588049	13987.217676062	1.5	0.1
0.01	1	0.0613632189997588	1	61	NA	204.993404727	0	0.41	1.52	1	172.043062640001	172.104425859001	"4"	13995.600588049	13987.217676062	1.5	0.1
0.01	1	0.00210722900010296	1	61	NA	204.993404727	0	0.41	1.52	1	172.326905	172.329012229	"4"	13995.600588049	13987.217676062	1.5	0.1
0.01	1	0.751218524999786	1	61	NA	204.993404727	0	0.41	1.52	1	172.560718460001	173.311936985001	"4"	13995.600588049	13987.217676062	1.5	0.1
0.01	1	0.167491099000472	1	61	NA	204.993404727	0	0.41	1.52	1	173.545686857	173.713177956	"4"	13995.600588049	13987.217676062	1.5	0.1
0.01	1	0.157989945000736	1	61	NA	204.993404727	0	0.41	1.52	1	173.94633882	174.104328765001	"4"	13995.600588049	13987.217676062	1.5	0.1
0.01	1	0.126677463000306	1	61	NA	204.993404727	0	0.41	1.52	1	174.330335212	174.457012675	"4"	13995.600588049	13987.217676062	1.5	0.1
0.01	1	1.06265063899991	1	61	NA	204.993404727	0	0.41	1.52	1	174.697652715	175.760303354	"4"	13995.600588049	13987.217676062	1.5	0.1
0.01	1	0.633979038000689	1	61	NA	204.993404727	0	0.41	1.52	1	175.98311963	176.617098668001	"4"	13995.600588049	13987.217676062	1.5	0.1
0.01	1	0.852446689999852	1	61	NA	204.993404727	0	0.41	1.52	1	176.851221375	177.703668065	"4"	13995.600588049	13987.217676062	1.5	0.1
0.01	1	0.0960844140008703	1	61	NA	204.993404727	0	0.41	1.52	1	177.936309195	178.032393609001	"4"	13995.600588049	13987.217676062	1.5	0.1
0.01	1	1.21120489399982	1	61	NA	204.993404727	0	0.41	1.52	1	178.270154240001	179.481359134001	"4"	13995.600588049	13987.217676062	1.5	0.1
0.01	1	0.909535643000709	1	61	NA	204.993404727	0	0.41	1.52	1	179.705945002001	180.615480645001	"4"	13995.600588049	13987.217676062	1.5	0.1
0.01	1	0.719777679998515	1	61	NA	204.993404727	0	0.41	1.52	1	180.841158500001	181.56093618	"4"	13995.600588049	13987.217676062	1.5	0.1
0.01	1	0.855344408000747	1	61	NA	204.993404727	0	0.41	1.52	1	181.792894335	182.648238743001	"4"	13995.600588049	13987.217676062	1.5	0.1
0.01	1	1.42594404599913	1	61	NA	204.993404727	0	0.41	1.52	1	182.877986160001	184.303930206001	"4"	13995.600588049	13987.217676062	1.5	0.1
0.01	1	0.285939359999247	1	61	NA	204.993404727	0	0.41	1.52	1	184.530800165001	184.816739525	"4"	13995.600588049	13987.217676062	1.5	0.1
0.01	1	0.440020166999602	1	61	NA	204.993404727	0	0.41	1.52	1	185.048414275001	185.488434442001	"4"	13995.600588049	13987.217676062	1.5	0.1
0.01	1	0.173116511999979	1	61	NA	204.993404727	0	0.41	1.52	1	185.716132927	185.889249439	"4"	13995.600588049	13987.217676062	1.5	0.1
0.01	1	0.00203790399973514	1	61	NA	204.993404727	0	0.41	1.52	1	186.116785518001	186.118823422001	"4"	13995.600588049	13987.217676062	1.5	0.1
0.01	1	0.00399894499969378	1	61	NA	204.993404727	0	0.41	1.52	1	186.350518175001	186.35451712	"4"	13995.600588049	13987.217676062	1.5	0.1
0.01	1	1.20785535399955	1	61	NA	204.993404727	0	0.41	1.52	1	186.584269800001	187.792125154001	"4"	13995.600588049	13987.217676062	1.5	0.1
0.01	1	0.00469658199835976	1	61	NA	204.993404727	0	0.41	1.52	1	188.019933680001	188.024630262	"4"	13995.600588049	13987.217676062	1.5	0.1
0.01	1	3.06654714000069	1	61	NA	204.993404727	0	0.41	1.52	1	188.253636009	191.320183149001	"4"	13995.600588049	13987.217676062	1.5	0.1
0.01	1	0.713407330998962	1	61	NA	204.993404727	0	0.41	1.52	1	191.559243027001	192.272650358	"4"	13995.600588049	13987.217676062	1.5	0.1
0.01	1	0.00209636699946714	1	61	NA	204.993404727	0	0.41	1.52	1	192.494218240001	192.496314607	"4"	13995.600588049	13987.217676062	1.5	0.1
0.01	1	0.817528260000472	1	61	NA	204.993404727	0	0.41	1.52	1	192.727874370001	193.545402630001	"4"	13995.600588049	13987.217676062	1.5	0.1
0.01	1	0.006891615999848	1	61	NA	204.993404727	0	0.41	1.52	1	193.779707542	193.786599158	"4"	13995.600588049	13987.217676062	1.5	0.1
0.01	1	0.946619620999627	1	61	NA	204.993404727	0	0.41	1.52	1	194.013498215001	194.960117836001	"4"	13995.600588049	13987.217676062	1.5	0.1
0.01	1	0.00224810899999284	1	61	NA	204.993404727	0	0.41	1.52	1	195.198681694001	195.200929803001	"4"	13995.600588049	13987.217676062	1.5	0.1
0.01	1	0.512813228999221	1	61	NA	204.993404727	0	0.41	1.52	1	195.432421250001	195.945234479001	"4"	13995.600588049	13987.217676062	1.5	0.1
0.01	1	0.639871295001285	1	61	NA	204.993404727	0	0.41	1.52	1	196.18365377	196.823525065001	"4"	13995.600588049	13987.217676062	1.5	0.1
0.01	1	0.867659114999697	1	61	NA	204.993404727	0	0.41	1.52	1	197.051842665001	197.919501780001	"4"	13995.600588049	13987.217676062	1.5	0.1
0.01	1	0.878830173998722	1	61	NA	204.993404727	0	0.41	1.52	1	198.153735195001	199.032565369	"4"	13995.600588049	13987.217676062	1.5	0.1
0.01	1	0.809810307000589	1	61	NA	204.993404727	0	0.41	1.52	1	199.255577170001	200.065387477001	"4"	13995.600588049	13987.217676062	1.5	0.1
0.01	1	0.940917619000174	1	61	NA	204.993404727	0	0.41	1.52	1	200.290653667	201.231571286	"4"	13995.600588049	13987.217676062	1.5	0.1
0.01	1	1.42181678999987	1	61	NA	204.993404727	0	0.41	1.52	1	201.459235947001	202.881052737001	"4"	13995.600588049	13987.217676062	1.5	0.1
0.01	1	0.871733304000372	1	61	NA	204.993404727	0	0.41	1.52	1	203.112049065001	203.983782369001	"4"	13995.600588049	13987.217676062	1.5	0.1
0.01	1	0.777986602000965	2	61	NA	204.993404727	0	0.41	1.52	1	204.213878872	204.991865474001	"4"	13995.600588049	13987.217676062	1.5	0.1
0.01	1	1.30962231700141	1	54	225.102098162	NA	1	0	1.52	1	207.035242622	208.344864939001	"5"	13995.600588049	13987.217676062	1.5	0.1
0.01	1	0.236426032999589	1	54	225.102098162	NA	1	0	1.52	1	208.571254725	208.807680758	"5"	13995.600588049	13987.217676062	1.5	0.1
0.01	1	0.289148838000983	1	54	225.102098162	NA	1	0	1.52	1	209.03863671	209.327785548001	"5"	13995.600588049	13987.217676062	1.5	0.1
0.01	1	0.323365099999137	1	54	225.102098162	NA	1	0	1.52	1	209.556165617001	209.879530717	"5"	13995.600588049	13987.217676062	1.5	0.1
0.01	1	0.284453309001037	1	54	225.102098162	NA	1	0	1.52	1	210.107132235	210.391585544001	"5"	13995.600588049	13987.217676062	1.5	0.1
0.01	1	0.303007033999165	1	54	225.102098162	NA	1	0	1.52	1	210.624734845002	210.927741879001	"5"	13995.600588049	13987.217676062	1.5	0.1
0.01	1	0.281826503000048	1	54	225.102098162	NA	1	0	1.52	1	211.158935085001	211.440761588001	"5"	13995.600588049	13987.217676062	1.5	0.1
0.01	1	0.220965317999799	1	54	225.102098162	NA	1	0	1.52	1	211.67648616	211.897451478	"5"	13995.600588049	13987.217676062	1.5	0.1
0.01	1	0.152626199998849	1	54	225.102098162	NA	1	0	1.52	1	212.127190390001	212.27981659	"5"	13995.600588049	13987.217676062	1.5	0.1
0.01	1	0.257652839000002	1	54	225.102098162	NA	1	0	1.52	1	212.511170595	212.768823434	"5"	13995.600588049	13987.217676062	1.5	0.1
0.01	1	0.0685048209998058	1	54	225.102098162	NA	1	0	1.52	1	212.995343342001	213.063848163001	"5"	13995.600588049	13987.217676062	1.5	0.1
0.01	1	0.0804561400000239	1	54	225.102098162	NA	1	0	1.52	1	213.295870447	213.376326587	"5"	13995.600588049	13987.217676062	1.5	0.1
0.01	1	0.0277036209990911	1	54	225.102098162	NA	1	0	1.52	1	213.613095087001	213.640798708	"5"	13995.600588049	13987.217676062	1.5	0.1
0.01	1	0.0640716739999334	1	54	225.102098162	NA	1	0	1.52	1	213.863386997	213.927458671	"5"	13995.600588049	13987.217676062	1.5	0.1
0.01	1	0.0533510180011945	1	54	225.102098162	NA	1	0	1.52	1	214.16393291	214.217283928001	"5"	13995.600588049	13987.217676062	1.5	0.1
0.01	1	0.0571595719993638	1	54	225.102098162	NA	1	0	1.52	1	214.447840102001	214.504999674	"5"	13995.600588049	13987.217676062	1.5	0.1
0.01	1	0.0379070850012795	1	54	225.102098162	NA	1	0	1.52	1	214.731580042	214.769487127001	"5"	13995.600588049	13987.217676062	1.5	0.1
0.01	1	0.0341499979986111	1	54	225.102098162	NA	1	0	1.52	1	214.998765350001	215.032915348	"5"	13995.600588049	13987.217676062	1.5	0.1
0.01	1	0.0470778550006798	1	54	225.102098162	NA	1	0	1.52	1	215.265785682001	215.312863537001	"5"	13995.600588049	13987.217676062	1.5	0.1
0.01	1	0.0190107970011013	1	54	225.102098162	NA	1	0	1.52	1	215.54963458	215.568645377001	"5"	13995.600588049	13987.217676062	1.5	0.1
0.01	1	0.0249822750010935	1	54	225.102098162	NA	1	0	1.52	1	215.80000361	215.824985885001	"5"	13995.600588049	13987.217676062	1.5	0.1
0.01	1	0.0308589010001015	1	54	225.102098162	NA	1	0	1.52	1	216.050438730001	216.081297631001	"5"	13995.600588049	13987.217676062	1.5	0.1
0.01	1	0.0187235749999672	1	54	225.102098162	NA	1	0	1.52	1	216.317563730001	216.336287305001	"5"	13995.600588049	13987.217676062	1.5	0.1
0.01	1	0.0157584389999101	1	54	225.102098162	NA	1	0	1.52	1	216.568018215001	216.583776654001	"5"	13995.600588049	13987.217676062	1.5	0.1
0.01	1	0.0151486609993299	1	54	225.102098162	NA	1	0	1.52	1	216.818444525001	216.833593186	"5"	13995.600588049	13987.217676062	1.5	0.1
0.01	1	0.00231316699864692	1	54	225.102098162	NA	1	0	1.52	1	217.068815665001	217.071128832	"5"	13995.600588049	13987.217676062	1.5	0.1
0.01	1	0.00210787600008189	1	54	225.102098162	NA	1	0	1.52	1	217.30260486	217.304712736001	"5"	13995.600588049	13987.217676062	1.5	0.1
0.01	1	0.0023663009997108	1	54	225.102098162	NA	1	0	1.52	1	217.536320314	217.538686615	"5"	13995.600588049	13987.217676062	1.5	0.1
0.01	1	0.0021401979993243	1	54	225.102098162	NA	1	0	1.52	1	217.769958238001	217.772098436	"5"	13995.600588049	13987.217676062	1.5	0.1
0.01	1	0.00214888600021368	1	54	225.102098162	NA	1	0	1.52	1	218.003731642	218.005880528	"5"	13995.600588049	13987.217676062	1.5	0.1
0.01	1	0.00445714600027713	1	54	225.102098162	NA	1	0	1.52	1	218.237490956	218.241948102001	"5"	13995.600588049	13987.217676062	1.5	0.1
0.01	1	0.00204782800028624	1	54	225.102098162	NA	1	0	1.52	1	218.471180109	218.473227937	"5"	13995.600588049	13987.217676062	1.5	0.1
0.01	1	0.00383402199986449	1	54	225.102098162	NA	1	0	1.52	1	218.70485222	218.708686242	"5"	13995.600588049	13987.217676062	1.5	0.1
0.01	1	0.0227685030004068	1	54	225.102098162	NA	1	0	1.52	1	218.938643067	218.961411570001	"5"	13995.600588049	13987.217676062	1.5	0.1
0.01	1	0.00223804699999164	1	54	225.102098162	NA	1	0	1.52	1	219.189069927001	219.191307974001	"5"	13995.600588049	13987.217676062	1.5	0.1
0.01	1	0.20973080099975	1	54	225.102098162	NA	1	0	1.52	1	219.422830147001	219.632560948001	"5"	13995.600588049	13987.217676062	1.5	0.1
0.01	1	0.00215497200042591	1	54	225.102098162	NA	1	0	1.52	1	219.856874594001	219.859029566001	"5"	13995.600588049	13987.217676062	1.5	0.1
0.01	1	0.00216707499930635	1	54	225.102098162	NA	1	0	1.52	1	220.090600520001	220.092767595001	"5"	13995.600588049	13987.217676062	1.5	0.1
0.01	1	0.00389715100027388	1	54	225.102098162	NA	1	0	1.52	1	220.324348807	220.328245958	"5"	13995.600588049	13987.217676062	1.5	0.1
0.01	1	0.275211989999661	1	54	225.102098162	NA	1	0	1.52	1	220.558112873001	220.833324863001	"5"	13995.600588049	13987.217676062	1.5	0.1
0.01	1	0.0943585680015531	1	54	225.102098162	NA	1	0	1.52	1	221.058920697	221.153279265001	"5"	13995.600588049	13987.217676062	1.5	0.1
0.01	1	0.00204846499946143	1	54	225.102098162	NA	1	0	1.52	1	221.376109495	221.37815796	"5"	13995.600588049	13987.217676062	1.5	0.1
0.01	1	0.117854041000101	1	54	225.102098162	NA	1	0	1.52	1	221.609835825	221.727689866	"5"	13995.600588049	13987.217676062	1.5	0.1
0.01	1	0.152680295001119	1	54	225.102098162	NA	1	0	1.52	1	221.96047	222.113150295001	"5"	13995.600588049	13987.217676062	1.5	0.1
0.01	1	0.00213336999877356	1	54	225.102098162	NA	1	0	1.52	1	222.344414349001	222.346547719	"5"	13995.600588049	13987.217676062	1.5	0.1
0.01	1	0.00402809400111437	1	54	225.102098162	NA	1	0	1.52	1	222.57813154	222.582159634001	"5"	13995.600588049	13987.217676062	1.5	0.1
0.01	1	0.108395537999968	1	54	225.102098162	NA	1	0	1.52	1	222.811924670001	222.920320208001	"5"	13995.600588049	13987.217676062	1.5	0.1
0.01	1	0.00216125000042666	1	54	225.102098162	NA	1	0	1.52	1	223.145787445001	223.147948695001	"5"	13995.600588049	13987.217676062	1.5	0.1
0.01	1	0.00210725600118167	1	54	225.102098162	NA	1	0	1.52	1	223.37949039	223.381597646001	"5"	13995.600588049	13987.217676062	1.5	0.1
0.01	1	0.163725671998691	1	54	225.102098162	NA	1	0	1.52	1	223.613088302001	223.776813974	"5"	13995.600588049	13987.217676062	1.5	0.1
0.01	1	0.00209450199872663	1	54	225.102098162	NA	1	0	1.52	1	224.013940636001	224.016035138	"5"	13995.600588049	13987.217676062	1.5	0.1
0.01	1	0.161397406998731	1	54	225.102098162	NA	1	0	1.52	1	224.247590767001	224.408988174	"5"	13995.600588049	13987.217676062	1.5	0.1
0.01	1	0.00455644700014091	1	54	225.102098162	NA	1	0	1.52	1	224.648284935001	224.652841382001	"5"	13995.600588049	13987.217676062	1.5	0.1
0.01	1	0.110059390999595	1	54	225.102098162	NA	1	0	1.52	1	224.882056260001	224.992115651001	"5"	13995.600588049	13987.217676062	1.5	0.1
0.01	1	1.60885325399977	1	112	NA	237.938790476001	0	0.26	1.78	1	227.135742483	228.744595737	"6"	13995.600588049	13987.217676062	1.5	0.1
0.01	1	0.00213674000042374	1	112	NA	237.938790476001	0	0.26	1.78	1	228.972182146001	228.974318886001	"6"	13995.600588049	13987.217676062	1.5	0.1
0.01	1	0.13068971499888	1	112	NA	237.938790476001	0	0.26	1.78	1	229.205978515001	229.33666823	"6"	13995.600588049	13987.217676062	1.5	0.1
0.01	1	0.0039171720000013	1	112	NA	237.938790476001	0	0.26	1.78	1	229.57326791	229.577185082	"6"	13995.600588049	13987.217676062	1.5	0.1
0.01	1	0.00999124700138054	1	112	NA	237.938790476001	0	0.26	1.78	1	229.806993327	229.816984574001	"6"	13995.600588049	13987.217676062	1.5	0.1
0.01	1	0.00399480400119501	1	112	NA	237.938790476001	0	0.26	1.78	1	230.040656702	230.044651506001	"6"	13995.600588049	13987.217676062	1.5	0.1
0.01	1	0.182811464001134	1	112	NA	237.938790476001	0	0.26	1.78	1	230.274391285	230.457202749001	"6"	13995.600588049	13987.217676062	1.5	0.1
0.01	1	0.00335682800141512	1	112	NA	237.938790476001	0	0.26	1.78	1	230.691756208	230.695113036001	"6"	13995.600588049	13987.217676062	1.5	0.1
0.01	1	0.0910582270007581	1	112	NA	237.938790476001	0	0.26	1.78	1	230.925466475001	231.016524702001	"6"	13995.600588049	13987.217676062	1.5	0.1
0.01	1	0.10891184799948	1	112	NA	237.938790476001	0	0.26	1.78	1	231.242660358001	231.351572206	"6"	13995.600588049	13987.217676062	1.5	0.1
0.01	1	0.00401841900020372	1	112	NA	237.938790476001	0	0.26	1.78	1	231.576542697001	231.580561116001	"6"	13995.600588049	13987.217676062	1.5	0.1
0.01	1	0.0459119480001391	1	112	NA	237.938790476001	0	0.26	1.78	1	231.810330496	231.856242444001	"6"	13995.600588049	13987.217676062	1.5	0.1
0.01	1	0.00462001000050805	1	112	NA	237.938790476001	0	0.26	1.78	1	232.094181607001	232.098801617001	"6"	13995.600588049	13987.217676062	1.5	0.1
0.01	1	0.0719583099998999	1	112	NA	237.938790476001	0	0.26	1.78	1	232.327789495001	232.399747805001	"6"	13995.600588049	13987.217676062	1.5	0.1
0.01	1	0.00207073499950639	1	112	NA	237.938790476001	0	0.26	1.78	1	232.628329508001	232.630400243001	"6"	13995.600588049	13987.217676062	1.5	0.1
0.01	1	0.105609281999932	1	112	NA	237.938790476001	0	0.26	1.78	1	232.862048305	232.967657587	"6"	13995.600588049	13987.217676062	1.5	0.1
0.01	1	0.00366182899961132	1	112	NA	237.938790476001	0	0.26	1.78	1	233.195904127	233.199565956	"6"	13995.600588049	13987.217676062	1.5	0.1
0.01	1	1.26695678899887	1	112	NA	237.938790476001	0	0.26	1.78	1	233.429691860001	234.696648649	"6"	13995.600588049	13987.217676062	1.5	0.1
0.01	1	0.0021665429994755	1	112	NA	237.938790476001	0	0.26	1.78	1	234.932216430001	234.934382973001	"6"	13995.600588049	13987.217676062	1.5	0.1
0.01	1	0.0827568589993462	1	112	NA	237.938790476001	0	0.26	1.78	1	235.166018200001	235.248775059001	"6"	13995.600588049	13987.217676062	1.5	0.1
0.01	1	0.00210469499870669	1	112	NA	237.938790476001	0	0.26	1.78	1	235.483178845001	235.48528354	"6"	13995.600588049	13987.217676062	1.5	0.1
0.01	1	0.0672683829998277	1	112	NA	237.938790476001	0	0.26	1.78	1	235.716930875	235.784199258	"6"	13995.600588049	13987.217676062	1.5	0.1
0.01	1	0.0041988160010078	1	112	NA	237.938790476001	0	0.26	1.78	1	236.017349082	236.021547898001	"6"	13995.600588049	13987.217676062	1.5	0.1
0.01	1	0.0853764540006523	1	112	NA	237.938790476001	0	0.26	1.78	1	236.25102077	236.336397224	"6"	13995.600588049	13987.217676062	1.5	0.1
0.01	1	0.248822113000642	1	112	NA	237.938790476001	0	0.26	1.78	1	236.568393805001	236.817215918001	"6"	13995.600588049	13987.217676062	1.5	0.1
0.01	1	0.0846587060004822	1	112	NA	237.938790476001	0	0.26	1.78	1	237.052514919	237.137173625	"6"	13995.600588049	13987.217676062	1.5	0.1
0.01	1	0.567468888999429	2	112	NA	237.938790476001	0	0.26	1.78	1	237.36974462	237.937213509	"6"	13995.600588049	13987.217676062	1.5	0.1
0.01	1	0.497316048998982	1	59	283.11722767	NA	1	0	1.78	1	239.990718165001	240.488034214	"7"	13995.600588049	13987.217676062	1.5	0.1
0.01	1	0.115611340999749	1	59	283.11722767	NA	1	0	1.78	1	240.725328330002	240.840939671001	"7"	13995.600588049	13987.217676062	1.5	0.1
0.01	1	0.0284507170017605	1	59	283.11722767	NA	1	0	1.78	1	241.075927442	241.104378159001	"7"	13995.600588049	13987.217676062	1.5	0.1
0.01	1	0.018729045001237	1	59	283.11722767	NA	1	0	1.78	1	241.32640765	241.345136695001	"7"	13995.600588049	13987.217676062	1.5	0.1
0.01	1	0.0154273719999765	1	59	283.11722767	NA	1	0	1.78	1	241.576688295001	241.592115667001	"7"	13995.600588049	13987.217676062	1.5	0.1
0.01	1	0.461655967001207	1	59	283.11722767	NA	1	0	1.78	1	241.827201069	242.288857036001	"7"	13995.600588049	13987.217676062	1.5	0.1
0.01	1	0.00213180700120574	1	59	283.11722767	NA	1	0	1.78	1	242.511609129	242.513740936001	"7"	13995.600588049	13987.217676062	1.5	0.1
0.01	1	0.00385322300098778	1	59	283.11722767	NA	1	0	1.78	1	242.745357995	242.749211218001	"7"	13995.600588049	13987.217676062	1.5	0.1
0.01	1	0.0286404269991181	1	59	283.11722767	NA	1	0	1.78	1	242.979143775001	243.007784202	"7"	13995.600588049	13987.217676062	1.5	0.1
0.01	1	0.0496515570011979	1	59	283.11722767	NA	1	0	1.78	1	243.24626851	243.295920067001	"7"	13995.600588049	13987.217676062	1.5	0.1
0.01	1	0.0470773720007855	1	59	283.11722767	NA	1	0	1.78	1	243.53012555	243.577202922001	"7"	13995.600588049	13987.217676062	1.5	0.1
0.01	1	0.0496857750003983	1	59	283.11722767	NA	1	0	1.78	1	243.813787957	243.863473732001	"7"	13995.600588049	13987.217676062	1.5	0.1
0.01	1	0.0638076550003461	1	59	283.11722767	NA	1	0	1.78	1	244.09755543	244.161363085001	"7"	13995.600588049	13987.217676062	1.5	0.1
0.01	1	0.106808374999673	1	59	283.11722767	NA	1	0	1.78	1	244.398231590001	244.505039965001	"7"	13995.600588049	13987.217676062	1.5	0.1
0.01	1	0.0523385650012642	1	59	283.11722767	NA	1	0	1.78	1	244.732035375	244.784373940001	"7"	13995.600588049	13987.217676062	1.5	0.1
0.01	1	0.0718032460008544	1	59	283.11722767	NA	1	0	1.78	1	245.015900126	245.087703372001	"7"	13995.600588049	13987.217676062	1.5	0.1
0.01	1	1.20482972799982	1	59	283.11722767	NA	1	0	1.78	1	245.316401830001	246.521231558001	"7"	13995.600588049	13987.217676062	1.5	0.1
0.01	1	0.240542454001115	1	59	283.11722767	NA	1	0	1.78	1	246.75216722	246.992709674001	"7"	13995.600588049	13987.217676062	1.5	0.1
0.01	1	0.261031157999241	1	59	283.11722767	NA	1	0	1.78	1	247.219618045001	247.480649203	"7"	13995.600588049	13987.217676062	1.5	0.1
0.01	1	3.14410625900018	1	59	283.11722767	NA	1	0	1.78	1	247.703845865	250.847952124001	"7"	13995.600588049	13987.217676062	1.5	0.1
0.01	1	0.461381907000032	1	59	283.11722767	NA	1	0	1.78	1	251.076061380001	251.537443287001	"7"	13995.600588049	13987.217676062	1.5	0.1
0.01	1	0.302724462999322	1	59	283.11722767	NA	1	0	1.78	1	251.777180810001	252.079905273	"7"	13995.600588049	13987.217676062	1.5	0.1
0.01	1	0.273927187001391	1	59	283.11722767	NA	1	0	1.78	1	252.31149611	252.585423297001	"7"	13995.600588049	13987.217676062	1.5	0.1
0.01	1	0.285364097000638	1	59	283.11722767	NA	1	0	1.78	1	252.812285735001	253.097649832001	"7"	13995.600588049	13987.217676062	1.5	0.1
0.01	1	0.325952810000672	1	59	283.11722767	NA	1	0	1.78	1	253.329841905001	253.655794715001	"7"	13995.600588049	13987.217676062	1.5	0.1
0.01	1	0.366671920999579	1	59	283.11722767	NA	1	0	1.78	1	253.88083179	254.247503711	"7"	13995.600588049	13987.217676062	1.5	0.1
0.01	1	0.278398540000126	1	59	283.11722767	NA	1	0	1.78	1	254.48174166	254.7601402	"7"	13995.600588049	13987.217676062	1.5	0.1
0.01	1	0.00211908399978711	1	59	283.11722767	NA	1	0	1.78	1	254.999303495	255.001422579	"7"	13995.600588049	13987.217676062	1.5	0.1
0.01	1	0.590634268999565	1	59	283.11722767	NA	1	0	1.78	1	255.233175717001	255.823809986001	"7"	13995.600588049	13987.217676062	1.5	0.1
0.01	1	0.445144987999811	1	59	283.11722767	NA	1	0	1.78	1	256.051032500001	256.496177488001	"7"	13995.600588049	13987.217676062	1.5	0.1
0.01	1	0.425575434999701	1	59	283.11722767	NA	1	0	1.78	1	256.71880407	257.144379505	"7"	13995.600588049	13987.217676062	1.5	0.1
0.01	1	0.533549059000507	1	59	283.11722767	NA	1	0	1.78	1	257.369979176001	257.903528235001	"7"	13995.600588049	13987.217676062	1.5	0.1
0.01	1	0.591375404001155	1	59	283.11722767	NA	1	0	1.78	1	258.13801866	258.729394064001	"7"	13995.600588049	13987.217676062	1.5	0.1
0.01	1	0.493429146999915	1	59	283.11722767	NA	1	0	1.78	1	258.955932397001	259.449361544001	"7"	13995.600588049	13987.217676062	1.5	0.1
0.01	1	3.2224988830003	1	59	283.11722767	NA	1	0	1.78	1	259.673852785001	262.896351668001	"7"	13995.600588049	13987.217676062	1.5	0.1
0.01	1	0.76682011900084	1	59	283.11722767	NA	1	0	1.78	1	263.129684592001	263.896504711001	"7"	13995.600588049	13987.217676062	1.5	0.1
0.01	1	0.484430959000747	1	59	283.11722767	NA	1	0	1.78	1	264.131407732	264.615838691001	"7"	13995.600588049	13987.217676062	1.5	0.1
0.01	1	0.520222590999765	1	59	283.11722767	NA	1	0	1.78	1	264.849190185001	265.369412776001	"7"	13995.600588049	13987.217676062	1.5	0.1
0.01	1	0.536637805000282	1	59	283.11722767	NA	1	0	1.78	1	265.600508917001	266.137146722001	"7"	13995.600588049	13987.217676062	1.5	0.1
0.01	1	0.976852970999971	1	59	283.11722767	NA	1	0	1.78	1	266.368525265001	267.345378236001	"7"	13995.600588049	13987.217676062	1.5	0.1
0.01	1	0.917310888000429	1	59	283.11722767	NA	1	0	1.78	1	267.570513640001	268.487824528002	"7"	13995.600588049	13987.217676062	1.5	0.1
0.01	1	0.421472614998493	1	59	283.11722767	NA	1	0	1.78	1	268.722390730001	269.143863345	"7"	13995.600588049	13987.217676062	1.5	0.1
0.01	1	2.89133418900019	1	59	283.11722767	NA	1	0	1.78	1	269.373499765001	272.264833954001	"7"	13995.600588049	13987.217676062	1.5	0.1
0.01	1	0.60145265599931	1	59	283.11722767	NA	1	0	1.78	1	272.495469590001	273.096922246001	"7"	13995.600588049	13987.217676062	1.5	0.1
0.01	1	0.678209649000564	1	59	283.11722767	NA	1	0	1.78	1	273.330180085	274.008389734001	"7"	13995.600588049	13987.217676062	1.5	0.1
0.01	1	0.352112038000996	1	59	283.11722767	NA	1	0	1.78	1	274.23177552	274.583887558001	"7"	13995.600588049	13987.217676062	1.5	0.1
0.01	1	0.969554535999123	1	59	283.11722767	NA	1	0	1.78	1	274.816021680001	275.785576216	"7"	13995.600588049	13987.217676062	1.5	0.1
0.01	1	0.486008678999497	1	59	283.11722767	NA	1	0	1.78	1	276.018071190001	276.504079869001	"7"	13995.600588049	13987.217676062	1.5	0.1
0.01	1	0.424060908000683	1	59	283.11722767	NA	1	0	1.78	1	276.73597759	277.160038498001	"7"	13995.600588049	13987.217676062	1.5	0.1
0.01	1	0.334067378998952	1	59	283.11722767	NA	1	0	1.78	1	277.387034307001	277.721101686	"7"	13995.600588049	13987.217676062	1.5	0.1
0.01	1	0.350953097000456	1	59	283.11722767	NA	1	0	1.78	1	277.954668945	278.305622042	"7"	13995.600588049	13987.217676062	1.5	0.1
0.01	1	0.205531274999885	1	59	283.11722767	NA	1	0	1.78	1	278.53892936	278.744460635	"7"	13995.600588049	13987.217676062	1.5	0.1
0.01	1	0.155900832998668	1	59	283.11722767	NA	1	0	1.78	1	278.973054625001	279.128955458	"7"	13995.600588049	13987.217676062	1.5	0.1
0.01	1	0.387417080999512	1	59	283.11722767	NA	1	0	1.78	1	279.356944017001	279.744361098001	"7"	13995.600588049	13987.217676062	1.5	0.1
0.01	1	0.642309214999841	1	59	283.11722767	NA	1	0	1.78	1	279.974755390002	280.617064605001	"7"	13995.600588049	13987.217676062	1.5	0.1
0.01	1	0.00389822500073933	1	59	283.11722767	NA	1	0	1.78	1	280.842786595	280.846684820001	"7"	13995.600588049	13987.217676062	1.5	0.1
0.01	1	0.140724693001175	1	59	283.11722767	NA	1	0	1.78	1	281.07647917	281.217203863001	"7"	13995.600588049	13987.217676062	1.5	0.1
0.01	1	0.372601257000497	1	59	283.11722767	NA	1	0	1.78	1	281.443803222	281.816404479001	"7"	13995.600588049	13987.217676062	1.5	0.1
0.01	1	0.9562226679991	1	59	283.11722767	NA	1	0	1.78	1	282.044856800001	283.001079468	"7"	13995.600588049	13987.217676062	1.5	0.1
0.01	1	1.28924889800146	1	93	NA	300.785759592001	0	0.53	2.31	1	285.166807795	286.456056693001	"8"	13995.600588049	13987.217676062	1.5	0.1
0.01	1	0.0666586949992052	1	93	NA	300.785759592001	0	0.53	2.31	1	286.685938840001	286.752597535	"8"	13995.600588049	13987.217676062	1.5	0.1
0.01	1	0.00213355400046567	1	93	NA	300.785759592001	0	0.53	2.31	1	286.986422078	286.988555632	"8"	13995.600588049	13987.217676062	1.5	0.1
0.01	1	0.0609891370004334	1	93	NA	300.785759592001	0	0.53	2.31	1	287.2202622	287.281251337001	"8"	13995.600588049	13987.217676062	1.5	0.1
0.01	1	0.00409014300021227	1	93	NA	300.785759592001	0	0.53	2.31	1	287.504074385	287.508164528001	"8"	13995.600588049	13987.217676062	1.5	0.1
0.01	1	0.0156304620013543	1	93	NA	300.785759592001	0	0.53	2.31	1	287.737735555	287.753366017001	"8"	13995.600588049	13987.217676062	1.5	0.1
0.01	1	0.00387101900014386	1	93	NA	300.785759592001	0	0.53	2.31	1	287.988154367	287.992025386	"8"	13995.600588049	13987.217676062	1.5	0.1
0.01	1	0.0503303639998194	1	93	NA	300.785759592001	0	0.53	2.31	1	288.221816535	288.272146899	"8"	13995.600588049	13987.217676062	1.5	0.1
0.01	1	0.00212919499972486	1	93	NA	300.785759592001	0	0.53	2.31	1	288.505778370001	288.507907565001	"8"	13995.600588049	13987.217676062	1.5	0.1
0.01	1	0.0530777240001044	1	93	NA	300.785759592001	0	0.53	2.31	1	288.73948767	288.792565394	"8"	13995.600588049	13987.217676062	1.5	0.1
0.01	1	0.0653765379993274	1	93	NA	300.785759592001	0	0.53	2.31	1	289.023233814001	289.088610352001	"8"	13995.600588049	13987.217676062	1.5	0.1
0.01	1	0.00222749999920779	1	93	NA	300.785759592001	0	0.53	2.31	1	289.323738660001	289.32596616	"8"	13995.600588049	13987.217676062	1.5	0.1
0.01	1	0.034518473999924	1	93	NA	300.785759592001	0	0.53	2.31	1	289.557579885	289.592098359	"8"	13995.600588049	13987.217676062	1.5	0.1
0.01	1	0.00404256399997394	1	93	NA	300.785759592001	0	0.53	2.31	1	289.824663970001	289.828706534001	"8"	13995.600588049	13987.217676062	1.5	0.1
0.01	1	0.0550725040011457	1	93	NA	300.785759592001	0	0.53	2.31	1	290.058388915	290.113461419001	"8"	13995.600588049	13987.217676062	1.5	0.1
0.01	1	0.106905407999875	1	93	NA	300.785759592001	0	0.53	2.31	1	290.342279070001	290.449184478	"8"	13995.600588049	13987.217676062	1.5	0.1
0.01	1	0.00398278300053789	1	93	NA	300.785759592001	0	0.53	2.31	1	290.676030457	290.68001324	"8"	13995.600588049	13987.217676062	1.5	0.1
0.01	1	0.0580694979998952	1	93	NA	300.785759592001	0	0.53	2.31	1	290.909757638001	290.967827136001	"8"	13995.600588049	13987.217676062	1.5	0.1
0.01	1	0.00466789200072526	1	93	NA	300.785759592001	0	0.53	2.31	1	291.193565795	291.198233687001	"8"	13995.600588049	13987.217676062	1.5	0.1
0.01	1	0.117842026000289	1	93	NA	300.785759592001	0	0.53	2.31	1	291.42729704	291.545139066	"8"	13995.600588049	13987.217676062	1.5	0.1
0.01	1	0.00684979899961036	1	93	NA	300.785759592001	0	0.53	2.31	1	291.777794567	291.784644366	"8"	13995.600588049	13987.217676062	1.5	0.1
0.01	1	0.0214789250003378	1	93	NA	300.785759592001	0	0.53	2.31	1	292.011552055001	292.033030980001	"8"	13995.600588049	13987.217676062	1.5	0.1
0.01	1	0.00412085599964485	1	93	NA	300.785759592001	0	0.53	2.31	1	292.26206384	292.266184696	"8"	13995.600588049	13987.217676062	1.5	0.1
0.01	1	0.00226028099859832	1	93	NA	300.785759592001	0	0.53	2.31	1	292.495700565001	292.497960846	"8"	13995.600588049	13987.217676062	1.5	0.1
0.01	1	0.0039899819985294	1	93	NA	300.785759592001	0	0.53	2.31	1	292.729463430001	292.733453412	"8"	13995.600588049	13987.217676062	1.5	0.1
0.01	1	0.101205655999365	1	93	NA	300.785759592001	0	0.53	2.31	1	292.963239107001	293.064444763	"8"	13995.600588049	13987.217676062	1.5	0.1
0.01	1	0.00228455999967991	1	93	NA	300.785759592001	0	0.53	2.31	1	293.297155604001	293.299440164001	"8"	13995.600588049	13987.217676062	1.5	0.1
0.01	1	0.00230390700016869	1	93	NA	300.785759592001	0	0.53	2.31	1	293.530917657001	293.533221564001	"8"	13995.600588049	13987.217676062	1.5	0.1
0.01	1	0.00396171799911826	1	93	NA	300.785759592001	0	0.53	2.31	1	293.764530410001	293.768492128	"8"	13995.600588049	13987.217676062	1.5	0.1
0.01	1	0.106076201998803	1	93	NA	300.785759592001	0	0.53	2.31	1	293.998262357001	294.104338559	"8"	13995.600588049	13987.217676062	1.5	0.1
0.01	1	0.00460590500006219	1	93	NA	300.785759592001	0	0.53	2.31	1	294.332153975001	294.336759880001	"8"	13995.600588049	13987.217676062	1.5	0.1
0.01	1	0.178870174999247	1	93	NA	300.785759592001	0	0.53	2.31	1	294.565786787001	294.744656962001	"8"	13995.600588049	13987.217676062	1.5	0.1
0.01	1	0.0166656199999125	1	93	NA	300.785759592001	0	0.53	2.31	1	294.98336097	295.00002659	"8"	13995.600588049	13987.217676062	1.5	0.1
0.01	1	0.0396056110002974	1	93	NA	300.785759592001	0	0.53	2.31	1	295.233747947001	295.273353558001	"8"	13995.600588049	13987.217676062	1.5	0.1
0.01	1	0.0190635669987387	1	93	NA	300.785759592001	0	0.53	2.31	1	295.500769272001	295.519832839	"8"	13995.600588049	13987.217676062	1.5	0.1
0.01	1	0.00348648799990769	1	93	NA	300.785759592001	0	0.53	2.31	1	295.751165110001	295.754651598001	"8"	13995.600588049	13987.217676062	1.5	0.1
0.01	1	0.00207258600130444	1	93	NA	300.785759592001	0	0.53	2.31	1	295.984917455	295.986990041001	"8"	13995.600588049	13987.217676062	1.5	0.1
0.01	1	0.004043778999403	1	93	NA	300.785759592001	0	0.53	2.31	1	296.218742527	296.222786306	"8"	13995.600588049	13987.217676062	1.5	0.1
0.01	1	0.108628361000228	1	93	NA	300.785759592001	0	0.53	2.31	1	296.452545434	296.561173795	"8"	13995.600588049	13987.217676062	1.5	0.1
0.01	1	0.00210896200042043	1	93	NA	300.785759592001	0	0.53	2.31	1	296.786317364	296.788426326	"8"	13995.600588049	13987.217676062	1.5	0.1
0.01	1	0.00206930799868132	1	93	NA	300.785759592001	0	0.53	2.31	1	297.020025708001	297.022095016	"8"	13995.600588049	13987.217676062	1.5	0.1
0.01	1	0.0739689250003721	1	93	NA	300.785759592001	0	0.53	2.31	1	297.253753645	297.32772257	"8"	13995.600588049	13987.217676062	1.5	0.1
0.01	1	0.00211354800012487	1	93	NA	300.785759592001	0	0.53	2.31	1	297.554245908001	297.556359456001	"8"	13995.600588049	13987.217676062	1.5	0.1
0.01	1	0.00209051100137003	1	93	NA	300.785759592001	0	0.53	2.31	1	297.787966537	297.790057048001	"8"	13995.600588049	13987.217676062	1.5	0.1
0.01	1	0.121686956999838	1	93	NA	300.785759592001	0	0.53	2.31	1	298.021736315	298.143423272	"8"	13995.600588049	13987.217676062	1.5	0.1
0.01	1	0.00213404300120601	1	93	NA	300.785759592001	0	0.53	2.31	1	298.372312611	298.374446654001	"8"	13995.600588049	13987.217676062	1.5	0.1
0.01	1	0.00305828100135841	1	93	NA	300.785759592001	0	0.53	2.31	1	298.605962828	298.609021109001	"8"	13995.600588049	13987.217676062	1.5	0.1
0.01	1	0.00211630500052706	1	93	NA	300.785759592001	0	0.53	2.31	1	298.839805844	298.841922149	"8"	13995.600588049	13987.217676062	1.5	0.1
0.01	1	0.119908333999774	1	93	NA	300.785759592001	0	0.53	2.31	1	299.073410772	299.193319106	"8"	13995.600588049	13987.217676062	1.5	0.1
0.01	1	0.0956345720005629	1	93	NA	300.785759592001	0	0.53	2.31	1	299.42404125	299.519675822001	"8"	13995.600588049	13987.217676062	1.5	0.1
0.01	1	0.161685369001134	1	93	NA	300.785759592001	0	0.53	2.31	1	299.757923436	299.919608805001	"8"	13995.600588049	13987.217676062	1.5	0.1
0.01	1	0.00329544600026566	1	93	NA	300.785759592001	0	0.53	2.31	1	300.141952922	300.145248368	"8"	13995.600588049	13987.217676062	1.5	0.1
0.01	1	0.0043822010011354	1	93	NA	300.785759592001	0	0.53	2.31	1	300.375692369	300.380074570001	"8"	13995.600588049	13987.217676062	1.5	0.1
0.01	1	0.174802859999545	2	93	NA	300.785759592001	0	0.53	2.31	1	300.609423175001	300.784226035001	"8"	13995.600588049	13987.217676062	1.5	0.1
0.01	1	2.25059389199851	1	65	NA	319.818921686001	0	0.42	2.73	1	302.829867780001	305.080461672	"9"	13995.600588049	13987.217676062	1.5	0.1
0.01	1	0.0678498100005527	1	65	NA	319.818921686001	0	0.42	2.73	1	305.317367715001	305.385217525001	"9"	13995.600588049	13987.217676062	1.5	0.1
0.01	1	0.0715708260013344	1	65	NA	319.818921686001	0	0.42	2.73	1	305.617818285	305.689389111001	"9"	13995.600588049	13987.217676062	1.5	0.1
0.01	1	0.0420822300002328	1	65	NA	319.818921686001	0	0.42	2.73	1	305.918336695	305.960418925	"9"	13995.600588049	13987.217676062	1.5	0.1
0.01	1	0.0879178269988188	1	65	NA	319.818921686001	0	0.42	2.73	1	306.185344847001	306.273262674	"9"	13995.600588049	13987.217676062	1.5	0.1
0.01	1	0.0659473529995012	1	65	NA	319.818921686001	0	0.42	2.73	1	306.502580045	306.568527398	"9"	13995.600588049	13987.217676062	1.5	0.1
0.01	1	0.0853103239987831	1	65	NA	319.818921686001	0	0.42	2.73	1	306.803242593001	306.888552917	"9"	13995.600588049	13987.217676062	1.5	0.1
0.01	1	0.0158486569998786	1	65	NA	319.818921686001	0	0.42	2.73	1	307.120384407001	307.136233064	"9"	13995.600588049	13987.217676062	1.5	0.1
0.01	1	0.0457809809995524	1	65	NA	319.818921686001	0	0.42	2.73	1	307.370773750001	307.416554731	"9"	13995.600588049	13987.217676062	1.5	0.1
0.01	1	0.00410480800019286	1	65	NA	319.818921686001	0	0.42	2.73	1	307.65447908	307.658583888	"9"	13995.600588049	13987.217676062	1.5	0.1
0.01	1	0.0636805579997599	1	65	NA	319.818921686001	0	0.42	2.73	1	307.888293710001	307.951974268	"9"	13995.600588049	13987.217676062	1.5	0.1
0.01	1	0.0513109780004015	1	65	NA	319.818921686001	0	0.42	2.73	1	308.188781790001	308.240092768001	"9"	13995.600588049	13987.217676062	1.5	0.1
0.01	1	0.056291692000741	1	65	NA	319.818921686001	0	0.42	2.73	1	308.472593336001	308.528885028001	"9"	13995.600588049	13987.217676062	1.5	0.1
0.01	1	0.0688532320000377	1	65	NA	319.818921686001	0	0.42	2.73	1	308.75648883	308.825342062	"9"	13995.600588049	13987.217676062	1.5	0.1
0.01	1	0.0625330859984388	1	65	NA	319.818921686001	0	0.42	2.73	1	309.057019380001	309.119552466	"9"	13995.600588049	13987.217676062	1.5	0.1
0.01	1	0.0827569469984155	1	65	NA	319.818921686001	0	0.42	2.73	1	309.340662215001	309.423419162	"9"	13995.600588049	13987.217676062	1.5	0.1
0.01	1	0.0629096199991181	1	65	NA	319.818921686001	0	0.42	2.73	1	309.658029055001	309.720938675	"9"	13995.600588049	13987.217676062	1.5	0.1
0.01	1	0.0668182839999645	1	65	NA	319.818921686001	0	0.42	2.73	1	309.958516050001	310.025334334001	"9"	13995.600588049	13987.217676062	1.5	0.1
0.01	1	0.0453810770013661	1	65	NA	319.818921686001	0	0.42	2.73	1	310.258962385	310.304343462001	"9"	13995.600588049	13987.217676062	1.5	0.1
0.01	1	0.049362886000381	1	65	NA	319.818921686001	0	0.42	2.73	1	310.542801940001	310.592164826001	"9"	13995.600588049	13987.217676062	1.5	0.1
0.01	1	0.0466471529998671	1	65	NA	319.818921686001	0	0.42	2.73	1	310.826550095	310.873197248	"9"	13995.600588049	13987.217676062	1.5	0.1
0.01	1	0.0501098929998989	1	65	NA	319.818921686001	0	0.42	2.73	1	311.110356407	311.1604663	"9"	13995.600588049	13987.217676062	1.5	0.1
0.01	1	0.0550429009999789	1	65	NA	319.818921686001	0	0.42	2.73	1	311.394100747	311.449143648	"9"	13995.600588049	13987.217676062	1.5	0.1
0.01	1	0.059382846000517	1	65	NA	319.818921686001	0	0.42	2.73	1	311.678114385	311.737497231001	"9"	13995.600588049	13987.217676062	1.5	0.1
0.01	1	0.0796205749993533	1	65	NA	319.818921686001	0	0.42	2.73	1	311.961808665001	312.04142924	"9"	13995.600588049	13987.217676062	1.5	0.1
0.01	1	0.37654528100029	1	65	NA	319.818921686001	0	0.42	2.73	1	312.279034970001	312.655580251001	"9"	13995.600588049	13987.217676062	1.5	0.1
0.01	1	0.047507322000456	1	65	NA	319.818921686001	0	0.42	2.73	1	312.880093940001	312.927601262001	"9"	13995.600588049	13987.217676062	1.5	0.1
0.01	1	0.0852314420008042	1	65	NA	319.818921686001	0	0.42	2.73	1	313.163939975	313.249171417001	"9"	13995.600588049	13987.217676062	1.5	0.1
0.01	1	0.0643698359999689	1	65	NA	319.818921686001	0	0.42	2.73	1	313.481073875	313.545443711	"9"	13995.600588049	13987.217676062	1.5	0.1
0.01	1	0.0835070590001123	1	65	NA	319.818921686001	0	0.42	2.73	1	313.781531967001	313.865039026001	"9"	13995.600588049	13987.217676062	1.5	0.1
0.01	1	0.148763466999299	1	65	NA	319.818921686001	0	0.42	2.73	1	314.098789715001	314.247553182	"9"	13995.600588049	13987.217676062	1.5	0.1
0.01	1	0.102556973000901	1	65	NA	319.818921686001	0	0.42	2.73	1	314.482853415	314.585410388001	"9"	13995.600588049	13987.217676062	1.5	0.1
0.01	1	0.112556878999385	1	65	NA	319.818921686001	0	0.42	2.73	1	314.816701270001	314.929258149001	"9"	13995.600588049	13987.217676062	1.5	0.1
0.01	1	0.648291949999475	1	65	NA	319.818921686001	0	0.42	2.73	1	315.167151810001	315.815443760001	"9"	13995.600588049	13987.217676062	1.5	0.1
0.01	1	0.236173322000468	1	65	NA	319.818921686001	0	0.42	2.73	1	316.05205636	316.288229682001	"9"	13995.600588049	13987.217676062	1.5	0.1
0.01	1	0.13728977000028	1	65	NA	319.818921686001	0	0.42	2.73	1	316.519560672001	316.656850442001	"9"	13995.600588049	13987.217676062	1.5	0.1
0.01	1	0.137295519998588	1	65	NA	319.818921686001	0	0.42	2.73	1	316.886819590001	317.02411511	"9"	13995.600588049	13987.217676062	1.5	0.1
0.01	1	0.113478172999748	1	65	NA	319.818921686001	0	0.42	2.73	1	317.254075030001	317.367553203001	"9"	13995.600588049	13987.217676062	1.5	0.1
0.01	1	0.0353807070005132	1	65	NA	319.818921686001	0	0.42	2.73	1	317.604686660001	317.640067367001	"9"	13995.600588049	13987.217676062	1.5	0.1
0.01	1	0.00389245599944843	1	65	NA	319.818921686001	0	0.42	2.73	1	317.871828602001	317.875721058001	"9"	13995.600588049	13987.217676062	1.5	0.1
0.01	1	0.00367389399980311	1	65	NA	319.818921686001	0	0.42	2.73	1	318.105505132	318.109179026	"9"	13995.600588049	13987.217676062	1.5	0.1
0.01	1	0.629701888999989	1	65	NA	319.818921686001	0	0.42	2.73	1	318.339225475002	318.968927364002	"9"	13995.600588049	13987.217676062	1.5	0.1
0.01	1	0.610044199000185	2	65	NA	319.818921686001	0	0.42	2.73	1	319.207324377001	319.817368576001	"9"	13995.600588049	13987.217676062	1.5	0.1
0.01	1	1.17839395299961	2	111	NA	323.041862845001	0	0	2.73	1	321.861897667	323.04029162	"10"	13995.600588049	13987.217676062	1.5	0.1
0.01	1	0.819512022999334	1	49	342.015582387001	NA	1	0	2.73	1	325.100638685	325.920150708	"11"	13995.600588049	13987.217676062	1.5	0.1
0.01	1	0.00216939699930663	1	49	342.015582387001	NA	1	0	2.73	1	326.152400185001	326.154569582	"11"	13995.600588049	13987.217676062	1.5	0.1
0.01	1	0.00465984200127423	1	49	342.015582387001	NA	1	0	2.73	1	326.386102315	326.390762157002	"11"	13995.600588049	13987.217676062	1.5	0.1
0.01	1	0.0602485239996895	1	49	342.015582387001	NA	1	0	2.73	1	326.619887960002	326.680136484001	"11"	13995.600588049	13987.217676062	1.5	0.1
0.01	1	0.00396913499935181	1	49	342.015582387001	NA	1	0	2.73	1	326.903589085001	326.90755822	"11"	13995.600588049	13987.217676062	1.5	0.1
0.01	1	0.0634196720002365	1	49	342.015582387001	NA	1	0	2.73	1	327.137347420001	327.200767092001	"11"	13995.600588049	13987.217676062	1.5	0.1
0.01	1	0.12249403199894	1	49	342.015582387001	NA	1	0	2.73	1	327.437887780001	327.560381812	"11"	13995.600588049	13987.217676062	1.5	0.1
0.01	1	0.0274035279999225	1	49	342.015582387001	NA	1	0	2.73	1	327.788488440001	327.815891968001	"11"	13995.600588049	13987.217676062	1.5	0.1
0.01	1	0.0424123580014566	1	49	342.015582387001	NA	1	0	2.73	1	328.03889052	328.081302878001	"11"	13995.600588049	13987.217676062	1.5	0.1
0.01	1	0.0461245059996145	1	49	342.015582387001	NA	1	0	2.73	1	328.305881905	328.352006411	"11"	13995.600588049	13987.217676062	1.5	0.1
0.01	1	0.0340956170002755	1	49	342.015582387001	NA	1	0	2.73	1	328.589855422	328.623951039001	"11"	13995.600588049	13987.217676062	1.5	0.1
0.01	1	0.00986804399872199	1	49	342.015582387001	NA	1	0	2.73	1	328.856891045001	328.866759089	"11"	13995.600588049	13987.217676062	1.5	0.1
0.01	1	0.0217781720002677	1	49	342.015582387001	NA	1	0	2.73	1	329.107360195001	329.129138367001	"11"	13995.600588049	13987.217676062	1.5	0.1
0.01	1	0.00294631199903961	1	49	342.015582387001	NA	1	0	2.73	1	329.357705566001	329.360651878	"11"	13995.600588049	13987.217676062	1.5	0.1
0.01	1	0.00462305099972582	1	49	342.015582387001	NA	1	0	2.73	1	329.591521539001	329.596144590001	"11"	13995.600588049	13987.217676062	1.5	0.1
0.01	1	0.00880721399880713	1	49	342.015582387001	NA	1	0	2.73	1	329.825176015001	329.833983229	"11"	13995.600588049	13987.217676062	1.5	0.1
0.01	1	0.0298905769996054	1	49	342.015582387001	NA	1	0	2.73	1	330.058910722	330.088801299	"11"	13995.600588049	13987.217676062	1.5	0.1
0.01	1	0.0974817070000427	1	49	342.015582387001	NA	1	0	2.73	1	330.326010775001	330.423492482001	"11"	13995.600588049	13987.217676062	1.5	0.1
0.01	1	0.0843031670010532	1	49	342.015582387001	NA	1	0	2.73	1	330.65995755	330.744260717001	"11"	13995.600588049	13987.217676062	1.5	0.1
0.01	1	0.0555293720008194	1	49	342.015582387001	NA	1	0	2.73	1	330.97713479	331.032664162001	"11"	13995.600588049	13987.217676062	1.5	0.1
0.01	1	0.315163937999387	1	49	342.015582387001	NA	1	0	2.73	1	331.261009530001	331.576173468	"11"	13995.600588049	13987.217676062	1.5	0.1
0.01	1	0.00727442800052813	1	49	342.015582387001	NA	1	0	2.73	1	331.811916922001	331.819191350001	"11"	13995.600588049	13987.217676062	1.5	0.1
0.01	1	0.027020227000321	1	49	342.015582387001	NA	1	0	2.73	1	332.045634637001	332.072654864001	"11"	13995.600588049	13987.217676062	1.5	0.1
0.01	1	0.00209343599999556	1	49	342.015582387001	NA	1	0	2.73	1	332.312697808	332.314791244	"11"	13995.600588049	13987.217676062	1.5	0.1
0.01	1	0.00207165099891427	1	49	342.015582387001	NA	1	0	2.73	1	332.546500100001	332.548571751	"11"	13995.600588049	13987.217676062	1.5	0.1
0.01	1	0.00224274100037292	1	49	342.015582387001	NA	1	0	2.73	1	332.780180504	332.782423245	"11"	13995.600588049	13987.217676062	1.5	0.1
0.01	1	0.139473757000815	1	49	342.015582387001	NA	1	0	2.73	1	333.01388796	333.153361717001	"11"	13995.600588049	13987.217676062	1.5	0.1
0.01	1	0.171628067000711	1	49	342.015582387001	NA	1	0	2.73	1	333.381235097	333.552863164001	"11"	13995.600588049	13987.217676062	1.5	0.1
0.01	1	0.00237118999939412	1	49	342.015582387001	NA	1	0	2.73	1	333.781839204001	333.784210394	"11"	13995.600588049	13987.217676062	1.5	0.1
0.01	1	0.00226186100007908	1	49	342.015582387001	NA	1	0	2.73	1	334.015583148001	334.017845009001	"11"	13995.600588049	13987.217676062	1.5	0.1
0.01	1	0.151404909000121	1	49	342.015582387001	NA	1	0	2.73	1	334.249394768001	334.400799677001	"11"	13995.600588049	13987.217676062	1.5	0.1
0.01	1	0.0951781120002124	1	49	342.015582387001	NA	1	0	2.73	1	334.633310585001	334.728488697001	"11"	13995.600588049	13987.217676062	1.5	0.1
0.01	1	0.0045280169997568	1	49	342.015582387001	NA	1	0	2.73	1	334.950484078001	334.955012095001	"11"	13995.600588049	13987.217676062	1.5	0.1
0.01	1	0.136192302999916	1	49	342.015582387001	NA	1	0	2.73	1	335.184202605	335.320394908	"11"	13995.600588049	13987.217676062	1.5	0.1
0.01	1	0.00461641000038071	1	49	342.015582387001	NA	1	0	2.73	1	335.551515145	335.556131555	"11"	13995.600588049	13987.217676062	1.5	0.1
0.01	1	1.37435411899969	1	49	342.015582387001	NA	1	0	2.73	1	335.785259027001	337.159613146001	"11"	13995.600588049	13987.217676062	1.5	0.1
0.01	1	0.00344851199952245	1	49	342.015582387001	NA	1	0	2.73	1	337.387938810001	337.391387322001	"11"	13995.600588049	13987.217676062	1.5	0.1
0.01	1	0.00211549100094999	1	49	342.015582387001	NA	1	0	2.73	1	337.621683846	337.623799337001	"11"	13995.600588049	13987.217676062	1.5	0.1
0.01	1	0.0801089790002152	1	49	342.015582387001	NA	1	0	2.73	1	337.855412647001	337.935521626001	"11"	13995.600588049	13987.217676062	1.5	0.1
0.01	1	0.10876466100126	1	49	342.015582387001	NA	1	0	2.73	1	338.172636673	338.281401334001	"11"	13995.600588049	13987.217676062	1.5	0.1
0.01	1	0.00437608199899842	1	49	342.015582387001	NA	1	0	2.73	1	338.506479543001	338.510855625	"11"	13995.600588049	13987.217676062	1.5	0.1
0.01	1	0.293311565001204	1	49	342.015582387001	NA	1	0	2.73	1	338.740259733	339.033571298001	"11"	13995.600588049	13987.217676062	1.5	0.1
0.01	1	0.00709780100078206	1	49	342.015582387001	NA	1	0	2.73	1	339.274404407	339.281502208001	"11"	13995.600588049	13987.217676062	1.5	0.1
0.01	1	0.0361150180015102	1	49	342.015582387001	NA	1	0	2.73	1	339.50815609	339.544271108001	"11"	13995.600588049	13987.217676062	1.5	0.1
0.01	1	0.0175191489997815	1	49	342.015582387001	NA	1	0	2.73	1	339.7752987	339.792817849	"11"	13995.600588049	13987.217676062	1.5	0.1
0.01	1	0.00211590400067507	1	49	342.015582387001	NA	1	0	2.73	1	340.025704525	340.027820429001	"11"	13995.600588049	13987.217676062	1.5	0.1
0.01	1	1.00493962900146	1	49	342.015582387001	NA	1	0	2.73	1	340.259477365	341.264416994001	"11"	13995.600588049	13987.217676062	1.5	0.1
0.01	1	0.0966108529992198	1	49	342.015582387001	NA	1	0	2.73	1	341.494885517001	341.59149637	"11"	13995.600588049	13987.217676062	1.5	0.1
0.01	1	0.076595050000833	1	49	342.015582387001	NA	1	0	2.73	1	341.828743565	341.905338615001	"11"	13995.600588049	13987.217676062	1.5	0.1
0.01	1	0.727025931000753	1	53	NA	360.969602807001	0	0.42	3.15	1	344.065808277001	344.792834208001	"12"	13995.600588049	13987.217676062	1.5	0.1
0.01	1	0.00398559199857118	1	53	NA	360.969602807001	0	0.42	3.15	1	345.017395812001	345.021381404	"12"	13995.600588049	13987.217676062	1.5	0.1
0.01	1	0.0522300230004475	1	53	NA	360.969602807001	0	0.42	3.15	1	345.251186046	345.303416069	"12"	13995.600588049	13987.217676062	1.5	0.1
0.01	1	0.00211177799974394	1	53	NA	360.969602807001	0	0.42	3.15	1	345.534937776001	345.537049554001	"12"	13995.600588049	13987.217676062	1.5	0.1
0.01	1	0.0717281829984131	1	53	NA	360.969602807001	0	0.42	3.15	1	345.768740725001	345.840468908	"12"	13995.600588049	13987.217676062	1.5	0.1
0.01	1	0.00458679999974265	1	53	NA	360.969602807001	0	0.42	3.15	1	346.069186265	346.073773065	"12"	13995.600588049	13987.217676062	1.5	0.1
0.01	1	0.0733472459996847	1	53	NA	360.969602807001	0	0.42	3.15	1	346.30299448	346.376341726	"12"	13995.600588049	13987.217676062	1.5	0.1
0.01	1	0.00206716599859647	1	53	NA	360.969602807001	0	0.42	3.15	1	346.603416843001	346.605484009	"12"	13995.600588049	13987.217676062	1.5	0.1
0.01	1	0.0665374519994657	1	53	NA	360.969602807001	0	0.42	3.15	1	346.837164337001	346.903701789	"12"	13995.600588049	13987.217676062	1.5	0.1
0.01	1	0.102005198999905	1	53	NA	360.969602807001	0	0.42	3.15	1	347.137744987001	347.239750186001	"12"	13995.600588049	13987.217676062	1.5	0.1
0.01	1	0.0882554649997473	1	53	NA	360.969602807001	0	0.42	3.15	1	347.471616665001	347.559872130001	"12"	13995.600588049	13987.217676062	1.5	0.1
0.01	1	0.0762695649991656	1	53	NA	360.969602807001	0	0.42	3.15	1	347.788729835002	347.864999400001	"12"	13995.600588049	13987.217676062	1.5	0.1
0.01	1	0.00390175999928033	1	53	NA	360.969602807001	0	0.42	3.15	1	348.08926604	348.0931678	"12"	13995.600588049	13987.217676062	1.5	0.1
0.01	1	0.0450852280009713	1	53	NA	360.969602807001	0	0.42	3.15	1	348.32296462	348.368049848001	"12"	13995.600588049	13987.217676062	1.5	0.1
0.01	1	0.00340064400006668	1	53	NA	360.969602807001	0	0.42	3.15	1	348.60678091	348.610181554001	"12"	13995.600588049	13987.217676062	1.5	0.1
0.01	1	0.0954669149996334	1	53	NA	360.969602807001	0	0.42	3.15	1	348.840527640001	348.935994555	"12"	13995.600588049	13987.217676062	1.5	0.1
0.01	1	0.00221696900007373	1	53	NA	360.969602807001	0	0.42	3.15	1	349.157766628001	349.159983597001	"12"	13995.600588049	13987.217676062	1.5	0.1
0.01	1	0.104272266000407	1	53	NA	360.969602807001	0	0.42	3.15	1	349.391503536001	349.495775802001	"12"	13995.600588049	13987.217676062	1.5	0.1
0.01	1	0.0917733599999337	1	53	NA	360.969602807001	0	0.42	3.15	1	349.725352178	349.817125538	"12"	13995.600588049	13987.217676062	1.5	0.1
0.01	1	0.00469985699965036	1	53	NA	360.969602807001	0	0.42	3.15	1	350.042561580001	350.047261437001	"12"	13995.600588049	13987.217676062	1.5	0.1
0.01	1	0.228786002000561	1	53	NA	360.969602807001	0	0.42	3.15	1	350.276262637	350.505048639001	"12"	13995.600588049	13987.217676062	1.5	0.1
0.01	1	0.00230401699991489	1	53	NA	360.969602807001	0	0.42	3.15	1	350.727016919001	350.729320936001	"12"	13995.600588049	13987.217676062	1.5	0.1
0.01	1	0.00212026299959689	1	53	NA	360.969602807001	0	0.42	3.15	1	350.960833651001	350.962953914001	"12"	13995.600588049	13987.217676062	1.5	0.1
0.01	1	1.61309468500076	1	53	NA	360.969602807001	0	0.42	3.15	1	351.194488265	352.807582950001	"12"	13995.600588049	13987.217676062	1.5	0.1
0.01	1	0.0650970509996114	1	53	NA	360.969602807001	0	0.42	3.15	1	353.047567137	353.112664188	"12"	13995.600588049	13987.217676062	1.5	0.1
0.01	1	0.0195452160005516	1	53	NA	360.969602807001	0	0.42	3.15	1	353.348047162001	353.367592378001	"12"	13995.600588049	13987.217676062	1.5	0.1
0.01	1	0.0112349089995405	1	53	NA	360.969602807001	0	0.42	3.15	1	353.598492020001	353.609726929	"12"	13995.600588049	13987.217676062	1.5	0.1
0.01	1	0.00382663699929253	1	53	NA	360.969602807001	0	0.42	3.15	1	353.832230117001	353.836056754	"12"	13995.600588049	13987.217676062	1.5	0.1
0.01	1	0.00226398599988897	1	53	NA	360.969602807001	0	0.42	3.15	1	354.066043354002	354.068307340001	"12"	13995.600588049	13987.217676062	1.5	0.1
0.01	1	0.101409229000637	1	53	NA	360.969602807001	0	0.42	3.15	1	354.299806495001	354.401215724001	"12"	13995.600588049	13987.217676062	1.5	0.1
0.01	1	0.0701537300010386	1	53	NA	360.969602807001	0	0.42	3.15	1	354.633632047	354.703785777001	"12"	13995.600588049	13987.217676062	1.5	0.1
0.01	1	1.11432586599949	1	53	NA	360.969602807001	0	0.42	3.15	1	354.934150300001	356.048476166001	"12"	13995.600588049	13987.217676062	1.5	0.1
0.01	1	0.00204459999986284	1	53	NA	360.969602807001	0	0.42	3.15	1	356.286389978	356.288434578	"12"	13995.600588049	13987.217676062	1.5	0.1
0.01	1	0.216208346000712	1	53	NA	360.969602807001	0	0.42	3.15	1	356.5200826	356.736290946001	"12"	13995.600588049	13987.217676062	1.5	0.1
0.01	1	0.228785150000476	1	53	NA	360.969602807001	0	0.42	3.15	1	356.970827605001	357.199612755001	"12"	13995.600588049	13987.217676062	1.5	0.1
0.01	1	0.0516604439999355	1	53	NA	360.969602807001	0	0.42	3.15	1	357.42164316	357.473303604	"12"	13995.600588049	13987.217676062	1.5	0.1
0.01	1	0.0559183160003158	1	53	NA	360.969602807001	0	0.42	3.15	1	357.705493673	357.761411989	"12"	13995.600588049	13987.217676062	1.5	0.1
0.01	1	0.0512957129994902	1	53	NA	360.969602807001	0	0.42	3.15	1	357.989255525001	358.040551238	"12"	13995.600588049	13987.217676062	1.5	0.1
0.01	1	0.0640516099992965	1	53	NA	360.969602807001	0	0.42	3.15	1	358.273105940001	358.33715755	"12"	13995.600588049	13987.217676062	1.5	0.1
0.01	1	0.130973533001452	1	53	NA	360.969602807001	0	0.42	3.15	1	358.57356137	358.704534903001	"12"	13995.600588049	13987.217676062	1.5	0.1
0.01	1	0.100129439000739	1	53	NA	360.969602807001	0	0.42	3.15	1	358.940884915	359.041014354001	"12"	13995.600588049	13987.217676062	1.5	0.1
0.01	1	0.646042487000159	1	53	NA	360.969602807001	0	0.42	3.15	1	359.274665484001	359.920707971001	"12"	13995.600588049	13987.217676062	1.5	0.1
0.01	1	0.82525960500061	2	53	NA	360.969602807001	0	0.42	3.15	1	360.142802238001	360.968061843001	"12"	13995.600588049	13987.217676062	1.5	0.1
0.01	1	1.32975394800087	1	28	375.22124178	NA	1	0	3.15	1	363.01429796	364.344051908001	"13"	13995.600588049	13987.217676062	1.5	0.1
0.01	1	0.0112962259991036	1	28	375.22124178	NA	1	0	3.15	1	364.583626510001	364.594922736	"13"	13995.600588049	13987.217676062	1.5	0.1
0.01	1	0.0947515970001405	1	28	375.22124178	NA	1	0	3.15	1	364.817518329	364.912269926001	"13"	13995.600588049	13987.217676062	1.5	0.1
0.01	1	0.0657551860003878	1	28	375.22124178	NA	1	0	3.15	1	365.134560460001	365.200315646001	"13"	13995.600588049	13987.217676062	1.5	0.1
0.01	1	0.07836704500005	1	28	375.22124178	NA	1	0	3.15	1	365.435150577001	365.513517622001	"13"	13995.600588049	13987.217676062	1.5	0.1
0.01	1	0.0968508360001579	1	28	375.22124178	NA	1	0	3.15	1	365.735548979001	365.832399815001	"13"	13995.600588049	13987.217676062	1.5	0.1
0.01	1	0.114694775000316	1	28	375.22124178	NA	1	0	3.15	1	366.06963224	366.184327015	"13"	13995.600588049	13987.217676062	1.5	0.1
0.01	1	0.0528882340004202	1	28	375.22124178	NA	1	0	3.15	1	366.420185895	366.473074129	"13"	13995.600588049	13987.217676062	1.5	0.1
0.01	1	0.112629372999436	1	28	375.22124178	NA	1	0	3.15	1	366.70393913	366.816568503	"13"	13995.600588049	13987.217676062	1.5	0.1
0.01	1	0.0338892979998491	1	28	375.22124178	NA	1	0	3.15	1	367.05447517	367.088364468	"13"	13995.600588049	13987.217676062	1.5	0.1
0.01	1	0.0876012169992464	1	28	375.22124178	NA	1	0	3.15	1	367.321572550001	367.409173767001	"13"	13995.600588049	13987.217676062	1.5	0.1
0.01	1	0.0424514020014612	1	28	375.22124178	NA	1	0	3.15	1	367.638738447	367.681189849001	"13"	13995.600588049	13987.217676062	1.5	0.1
0.01	1	0.110345103999862	1	28	375.22124178	NA	1	0	3.15	1	367.905983835	368.016328939	"13"	13995.600588049	13987.217676062	1.5	0.1
0.01	1	1.55317703299988	1	28	375.22124178	NA	1	0	3.15	1	368.239771597	369.79294863	"13"	13995.600588049	13987.217676062	1.5	0.1
0.01	1	0.238000561001172	1	28	375.22124178	NA	1	0	3.15	1	370.02620167	370.264202231001	"13"	13995.600588049	13987.217676062	1.5	0.1
0.01	1	0.114052278000599	1	28	375.22124178	NA	1	0	3.15	1	370.493664807	370.607717085	"13"	13995.600588049	13987.217676062	1.5	0.1
0.01	1	0.0210240320011508	1	28	375.22124178	NA	1	0	3.15	1	370.84425663	370.865280662001	"13"	13995.600588049	13987.217676062	1.5	0.1
0.01	1	0.185941824000111	1	28	375.22124178	NA	1	0	3.15	1	371.094664062	371.280605886001	"13"	13995.600588049	13987.217676062	1.5	0.1
0.01	1	0.113114650999705	1	28	375.22124178	NA	1	0	3.15	1	371.512179326	371.625293977	"13"	13995.600588049	13987.217676062	1.5	0.1
0.01	1	0.0983987399995385	1	28	375.22124178	NA	1	0	3.15	1	371.862553115001	371.960951855001	"13"	13995.600588049	13987.217676062	1.5	0.1
0.01	1	0.0671098679995339	1	28	375.22124178	NA	1	0	3.15	1	372.196549190001	372.263659058	"13"	13995.600588049	13987.217676062	1.5	0.1
0.01	1	0.102836568001294	1	28	375.22124178	NA	1	0	3.15	1	372.49703875	372.599875318001	"13"	13995.600588049	13987.217676062	1.5	0.1
0.01	1	0.104730651000864	1	28	375.22124178	NA	1	0	3.15	1	372.830869157	372.935599808001	"13"	13995.600588049	13987.217676062	1.5	0.1
0.01	1	0.0754477059999772	1	28	375.22124178	NA	1	0	3.15	1	373.164785357001	373.240233063001	"13"	13995.600588049	13987.217676062	1.5	0.1
0.01	1	0.0864502360000188	1	28	375.22124178	NA	1	0	3.15	1	373.465250615001	373.551700851001	"13"	13995.600588049	13987.217676062	1.5	0.1
0.01	1	0.0663727200007997	1	28	375.22124178	NA	1	0	3.15	1	373.782603665	373.848976385001	"13"	13995.600588049	13987.217676062	1.5	0.1
0.01	1	0.053233127000567	1	28	375.22124178	NA	1	0	3.15	1	374.082969837	374.136202964	"13"	13995.600588049	13987.217676062	1.5	0.1
0.01	1	0.74462769099955	1	28	375.22124178	NA	1	0	3.15	1	374.366838817001	375.111466508	"13"	13995.600588049	13987.217676062	1.5	0.1
0.01	1	1.51312656499977	1	107	NA	388.266578814	0	0.32	3.47	1	377.271682566001	378.784809131001	"14"	13995.600588049	13987.217676062	1.5	0.1
0.01	1	0.0803769080011989	1	107	NA	388.266578814	0	0.32	3.47	1	379.02467481	379.105051718001	"14"	13995.600588049	13987.217676062	1.5	0.1
0.01	1	0.0659641780002858	1	107	NA	388.266578814	0	0.32	3.47	1	379.341735350001	379.407699528001	"14"	13995.600588049	13987.217676062	1.5	0.1
0.01	1	0.0133599660002801	1	107	NA	388.266578814	0	0.32	3.47	1	379.642390317	379.655750283	"14"	13995.600588049	13987.217676062	1.5	0.1
0.01	1	0.0281936449991917	1	107	NA	388.266578814	0	0.32	3.47	1	379.892717762001	379.920911407	"14"	13995.600588049	13987.217676062	1.5	0.1
0.01	1	0.0571065860003728	1	107	NA	388.266578814	0	0.32	3.47	1	380.143138125	380.200244711001	"14"	13995.600588049	13987.217676062	1.5	0.1
0.01	1	0.0384000029989693	1	107	NA	388.266578814	0	0.32	3.47	1	380.427018162001	380.465418165	"14"	13995.600588049	13987.217676062	1.5	0.1
0.01	1	0.0907138259990461	1	107	NA	388.266578814	0	0.32	3.47	1	380.694178020001	380.784891846	"14"	13995.600588049	13987.217676062	1.5	0.1
0.01	1	0.0535442549989966	1	107	NA	388.266578814	0	0.32	3.47	1	381.011496165002	381.065040420001	"14"	13995.600588049	13987.217676062	1.5	0.1
0.01	1	0.026337452000007	1	107	NA	388.266578814	0	0.32	3.47	1	381.295135117001	381.321472569001	"14"	13995.600588049	13987.217676062	1.5	0.1
0.01	1	0.0309781910000311	1	107	NA	388.266578814	0	0.32	3.47	1	381.545633125001	381.576611316001	"14"	13995.600588049	13987.217676062	1.5	0.1
0.01	1	0.0587856120000652	1	107	NA	388.266578814	0	0.32	3.47	1	381.81264885	381.871434462	"14"	13995.600588049	13987.217676062	1.5	0.1
0.01	1	0.0549324969997542	1	107	NA	388.266578814	0	0.32	3.47	1	382.096520885001	382.151453382001	"14"	13995.600588049	13987.217676062	1.5	0.1
0.01	1	0.0525951109993912	1	107	NA	388.266578814	0	0.32	3.47	1	382.380339660001	382.432934771001	"14"	13995.600588049	13987.217676062	1.5	0.1
0.01	1	0.0645179630009807	1	107	NA	388.266578814	0	0.32	3.47	1	382.664256245	382.728774208001	"14"	13995.600588049	13987.217676062	1.5	0.1
0.01	1	0.0358642339997459	1	107	NA	388.266578814	0	0.32	3.47	1	382.964566600001	383.000430834001	"14"	13995.600588049	13987.217676062	1.5	0.1
0.01	1	0.0641254010006378	1	107	NA	388.266578814	0	0.32	3.47	1	383.231778267	383.295903668	"14"	13995.600588049	13987.217676062	1.5	0.1
0.01	1	0.0195375399998738	1	107	NA	388.266578814	0	0.32	3.47	1	383.532281077001	383.551818617001	"14"	13995.600588049	13987.217676062	1.5	0.1
0.01	1	0.0429080289995909	1	107	NA	388.266578814	0	0.32	3.47	1	383.782547605	383.825455634	"14"	13995.600588049	13987.217676062	1.5	0.1
0.01	1	0.0462644179988274	1	107	NA	388.266578814	0	0.32	3.47	1	384.049714275001	384.095978693	"14"	13995.600588049	13987.217676062	1.5	0.1
0.01	1	0.0271444659992994	1	107	NA	388.266578814	0	0.32	3.47	1	384.333495262001	384.360639728	"14"	13995.600588049	13987.217676062	1.5	0.1
0.01	1	0.0407055710002169	1	107	NA	388.266578814	0	0.32	3.47	1	384.583934955001	384.624640526001	"14"	13995.600588049	13987.217676062	1.5	0.1
0.01	1	0.0211166079989198	1	107	NA	388.266578814	0	0.32	3.47	1	384.851120750001	384.872237358	"14"	13995.600588049	13987.217676062	1.5	0.1
0.01	1	0.00473559000056412	1	107	NA	388.266578814	0	0.32	3.47	1	385.101551690001	385.106287280001	"14"	13995.600588049	13987.217676062	1.5	0.1
0.01	1	0.0731124929989164	1	107	NA	388.266578814	0	0.32	3.47	1	385.335239855001	385.408352348	"14"	13995.600588049	13987.217676062	1.5	0.1
0.01	1	0.0364212930016947	1	107	NA	388.266578814	0	0.32	3.47	1	385.635758355	385.672179648001	"14"	13995.600588049	13987.217676062	1.5	0.1
0.01	1	0.0178113090005354	1	107	NA	388.266578814	0	0.32	3.47	1	385.902837170001	385.920648479001	"14"	13995.600588049	13987.217676062	1.5	0.1
0.01	1	0.0383087160007562	1	107	NA	388.266578814	0	0.32	3.47	1	386.153354955	386.191663671001	"14"	13995.600588049	13987.217676062	1.5	0.1
0.01	1	0.0192773359995044	1	107	NA	388.266578814	0	0.32	3.47	1	386.420386887001	386.439664223	"14"	13995.600588049	13987.217676062	1.5	0.1
0.01	1	0.024579292999988	1	107	NA	388.266578814	0	0.32	3.47	1	386.670839955001	386.695419248001	"14"	13995.600588049	13987.217676062	1.5	0.1
0.01	1	0.0158148380014609	1	107	NA	388.266578814	0	0.32	3.47	1	386.921322102	386.937136940001	"14"	13995.600588049	13987.217676062	1.5	0.1
0.01	1	0.236448844001643	1	107	NA	388.266578814	0	0.32	3.47	1	387.171683105	387.408131949001	"14"	13995.600588049	13987.217676062	1.5	0.1
0.01	1	0.625849652000397	2	107	NA	388.266578814	0	0.32	3.47	1	387.639155205001	388.265004857001	"14"	13995.600588049	13987.217676062	1.5	0.1
0.01	1	1.25050812599875	1	78	NA	402.106386718	0	0.36	3.83	1	390.310370910001	391.560879036	"15"	13995.600588049	13987.217676062	1.5	0.1
0.01	1	0.00212219100103539	1	78	NA	402.106386718	0	0.36	3.83	1	391.796075069	391.798197260001	"15"	13995.600588049	13987.217676062	1.5	0.1
0.01	1	0.0908958039999561	1	78	NA	402.106386718	0	0.36	3.83	1	392.029779165001	392.120674969001	"15"	13995.600588049	13987.217676062	1.5	0.1
0.01	1	0.00390090199834958	1	78	NA	402.106386718	0	0.36	3.83	1	392.347086270001	392.350987172	"15"	13995.600588049	13987.217676062	1.5	0.1
0.01	1	0.396678791999875	1	78	NA	402.106386718	0	0.36	3.83	1	392.580764855	392.977443647	"15"	13995.600588049	13987.217676062	1.5	0.1
0.01	1	0.09038056800091	1	78	NA	402.106386718	0	0.36	3.83	1	393.215157340001	393.305537908001	"15"	13995.600588049	13987.217676062	1.5	0.1
0.01	1	0.0911834600010479	1	78	NA	402.106386718	0	0.36	3.83	1	393.53238787	393.623571330001	"15"	13995.600588049	13987.217676062	1.5	0.1
0.01	1	0.0541980409998359	1	78	NA	402.106386718	0	0.36	3.83	1	393.849622785001	393.903820826001	"15"	13995.600588049	13987.217676062	1.5	0.1
0.01	1	0.0980799389999447	1	78	NA	402.106386718	0	0.36	3.83	1	394.13344333	394.231523269	"15"	13995.600588049	13987.217676062	1.5	0.1
0.01	1	0.0861689270004717	1	78	NA	402.106386718	0	0.36	3.83	1	394.467242195	394.553411122	"15"	13995.600588049	13987.217676062	1.5	0.1
0.01	1	0.0955480930006161	1	78	NA	402.106386718	0	0.36	3.83	1	394.784554975	394.880103068001	"15"	13995.600588049	13987.217676062	1.5	0.1
0.01	1	0.0737697619988467	1	78	NA	402.106386718	0	0.36	3.83	1	395.118316240001	395.192086002	"15"	13995.600588049	13987.217676062	1.5	0.1
0.01	1	0.0851275340010034	1	78	NA	402.106386718	0	0.36	3.83	1	395.419028835	395.504156369001	"15"	13995.600588049	13987.217676062	1.5	0.1
0.01	1	0.00405718500041985	1	78	NA	402.106386718	0	0.36	3.83	1	395.736040965001	395.740098150001	"15"	13995.600588049	13987.217676062	1.5	0.1
0.01	1	0.0310658149992378	1	78	NA	402.106386718	0	0.36	3.83	1	395.969797305001	396.00086312	"15"	13995.600588049	13987.217676062	1.5	0.1
0.01	1	0.00375547099974938	1	78	NA	402.106386718	0	0.36	3.83	1	396.236993157001	396.240748628001	"15"	13995.600588049	13987.217676062	1.5	0.1
0.01	1	0.362570643001163	1	78	NA	402.106386718	0	0.36	3.83	1	396.470697232	396.833267875001	"15"	13995.600588049	13987.217676062	1.5	0.1
0.01	1	0.00235647199951927	1	78	NA	402.106386718	0	0.36	3.83	1	397.071612952001	397.073969424	"15"	13995.600588049	13987.217676062	1.5	0.1
0.01	1	0.0232676190007624	1	78	NA	402.106386718	0	0.36	3.83	1	397.305354370001	397.328621989001	"15"	13995.600588049	13987.217676062	1.5	0.1
0.01	1	0.00801911200142058	1	78	NA	402.106386718	0	0.36	3.83	1	397.555823256	397.563842368001	"15"	13995.600588049	13987.217676062	1.5	0.1
0.01	1	0.00412704599875724	1	78	NA	402.106386718	0	0.36	3.83	1	397.789580620001	397.793707666	"15"	13995.600588049	13987.217676062	1.5	0.1
0.01	1	0.0112611599997763	1	78	NA	402.106386718	0	0.36	3.83	1	398.02322031	398.03448147	"15"	13995.600588049	13987.217676062	1.5	0.1
0.01	1	0.0150489170009678	1	78	NA	402.106386718	0	0.36	3.83	1	398.273625382	398.288674299001	"15"	13995.600588049	13987.217676062	1.5	0.1
0.01	1	0.0118705940003565	1	78	NA	402.106386718	0	0.36	3.83	1	398.524151112	398.536021706001	"15"	13995.600588049	13987.217676062	1.5	0.1
0.01	1	0.00473093199980212	1	78	NA	402.106386718	0	0.36	3.83	1	398.774559945001	398.779290877001	"15"	13995.600588049	13987.217676062	1.5	0.1
0.01	1	0.00378825000007055	1	78	NA	402.106386718	0	0.36	3.83	1	399.00825843	399.01204668	"15"	13995.600588049	13987.217676062	1.5	0.1
0.01	1	0.0379593100005877	1	78	NA	402.106386718	0	0.36	3.83	1	399.241969250001	399.279928560001	"15"	13995.600588049	13987.217676062	1.5	0.1
0.01	1	0.026717512999312	1	78	NA	402.106386718	0	0.36	3.83	1	399.509170877001	399.535888390001	"15"	13995.600588049	13987.217676062	1.5	0.1
0.01	1	0.00210399600109668	1	78	NA	402.106386718	0	0.36	3.83	1	399.759534544	399.761638540002	"15"	13995.600588049	13987.217676062	1.5	0.1
0.01	1	0.0021386819989857	1	78	NA	402.106386718	0	0.36	3.83	1	399.993102080001	399.995240762	"15"	13995.600588049	13987.217676062	1.5	0.1
0.01	1	0.00210689699997602	1	78	NA	402.106386718	0	0.36	3.83	1	400.226982510001	400.229089407001	"15"	13995.600588049	13987.217676062	1.5	0.1
0.01	1	0.00456096199923195	1	78	NA	402.106386718	0	0.36	3.83	1	400.460741135001	400.465302097	"15"	13995.600588049	13987.217676062	1.5	0.1
0.01	1	0.00464776999979222	1	78	NA	402.106386718	0	0.36	3.83	1	400.694431695001	400.699079465001	"15"	13995.600588049	13987.217676062	1.5	0.1
0.01	1	0.00392619299964281	1	78	NA	402.106386718	0	0.36	3.83	1	400.928165565001	400.932091758001	"15"	13995.600588049	13987.217676062	1.5	0.1
0.01	1	0.00466970199886418	1	78	NA	402.106386718	0	0.36	3.83	1	401.162032695001	401.166702397	"15"	13995.600588049	13987.217676062	1.5	0.1
0.01	1	0.276358597000581	1	78	NA	402.106386718	0	0.36	3.83	1	401.395671675	401.672030272	"15"	13995.600588049	13987.217676062	1.5	0.1
0.01	1	0.191670635000264	2	78	NA	402.106386718	0	0.36	3.83	1	401.913128679	402.104799314	"15"	13995.600588049	13987.217676062	1.5	0.1
0.01	1	0.578443689999403	1	44	NA	415.883175924	0	0.36	4.19	1	404.133593296001	404.712036986	"16"	13995.600588049	13987.217676062	1.5	0.1
0.01	1	0.0406090270007553	1	44	NA	415.883175924	0	0.36	4.19	1	404.95157046	404.992179487001	"16"	13995.600588049	13987.217676062	1.5	0.1
0.01	1	0.00204263100022217	1	44	NA	415.883175924	0	0.36	4.19	1	405.218721248	405.220763879001	"16"	13995.600588049	13987.217676062	1.5	0.1
0.01	1	0.00468252199971175	1	44	NA	415.883175924	0	0.36	4.19	1	405.452453380001	405.457135902001	"16"	13995.600588049	13987.217676062	1.5	0.1
0.01	1	0.186983513000087	1	44	NA	415.883175924	0	0.36	4.19	1	405.686195643	405.873179156	"16"	13995.600588049	13987.217676062	1.5	0.1
0.01	1	0.00201548299992282	1	44	NA	415.883175924	0	0.36	4.19	1	406.103561289001	406.105576772001	"16"	13995.600588049	13987.217676062	1.5	0.1
0.01	1	0.111724415000936	1	44	NA	415.883175924	0	0.36	4.19	1	406.337189222	406.448913637001	"16"	13995.600588049	13987.217676062	1.5	0.1
0.01	1	0.00208839800143323	1	44	NA	415.883175924	0	0.36	4.19	1	406.671148787	406.673237185001	"16"	13995.600588049	13987.217676062	1.5	0.1
0.01	1	0.00463873999979114	1	44	NA	415.883175924	0	0.36	4.19	1	406.904920595001	406.909559335001	"16"	13995.600588049	13987.217676062	1.5	0.1
0.01	1	0.102047422999021	1	44	NA	415.883175924	0	0.36	4.19	1	407.138670535001	407.240717958	"16"	13995.600588049	13987.217676062	1.5	0.1
0.01	1	0.0720226339999499	1	44	NA	415.883175924	0	0.36	4.19	1	407.472517565	407.544540199	"16"	13995.600588049	13987.217676062	1.5	0.1
0.01	1	0.00232084899835172	1	44	NA	415.883175924	0	0.36	4.19	1	407.773063088001	407.775383937	"16"	13995.600588049	13987.217676062	1.5	0.1
0.01	1	0.0250099379991298	1	44	NA	415.883175924	0	0.36	4.19	1	408.006757802001	408.03176774	"16"	13995.600588049	13987.217676062	1.5	0.1
0.01	1	0.00397516299926792	1	44	NA	415.883175924	0	0.36	4.19	1	408.257089525001	408.261064688	"16"	13995.600588049	13987.217676062	1.5	0.1
0.01	1	0.308866942001259	1	44	NA	415.883175924	0	0.36	4.19	1	408.490826387	408.799693329001	"16"	13995.600588049	13987.217676062	1.5	0.1
0.01	1	0.0787666710002668	1	44	NA	415.883175924	0	0.36	4.19	1	409.025118346	409.103885017001	"16"	13995.600588049	13987.217676062	1.5	0.1
0.01	1	0.0040372280000156	1	44	NA	415.883175924	0	0.36	4.19	1	409.342364310001	409.346401538001	"16"	13995.600588049	13987.217676062	1.5	0.1
0.01	1	0.00391577800110099	1	44	NA	415.883175924	0	0.36	4.19	1	409.575995202	409.579910980001	"16"	13995.600588049	13987.217676062	1.5	0.1
0.01	1	0.0218921449995833	1	44	NA	415.883175924	0	0.36	4.19	1	409.809674515001	409.831566660001	"16"	13995.600588049	13987.217676062	1.5	0.1
0.01	1	0.0202662989995588	1	44	NA	415.883175924	0	0.36	4.19	1	410.060176086001	410.080442385	"16"	13995.600588049	13987.217676062	1.5	0.1
0.01	1	0.00406086799921468	1	44	NA	415.883175924	0	0.36	4.19	1	410.310504380001	410.314565248	"16"	13995.600588049	13987.217676062	1.5	0.1
0.01	1	0.00233218100038357	1	44	NA	415.883175924	0	0.36	4.19	1	410.544248558001	410.546580739001	"16"	13995.600588049	13987.217676062	1.5	0.1
0.01	1	0.00212551499862457	1	44	NA	415.883175924	0	0.36	4.19	1	410.778079085001	410.7802046	"16"	13995.600588049	13987.217676062	1.5	0.1
0.01	1	0.0214773010011413	1	44	NA	415.883175924	0	0.36	4.19	1	411.011777365	411.033254666001	"16"	13995.600588049	13987.217676062	1.5	0.1
0.01	1	0.0270755229994393	1	44	NA	415.883175924	0	0.36	4.19	1	411.262133887001	411.289209410001	"16"	13995.600588049	13987.217676062	1.5	0.1
0.01	1	0.00977431699902809	1	44	NA	415.883175924	0	0.36	4.19	1	411.512669490001	411.522443807	"16"	13995.600588049	13987.217676062	1.5	0.1
0.01	1	0.00216194800123048	1	44	NA	415.883175924	0	0.36	4.19	1	411.746304987	411.748466935001	"16"	13995.600588049	13987.217676062	1.5	0.1
0.01	1	0.00228667199917254	1	44	NA	415.883175924	0	0.36	4.19	1	411.979998566001	411.982285238	"16"	13995.600588049	13987.217676062	1.5	0.1
0.01	1	0.0023073940010363	1	44	NA	415.883175924	0	0.36	4.19	1	412.213716614	412.216024008001	"16"	13995.600588049	13987.217676062	1.5	0.1
0.01	1	0.0175174150008388	1	44	NA	415.883175924	0	0.36	4.19	1	412.44754481	412.465062225001	"16"	13995.600588049	13987.217676062	1.5	0.1
0.01	1	0.00397740599873941	1	44	NA	415.883175924	0	0.36	4.19	1	412.697944250001	412.701921656	"16"	13995.600588049	13987.217676062	1.5	0.1
0.01	1	0.0118080309985089	1	44	NA	415.883175924	0	0.36	4.19	1	412.931752117001	412.943560148	"16"	13995.600588049	13987.217676062	1.5	0.1
0.01	1	0.210716241999762	1	44	NA	415.883175924	0	0.36	4.19	1	413.165375717001	413.376091959	"16"	13995.600588049	13987.217676062	1.5	0.1
0.01	1	0.321433281998907	1	44	NA	415.883175924	0	0.36	4.19	1	413.599460610001	413.920893892	"16"	13995.600588049	13987.217676062	1.5	0.1
0.01	1	0.369219737000094	1	44	NA	415.883175924	0	0.36	4.19	1	414.1504255	414.519645237	"16"	13995.600588049	13987.217676062	1.5	0.1
0.01	1	0.048737330998847	1	44	NA	415.883175924	0	0.36	4.19	1	414.751491140001	414.800228471	"16"	13995.600588049	13987.217676062	1.5	0.1
0.01	1	0.846333108000181	2	44	NA	415.883175924	0	0.36	4.19	1	415.035257592001	415.881590700001	"16"	13995.600588049	13987.217676062	1.5	0.1
0.01	1	1.05270079799993	1	62	NA	430.753491212001	0	0.39	4.58	1	417.923441182	418.97614198	"17"	13995.600588049	13987.217676062	1.5	0.1
0.01	1	0.0021393810002337	1	62	NA	430.753491212001	0	0.39	4.58	1	419.208868377	419.211007758	"17"	13995.600588049	13987.217676062	1.5	0.1
0.01	1	0.00462193999919691	1	62	NA	430.753491212001	0	0.39	4.58	1	419.442657290001	419.44727923	"17"	13995.600588049	13987.217676062	1.5	0.1
0.01	1	0.539640527998927	1	62	NA	430.753491212001	0	0.39	4.58	1	419.676411010001	420.216051538	"17"	13995.600588049	13987.217676062	1.5	0.1
0.01	1	0.0768944209994515	1	62	NA	430.753491212001	0	0.39	4.58	1	420.444302505	420.521196926	"17"	13995.600588049	13987.217676062	1.5	0.1
0.01	1	0.143633218000105	1	62	NA	430.753491212001	0	0.39	4.58	1	420.744806287001	420.888439505001	"17"	13995.600588049	13987.217676062	1.5	0.1
0.01	1	0.00225483599933796	1	62	NA	430.753491212001	0	0.39	4.58	1	421.112091435001	421.114346271001	"17"	13995.600588049	13987.217676062	1.5	0.1
0.01	1	0.0703726860010647	1	62	NA	430.753491212001	0	0.39	4.58	1	421.34582402	421.416196706001	"17"	13995.600588049	13987.217676062	1.5	0.1
0.01	1	0.0909160139999585	1	62	NA	430.753491212001	0	0.39	4.58	1	421.646346815001	421.737262829001	"17"	13995.600588049	13987.217676062	1.5	0.1
0.01	1	0.00364962599996943	1	62	NA	430.753491212001	0	0.39	4.58	1	421.963573522	421.967223148	"17"	13995.600588049	13987.217676062	1.5	0.1
0.01	1	0.019659125000544	1	62	NA	430.753491212001	0	0.39	4.58	1	422.19733352	422.216992645001	"17"	13995.600588049	13987.217676062	1.5	0.1
0.01	1	0.00374711100084824	1	62	NA	430.753491212001	0	0.39	4.58	1	422.447610857	422.451357968001	"17"	13995.600588049	13987.217676062	1.5	0.1
0.01	1	0.0638753490002273	1	62	NA	430.753491212001	0	0.39	4.58	1	422.681322910001	422.745198259001	"17"	13995.600588049	13987.217676062	1.5	0.1
0.01	1	0.154227138000351	1	62	NA	430.753491212001	0	0.39	4.58	1	422.981995779	423.136222917001	"17"	13995.600588049	13987.217676062	1.5	0.1
0.01	1	0.00306024000019534	1	62	NA	430.753491212001	0	0.39	4.58	1	423.36589839	423.368958630001	"17"	13995.600588049	13987.217676062	1.5	0.1
0.01	1	0.00218499100083136	1	62	NA	430.753491212001	0	0.39	4.58	1	423.599653449	423.601838440001	"17"	13995.600588049	13987.217676062	1.5	0.1
0.01	1	0.00206482000066899	1	62	NA	430.753491212001	0	0.39	4.58	1	423.833435037001	423.835499857001	"17"	13995.600588049	13987.217676062	1.5	0.1
0.01	1	0.00215566399856471	1	62	NA	430.753491212001	0	0.39	4.58	1	424.067057920001	424.069213584	"17"	13995.600588049	13987.217676062	1.5	0.1
0.01	1	0.00208539800041763	1	62	NA	430.753491212001	0	0.39	4.58	1	424.300796857	424.302882255	"17"	13995.600588049	13987.217676062	1.5	0.1
0.01	1	0.003908897000656	1	62	NA	430.753491212001	0	0.39	4.58	1	424.534583777	424.538492674001	"17"	13995.600588049	13987.217676062	1.5	0.1
0.01	1	0.111243900000773	1	62	NA	430.753491212001	0	0.39	4.58	1	424.768185535	424.879429435001	"17"	13995.600588049	13987.217676062	1.5	0.1
0.01	1	0.00215215200114471	1	62	NA	430.753491212001	0	0.39	4.58	1	425.118808595	425.120960747001	"17"	13995.600588049	13987.217676062	1.5	0.1
0.01	1	0.00212420000025304	1	62	NA	430.753491212001	0	0.39	4.58	1	425.352558160001	425.354682360001	"17"	13995.600588049	13987.217676062	1.5	0.1
0.01	1	0.00219617200127686	1	62	NA	430.753491212001	0	0.39	4.58	1	425.586327022	425.588523194001	"17"	13995.600588049	13987.217676062	1.5	0.1
0.01	1	0.00410066600124992	1	62	NA	430.753491212001	0	0.39	4.58	1	425.82005973	425.824160396001	"17"	13995.600588049	13987.217676062	1.5	0.1
0.01	1	0.00469046000034723	1	62	NA	430.753491212001	0	0.39	4.58	1	426.053808225	426.058498685001	"17"	13995.600588049	13987.217676062	1.5	0.1
0.01	1	0.121687407001446	1	62	NA	430.753491212001	0	0.39	4.58	1	426.287486657	426.409174064001	"17"	13995.600588049	13987.217676062	1.5	0.1
0.01	1	0.00211095799932082	1	62	NA	430.753491212001	0	0.39	4.58	1	426.638067409001	426.640178367001	"17"	13995.600588049	13987.217676062	1.5	0.1
0.01	1	0.00204478299929178	1	62	NA	430.753491212001	0	0.39	4.58	1	426.871790295001	426.873835078	"17"	13995.600588049	13987.217676062	1.5	0.1
0.01	1	0.142329157999484	1	62	NA	430.753491212001	0	0.39	4.58	1	427.105485122001	427.247814280001	"17"	13995.600588049	13987.217676062	1.5	0.1
0.01	1	0.00250378099917725	1	62	NA	430.753491212001	0	0.39	4.58	1	427.472871535001	427.475375316	"17"	13995.600588049	13987.217676062	1.5	0.1
0.01	1	0.101641964998635	1	62	NA	430.753491212001	0	0.39	4.58	1	427.706580982001	427.808222947	"17"	13995.600588049	13987.217676062	1.5	0.1
0.01	1	0.11272923999968	1	62	NA	430.753491212001	0	0.39	4.58	1	428.040448965001	428.153178205001	"17"	13995.600588049	13987.217676062	1.5	0.1
0.01	1	0.0804636680004478	1	62	NA	430.753491212001	0	0.39	4.58	1	428.391029875	428.471493543	"17"	13995.600588049	13987.217676062	1.5	0.1
0.01	1	0.116574977999335	1	62	NA	430.753491212001	0	0.39	4.58	1	428.708165308	428.824740286	"17"	13995.600588049	13987.217676062	1.5	0.1
0.01	1	0.101345118999234	1	62	NA	430.753491212001	0	0.39	4.58	1	429.058872180001	429.160217299001	"17"	13995.600588049	13987.217676062	1.5	0.1
0.01	1	0.00449126399871602	1	62	NA	430.753491212001	0	0.39	4.58	1	429.392650016001	429.39714128	"17"	13995.600588049	13987.217676062	1.5	0.1
0.01	1	0.245500717999676	1	62	NA	430.753491212001	0	0.39	4.58	1	429.626371135	429.871871853	"17"	13995.600588049	13987.217676062	1.5	0.1
0.01	1	0.00232876100017165	1	62	NA	430.753491212001	0	0.39	4.58	1	430.093872146001	430.096200907001	"17"	13995.600588049	13987.217676062	1.5	0.1
0.01	1	0.424363977001121	2	62	NA	430.753491212001	0	0.39	4.58	1	430.327557347	430.751921324001	"17"	13995.600588049	13987.217676062	1.5	0.1
0.01	1	0.458802753999407	1	68	NA	446.026580668	0	0.44	5.02	1	432.798418075001	433.257220829	"18"	13995.600588049	13987.217676062	1.5	0.1
0.01	1	0.00395266100167646	1	68	NA	446.026580668	0	0.44	5.02	1	433.482848897	433.486801558001	"18"	13995.600588049	13987.217676062	1.5	0.1
0.01	1	0.0527520639989234	1	68	NA	446.026580668	0	0.44	5.02	1	433.716693145001	433.769445209	"18"	13995.600588049	13987.217676062	1.5	0.1
0.01	1	0.00466187999882095	1	68	NA	446.026580668	0	0.44	5.02	1	434.000443460001	434.00510534	"18"	13995.600588049	13987.217676062	1.5	0.1
0.01	1	0.00419302900081675	1	68	NA	446.026580668	0	0.44	5.02	1	434.234199876	434.238392905001	"18"	13995.600588049	13987.217676062	1.5	0.1
0.01	1	0.0915809010002704	1	68	NA	446.026580668	0	0.44	5.02	1	434.467970857	434.559551758	"18"	13995.600588049	13987.217676062	1.5	0.1
0.01	1	0.00442525500147894	1	68	NA	446.026580668	0	0.44	5.02	1	434.78507912	434.789504375001	"18"	13995.600588049	13987.217676062	1.5	0.1
0.01	1	0.205974639000488	1	68	NA	446.026580668	0	0.44	5.02	1	435.018809559	435.224784198001	"18"	13995.600588049	13987.217676062	1.5	0.1
0.01	1	0.124527715999648	1	68	NA	446.026580668	0	0.44	5.02	1	435.452932510001	435.577460226001	"18"	13995.600588049	13987.217676062	1.5	0.1
0.01	1	0.00461214499955531	1	68	NA	446.026580668	0	0.44	5.02	1	435.80352517	435.808137315	"18"	13995.600588049	13987.217676062	1.5	0.1
0.01	1	0.0342765189998318	1	68	NA	446.026580668	0	0.44	5.02	1	436.037230787	436.071507306	"18"	13995.600588049	13987.217676062	1.5	0.1
0.01	1	0.00399781600026472	1	68	NA	446.026580668	0	0.44	5.02	1	436.30435283	436.308350646001	"18"	13995.600588049	13987.217676062	1.5	0.1
0.01	1	0.0620285870008956	1	68	NA	446.026580668	0	0.44	5.02	1	436.538037627	436.600066214001	"18"	13995.600588049	13987.217676062	1.5	0.1
0.01	1	0.106514672999765	1	68	NA	446.026580668	0	0.44	5.02	1	436.838493757001	436.945008430001	"18"	13995.600588049	13987.217676062	1.5	0.1
0.01	1	0.00458703200092714	1	68	NA	446.026580668	0	0.44	5.02	1	437.172393645	437.176980677001	"18"	13995.600588049	13987.217676062	1.5	0.1
0.01	1	0.0413983010002994	1	68	NA	446.026580668	0	0.44	5.02	1	437.406219922001	437.447618223001	"18"	13995.600588049	13987.217676062	1.5	0.1
0.01	1	0.00465898500078765	1	68	NA	446.026580668	0	0.44	5.02	1	437.67340777	437.678066755001	"18"	13995.600588049	13987.217676062	1.5	0.1
0.01	1	0.0775525079989166	1	68	NA	446.026580668	0	0.44	5.02	1	437.907104310001	437.984656818	"18"	13995.600588049	13987.217676062	1.5	0.1
0.01	1	0.00212727399957657	1	68	NA	446.026580668	0	0.44	5.02	1	438.207504485001	438.209631759	"18"	13995.600588049	13987.217676062	1.5	0.1
0.01	1	0.135969239001497	1	68	NA	446.026580668	0	0.44	5.02	1	438.44128121	438.577250449001	"18"	13995.600588049	13987.217676062	1.5	0.1
0.01	1	0.00211020599999756	1	68	NA	446.026580668	0	0.44	5.02	1	438.808556137001	438.810666343001	"18"	13995.600588049	13987.217676062	1.5	0.1
0.01	1	0.119135181999809	1	68	NA	446.026580668	0	0.44	5.02	1	439.04219862	439.161333802	"18"	13995.600588049	13987.217676062	1.5	0.1
0.01	1	0.00468062500112865	1	68	NA	446.026580668	0	0.44	5.02	1	439.392931265	439.397611890001	"18"	13995.600588049	13987.217676062	1.5	0.1
0.01	1	0.109398986000087	1	68	NA	446.026580668	0	0.44	5.02	1	439.626636012001	439.736034998001	"18"	13995.600588049	13987.217676062	1.5	0.1
0.01	1	0.00212566700065508	1	68	NA	446.026580668	0	0.44	5.02	1	439.960433631	439.962559298001	"18"	13995.600588049	13987.217676062	1.5	0.1
0.01	1	0.0948982649988466	1	68	NA	446.026580668	0	0.44	5.02	1	440.194177160001	440.289075425	"18"	13995.600588049	13987.217676062	1.5	0.1
0.01	1	0.0960752249993675	1	68	NA	446.026580668	0	0.44	5.02	1	440.511407085001	440.607482310001	"18"	13995.600588049	13987.217676062	1.5	0.1
0.01	1	0.106488167000862	1	68	NA	446.026580668	0	0.44	5.02	1	440.845317740001	440.951805907001	"18"	13995.600588049	13987.217676062	1.5	0.1
0.01	1	0.00211508900065382	1	68	NA	446.026580668	0	0.44	5.02	1	441.179233637	441.181348726001	"18"	13995.600588049	13987.217676062	1.5	0.1
0.01	1	0.0920853900006477	1	68	NA	446.026580668	0	0.44	5.02	1	441.41292074	441.505006130001	"18"	13995.600588049	13987.217676062	1.5	0.1
0.01	1	0.109464312999989	1	68	NA	446.026580668	0	0.44	5.02	1	441.730103822001	441.839568135001	"18"	13995.600588049	13987.217676062	1.5	0.1
0.01	1	0.00214928800050984	1	68	NA	446.026580668	0	0.44	5.02	1	442.06405721	442.066206498001	"18"	13995.600588049	13987.217676062	1.5	0.1
0.01	1	0.0954131119997328	1	68	NA	446.026580668	0	0.44	5.02	1	442.297720335	442.393133447	"18"	13995.600588049	13987.217676062	1.5	0.1
0.01	1	0.103863942998942	1	68	NA	446.026580668	0	0.44	5.02	1	442.631572522001	442.735436465	"18"	13995.600588049	13987.217676062	1.5	0.1
0.01	1	0.11469604299964	1	68	NA	446.026580668	0	0.44	5.02	1	442.965588625	443.080284668	"18"	13995.600588049	13987.217676062	1.5	0.1
0.01	1	0.00457160999940243	1	68	NA	446.026580668	0	0.44	5.02	1	443.316181535001	443.320753145001	"18"	13995.600588049	13987.217676062	1.5	0.1
0.01	1	0.0501735969992296	1	68	NA	446.026580668	0	0.44	5.02	1	443.549799365001	443.599972962	"18"	13995.600588049	13987.217676062	1.5	0.1
0.01	1	0.00205768600062584	1	68	NA	446.026580668	0	0.44	5.02	1	443.833753409001	443.835811095001	"18"	13995.600588049	13987.217676062	1.5	0.1
0.01	1	0.0375043290005124	1	68	NA	446.026580668	0	0.44	5.02	1	444.06736544	444.104869769	"18"	13995.600588049	13987.217676062	1.5	0.1
0.01	1	0.0020851400004176	1	68	NA	446.026580668	0	0.44	5.02	1	444.334538098001	444.336623238001	"18"	13995.600588049	13987.217676062	1.5	0.1
0.01	1	0.0637740530000883	1	68	NA	446.026580668	0	0.44	5.02	1	444.568273515	444.632047568	"18"	13995.600588049	13987.217676062	1.5	0.1
0.01	1	0.00475198000094679	1	68	NA	446.026580668	0	0.44	5.02	1	444.86877784	444.873529820001	"18"	13995.600588049	13987.217676062	1.5	0.1
0.01	1	0.0896618669994496	1	68	NA	446.026580668	0	0.44	5.02	1	445.102386862001	445.192048729001	"18"	13995.600588049	13987.217676062	1.5	0.1
0.01	1	0.0851645960010501	1	68	NA	446.026580668	0	0.44	5.02	1	445.419574689	445.504739285001	"18"	13995.600588049	13987.217676062	1.5	0.1
0.01	1	0.288044019000154	2	68	NA	446.026580668	0	0.44	5.02	1	445.736920437001	446.024964456001	"18"	13995.600588049	13987.217676062	1.5	0.1
0.01	1	0.414873359000921	1	116	NA	464.050851170001	0	0.54	5.56	1	448.057383027	448.472256386001	"19"	13995.600588049	13987.217676062	1.5	0.1
0.01	1	0.00455565700031002	1	116	NA	464.050851170001	0	0.54	5.56	1	448.708581465	448.713137122	"19"	13995.600588049	13987.217676062	1.5	0.1
