"payoff.level"	"balloon"	"rt"	"resp"	"explode.trial"	"explode.time"	"finish.time"	"exploded"	"trial.total"	"cumulative.total"	"finished"	"trial.start"	"trial.end"	"trial.num"	"secs"	"start.time"	"iti"	"isi"
0.01	1	5.19535592200009	1	64	NA	20.425713521	0	0.08	0.08	1	0.01152751599966	5.20688343799975	"1"	5451.431969369	5449.277950281	1.5	0.1
0.01	1	2.09159020999959	1	64	NA	20.425713521	0	0.08	0.08	1	5.58722811400003	7.67881832399962	"1"	5451.431969369	5449.277950281	1.5	0.1
0.01	1	2.47538316699956	1	64	NA	20.425713521	0	0.08	0.08	1	7.90777863400035	10.3831618009999	"1"	5451.431969369	5449.277950281	1.5	0.1
0.01	1	3.16284943000028	1	64	NA	20.425713521	0	0.08	0.08	1	10.6123466939998	13.7751961240001	"1"	5451.431969369	5449.277950281	1.5	0.1
0.01	1	1.8537368719999	1	64	NA	20.425713521	0	0.08	0.08	1	14.0015077609996	15.8552446329995	"1"	5451.431969369	5449.277950281	1.5	0.1
0.01	1	2.3118575189992	1	64	NA	20.425713521	0	0.08	0.08	1	16.0883369390003	18.4001944579995	"1"	5451.431969369	5449.277950281	1.5	0.1
0.01	1	0.508728779000194	1	64	NA	20.425713521	0	0.08	0.08	1	18.625874159	19.1346029380002	"1"	5451.431969369	5449.277950281	1.5	0.1
0.01	1	0.383368099000108	1	64	NA	20.425713521	0	0.08	0.08	1	19.3604124510002	19.7437805500003	"1"	5451.431969369	5449.277950281	1.5	0.1
0.01	1	0.445787616000416	2	64	NA	20.425713521	0	0.08	0.08	1	19.9782207389999	20.4240083550003	"1"	5451.431969369	5449.277950281	1.5	0.1
0.01	1	1.64495257499948	1	15	NA	25.5294915699997	0	0.03	0.11	1	22.4656609840004	24.1106135589998	"2"	5451.431969369	5449.277950281	1.5	0.1
0.01	1	0.142215185999703	1	15	NA	25.5294915699997	0	0.03	0.11	1	24.3522002509999	24.4944154369996	"2"	5451.431969369	5449.277950281	1.5	0.1
0.01	1	0.119496690000233	1	15	NA	25.5294915699997	0	0.03	0.11	1	24.7196388889997	24.839135579	"2"	5451.431969369	5449.277950281	1.5	0.1
0.01	1	0.457686321999972	2	15	NA	25.5294915699997	0	0.03	0.11	1	25.0701307910003	25.5278171130003	"2"	5451.431969369	5449.277950281	1.5	0.1
0.01	1	0.464843719999408	1	66	NA	30.736619667	0	0.06	0.17	1	27.5576239390002	28.0224676589996	"3"	5451.431969369	5449.277950281	1.5	0.1
0.01	1	0.0610793959995135	1	66	NA	30.736619667	0	0.06	0.17	1	28.2587596140002	28.3198390099997	"3"	5451.431969369	5449.277950281	1.5	0.1
0.01	1	0.0885605330004182	1	66	NA	30.736619667	0	0.06	0.17	1	28.5425958959995	28.6311564289999	"3"	5451.431969369	5449.277950281	1.5	0.1
0.01	1	0.339023653999902	1	66	NA	30.736619667	0	0.06	0.17	1	28.8598396790003	29.1988633330002	"3"	5451.431969369	5449.277950281	1.5	0.1
0.01	1	0.259589522999704	1	66	NA	30.736619667	0	0.06	0.17	1	29.4273340110003	29.686923534	"3"	5451.431969369	5449.277950281	1.5	0.1
0.01	1	0.263909969999986	1	66	NA	30.736619667	0	0.06	0.17	1	29.9115953190003	30.1755052890003	"3"	5451.431969369	5449.277950281	1.5	0.1
0.01	1	0.322515801000009	2	66	NA	30.736619667	0	0.06	0.17	1	30.4124303190001	30.7349461200001	"3"	5451.431969369	5449.277950281	1.5	0.1
0.01	1	0.321193644000232	1	16	37.4271853089995	NA	1	0	0.17	1	32.7830509039995	33.1042445479998	"4"	5451.431969369	5449.277950281	1.5	0.1
0.01	1	0.0579362520002178	1	16	37.4271853089995	NA	1	0	0.17	1	33.334019029	33.3919552810003	"4"	5451.431969369	5449.277950281	1.5	0.1
0.01	1	0.0383515829998942	1	16	37.4271853089995	NA	1	0	0.17	1	33.6178171609999	33.6561687439998	"4"	5451.431969369	5449.277950281	1.5	0.1
0.01	1	0.00984642399998847	1	16	37.4271853089995	NA	1	0	0.17	1	33.884853044	33.894699468	"4"	5451.431969369	5449.277950281	1.5	0.1
0.01	1	0.0400372850008353	1	16	37.4271853089995	NA	1	0	0.17	1	34.1352984959995	34.1753357810003	"4"	5451.431969369	5449.277950281	1.5	0.1
0.01	1	0.0367362680008227	1	16	37.4271853089995	NA	1	0	0.17	1	34.4024637739994	34.4392000420003	"4"	5451.431969369	5449.277950281	1.5	0.1
0.01	1	0.033072832000471	1	16	37.4271853089995	NA	1	0	0.17	1	34.6696680739997	34.7027409060001	"4"	5451.431969369	5449.277950281	1.5	0.1
0.01	1	0.0310686749999149	1	16	37.4271853089995	NA	1	0	0.17	1	34.9366465459998	34.9677152209997	"4"	5451.431969369	5449.277950281	1.5	0.1
0.01	1	0.0353057780002928	1	16	37.4271853089995	NA	1	0	0.17	1	35.203839754	35.2391455320003	"4"	5451.431969369	5449.277950281	1.5	0.1
0.01	1	0.159905092999907	1	16	37.4271853089995	NA	1	0	0.17	1	35.4709208189997	35.6308259119996	"4"	5451.431969369	5449.277950281	1.5	0.1
0.01	1	0.0412023260005299	1	16	37.4271853089995	NA	1	0	0.17	1	35.8548194839996	35.8960218100001	"4"	5451.431969369	5449.277950281	1.5	0.1
0.01	1	0.0522506850002173	1	16	37.4271853089995	NA	1	0	0.17	1	36.1220304339995	36.1742811189997	"4"	5451.431969369	5449.277950281	1.5	0.1
0.01	1	0.0742341569994096	1	16	37.4271853089995	NA	1	0	0.17	1	36.4058940140003	36.4801281709997	"4"	5451.431969369	5449.277950281	1.5	0.1
0.01	1	0.0208702540003287	1	16	37.4271853089995	NA	1	0	0.17	1	36.7063107389995	36.7271809929998	"4"	5451.431969369	5449.277950281	1.5	0.1
0.01	1	0.0514322979997814	1	16	37.4271853089995	NA	1	0	0.17	1	36.9568162830001	37.0082485809999	"4"	5451.431969369	5449.277950281	1.5	0.1
0.01	1	0.0797047269998075	1	16	37.4271853089995	NA	1	0	0.17	1	37.2405820659997	37.3202867929995	"4"	5451.431969369	5449.277950281	1.5	0.1
0.01	1	0.441034154999215	1	50	NA	41.7286907119997	0	0.07	0.24	1	39.4776278930003	39.9186620479995	"5"	5451.431969369	5449.277950281	1.5	0.1
0.01	1	0.00415536200034694	1	50	NA	41.7286907119997	0	0.07	0.24	1	40.1453384959996	40.1494938579999	"5"	5451.431969369	5449.277950281	1.5	0.1
0.01	1	0.00386508600058733	1	50	NA	41.7286907119997	0	0.07	0.24	1	40.3791309259996	40.3829960120001	"5"	5451.431969369	5449.277950281	1.5	0.1
0.01	1	0.0100926240002082	1	50	NA	41.7286907119997	0	0.07	0.24	1	40.6128085789996	40.6229012029999	"5"	5451.431969369	5449.277950281	1.5	0.1
0.01	1	0.00391790699995909	1	50	NA	41.7286907119997	0	0.07	0.24	1	40.8632582009996	40.8671761079995	"5"	5451.431969369	5449.277950281	1.5	0.1
0.01	1	0.0138422749996607	1	50	NA	41.7286907119997	0	0.07	0.24	1	41.0969887410001	41.1108310159998	"5"	5451.431969369	5449.277950281	1.5	0.1
0.01	1	0.0198734610003157	1	50	NA	41.7286907119997	0	0.07	0.24	1	41.3473714339998	41.3672448950001	"5"	5451.431969369	5449.277950281	1.5	0.1
0.01	1	0.129030730000522	2	50	NA	41.7286907119997	0	0.07	0.24	1	41.5979672089998	41.7269979390003	"5"	5451.431969369	5449.277950281	1.5	0.1
0.01	1	0.559513967000385	1	45	NA	45.8882349109999	0	0.06	0.3	1	43.7515167339998	44.3110307010002	"6"	5451.431969369	5449.277950281	1.5	0.1
0.01	1	0.0237606319997212	1	45	NA	45.8882349109999	0	0.06	0.3	1	44.5361857190001	44.5599463509998	"6"	5451.431969369	5449.277950281	1.5	0.1
0.01	1	0.0292169920003289	1	45	NA	45.8882349109999	0	0.06	0.3	1	44.7866490589995	44.8158660509998	"6"	5451.431969369	5449.277950281	1.5	0.1
0.01	1	0.0174130579998746	1	45	NA	45.8882349109999	0	0.06	0.3	1	45.0536869440002	45.0711000020001	"6"	5451.431969369	5449.277950281	1.5	0.1
0.01	1	0.00403931799974089	1	45	NA	45.8882349109999	0	0.06	0.3	1	45.3040593340002	45.3080986519999	"6"	5451.431969369	5449.277950281	1.5	0.1
0.01	1	0.0140049750007165	1	45	NA	45.8882349109999	0	0.06	0.3	1	45.5379201839996	45.5519251590003	"6"	5451.431969369	5449.277950281	1.5	0.1
0.01	1	0.0982148729999608	2	45	NA	45.8882349109999	0	0.06	0.3	1	45.7883249790002	45.8865398520002	"6"	5451.431969369	5449.277950281	1.5	0.1
0.01	1	2.25864110600014	1	7	53.7713410489996	NA	1	0	0.3	1	47.9252084489999	50.1838495550001	"7"	5451.431969369	5449.277950281	1.5	0.1
0.01	1	0.347686294000596	1	7	53.7713410489996	NA	1	0	0.3	1	50.4127037139997	50.7603900080003	"7"	5451.431969369	5449.277950281	1.5	0.1
0.01	1	0.427107757999693	1	7	53.7713410489996	NA	1	0	0.3	1	50.9970786710001	51.4241864289997	"7"	5451.431969369	5449.277950281	1.5	0.1
0.01	1	0.320677621999494	1	7	53.7713410489996	NA	1	0	0.3	1	51.6480709910002	51.9687486129997	"7"	5451.431969369	5449.277950281	1.5	0.1
0.01	1	0.311837093000577	1	7	53.7713410489996	NA	1	0	0.3	1	52.1991602939997	52.5109973870003	"7"	5451.431969369	5449.277950281	1.5	0.1
0.01	1	0.33114157700038	1	7	53.7713410489996	NA	1	0	0.3	1	52.7332439889997	53.0643855660001	"7"	5451.431969369	5449.277950281	1.5	0.1
0.01	1	0.354062115999113	1	7	53.7713410489996	NA	1	0	0.3	1	53.3009101340003	53.6549722499994	"7"	5451.431969369	5449.277950281	1.5	0.1
0.01	1	0.3702528849999	1	34	NA	60.6735187329996	0	0.08	0.38	1	55.821785569	56.1920384539999	"8"	5451.431969369	5449.277950281	1.5	0.1
0.01	1	0.225499934999789	1	34	NA	60.6735187329996	0	0.08	0.38	1	56.4227935839999	56.6482935189997	"8"	5451.431969369	5449.277950281	1.5	0.1
0.01	1	0.269118184000035	1	34	NA	60.6735187329996	0	0.08	0.38	1	56.8735983489996	57.1427165329997	"8"	5451.431969369	5449.277950281	1.5	0.1
0.01	1	0.210046112000782	1	34	NA	60.6735187329996	0	0.08	0.38	1	57.3745255839995	57.5845716960002	"8"	5451.431969369	5449.277950281	1.5	0.1
0.01	1	0.223650090999399	1	34	NA	60.6735187329996	0	0.08	0.38	1	57.808434773	58.0320848639994	"8"	5451.431969369	5449.277950281	1.5	0.1
0.01	1	0.219538669999565	1	34	NA	60.6735187329996	0	0.08	0.38	1	58.2593876640003	58.4789263339999	"8"	5451.431969369	5449.277950281	1.5	0.1
0.01	1	0.41852925800049	1	34	NA	60.6735187329996	0	0.08	0.38	1	58.7100658139998	59.1285950720003	"8"	5451.431969369	5449.277950281	1.5	0.1
0.01	1	0.431120388999261	1	34	NA	60.6735187329996	0	0.08	0.38	1	59.3612256340002	59.7923460229995	"8"	5451.431969369	5449.277950281	1.5	0.1
0.01	1	0.642882414999804	2	34	NA	60.6735187329996	0	0.08	0.38	1	60.028946589	60.6718290039998	"8"	5451.431969369	5449.277950281	1.5	0.1
0.01	1	0.322923886999888	1	110	NA	64.8646276879999	0	0.05	0.43	1	62.716735991	63.0396598779998	"9"	5451.431969369	5449.277950281	1.5	0.1
0.01	1	0.0512319310000748	1	110	NA	64.8646276879999	0	0.05	0.43	1	63.2676194189999	63.3188513499999	"9"	5451.431969369	5449.277950281	1.5	0.1
0.01	1	0.0647423899999922	1	110	NA	64.8646276879999	0	0.05	0.43	1	63.5515401739995	63.6162825639994	"9"	5451.431969369	5449.277950281	1.5	0.1
0.01	1	0.0607476639997913	1	110	NA	64.8646276879999	0	0.05	0.43	1	63.8520288640002	63.912776528	"9"	5451.431969369	5449.277950281	1.5	0.1
0.01	1	0.0807655030002934	1	110	NA	64.8646276879999	0	0.05	0.43	1	64.1357853009995	64.2165508039998	"9"	5451.431969369	5449.277950281	1.5	0.1
0.01	1	0.409961616000146	2	110	NA	64.8646276879999	0	0.05	0.43	1	64.4529772659998	64.862938882	"9"	5451.431969369	5449.277950281	1.5	0.1
0.01	1	0.293265959000564	1	8	NA	70.1780930309997	0	0.07	0.5	1	66.9072171729995	67.200483132	"10"	5451.431969369	5449.277950281	1.5	0.1
0.01	1	0.125672771000609	1	8	NA	70.1780930309997	0	0.07	0.5	1	67.4414785259996	67.5671512970002	"10"	5451.431969369	5449.277950281	1.5	0.1
0.01	1	0.0868122750007387	1	8	NA	70.1780930309997	0	0.07	0.5	1	67.7920134139995	67.8788256890002	"10"	5451.431969369	5449.277950281	1.5	0.1
0.01	1	0.11438870099937	1	8	NA	70.1780930309997	0	0.07	0.5	1	68.1092613190003	68.2236500199997	"10"	5451.431969369	5449.277950281	1.5	0.1
0.01	1	0.0751937140003065	1	8	NA	70.1780930309997	0	0.07	0.5	1	68.4598115789995	68.5350052929998	"10"	5451.431969369	5449.277950281	1.5	0.1
0.01	1	0.175334649999968	1	8	NA	70.1780930309997	0	0.07	0.5	1	68.7602495219999	68.9355841719998	"10"	5451.431969369	5449.277950281	1.5	0.1
0.01	1	0.439730076999695	1	8	NA	70.1780930309997	0	0.07	0.5	1	69.160932924	69.6006630009997	"10"	5451.431969369	5449.277950281	1.5	0.1
0.01	1	0.347826703000464	2	8	NA	70.1780930309997	0	0.07	0.5	1	69.8287046309997	70.1765313340002	"10"	5451.431969369	5449.277950281	1.5	0.1
0.01	1	0.438344856000185	1	52	NA	74.6247132999997	0	0.05	0.55	1	72.2327584129998	72.671103269	"11"	5451.431969369	5449.277950281	1.5	0.1
0.01	1	0.114477857999191	1	52	NA	74.6247132999997	0	0.05	0.55	1	72.9006019440003	73.0150798019995	"11"	5451.431969369	5449.277950281	1.5	0.1
0.01	1	0.0850648220002768	1	52	NA	74.6247132999997	0	0.05	0.55	1	73.2511692159997	73.3362340379999	"11"	5451.431969369	5449.277950281	1.5	0.1
0.01	1	0.063031613000021	1	52	NA	74.6247132999997	0	0.05	0.55	1	73.5683751710003	73.6314067840003	"11"	5451.431969369	5449.277950281	1.5	0.1
0.01	1	0.0669135879998066	1	52	NA	74.6247132999997	0	0.05	0.55	1	73.8688078089999	73.9357213969997	"11"	5451.431969369	5449.277950281	1.5	0.1
0.01	1	0.453658098999767	2	52	NA	74.6247132999997	0	0.05	0.55	1	74.1693796689997	74.6230377679994	"11"	5451.431969369	5449.277950281	1.5	0.1
0.01	1	0.357219948999955	1	80	NA	79.0896194839997	0	0.05	0.6	1	76.6736304529995	77.0308504019995	"12"	5451.431969369	5449.277950281	1.5	0.1
0.01	1	0.118528588000117	1	80	NA	79.0896194839997	0	0.05	0.6	1	77.2578213209999	77.3763499090001	"12"	5451.431969369	5449.277950281	1.5	0.1
0.01	1	0.0799041840000427	1	80	NA	79.0896194839997	0	0.05	0.6	1	77.6084602559995	77.6883644399995	"12"	5451.431969369	5449.277950281	1.5	0.1
0.01	1	0.0652890349992958	1	80	NA	79.0896194839997	0	0.05	0.6	1	77.9257031460002	77.9909921809995	"12"	5451.431969369	5449.277950281	1.5	0.1
0.01	1	0.124653252999451	1	80	NA	79.0896194839997	0	0.05	0.6	1	78.2262140940002	78.3508673469996	"12"	5451.431969369	5449.277950281	1.5	0.1
0.01	1	0.511114044000351	2	80	NA	79.0896194839997	0	0.05	0.6	1	78.5768090539996	79.0879230979999	"12"	5451.431969369	5449.277950281	1.5	0.1
0.01	1	0.333171159999438	1	100	NA	85.1767252079999	0	0.1	0.7	1	81.1310704790003	81.4642416389997	"13"	5451.431969369	5449.277950281	1.5	0.1
0.01	1	0.0759508000001006	1	100	NA	85.1767252079999	0	0.1	0.7	1	81.6986932919999	81.774644092	"13"	5451.431969369	5449.277950281	1.5	0.1
0.01	1	0.0646387569995568	1	100	NA	85.1767252079999	0	0.1	0.7	1	81.999169873	82.0638086299996	"13"	5451.431969369	5449.277950281	1.5	0.1
0.01	1	0.0913454390001789	1	100	NA	85.1767252079999	0	0.1	0.7	1	82.2997245289998	82.391069968	"13"	5451.431969369	5449.277950281	1.5	0.1
0.01	1	0.0621137560001443	1	100	NA	85.1767252079999	0	0.1	0.7	1	82.6168783459998	82.6789921019999	"13"	5451.431969369	5449.277950281	1.5	0.1
0.01	1	0.0746666180002649	1	100	NA	85.1767252079999	0	0.1	0.7	1	82.9174525230001	82.9921191410003	"13"	5451.431969369	5449.277950281	1.5	0.1
0.01	1	0.0932198629998311	1	100	NA	85.1767252079999	0	0.1	0.7	1	83.2179281389999	83.3111480019998	"13"	5451.431969369	5449.277950281	1.5	0.1
0.01	1	0.121474608999961	1	100	NA	85.1767252079999	0	0.1	0.7	1	83.5350902660002	83.6565648750002	"13"	5451.431969369	5449.277950281	1.5	0.1
0.01	1	0.113271320999957	1	100	NA	85.1767252079999	0	0.1	0.7	1	83.8857269509999	83.9989982719999	"13"	5451.431969369	5449.277950281	1.5	0.1
0.01	1	0.0915921819996584	1	100	NA	85.1767252079999	0	0.1	0.7	1	84.2363034760001	84.3278956579998	"13"	5451.431969369	5449.277950281	1.5	0.1
0.01	1	0.621653279999919	2	100	NA	85.1767252079999	0	0.1	0.7	1	84.553491699	85.1751449789999	"13"	5451.431969369	5449.277950281	1.5	0.1
0.01	1	0.47117308199995	1	24	NA	92.0898097489999	0	0.1	0.8	1	87.2247087489995	87.6958818309995	"14"	5451.431969369	5449.277950281	1.5	0.1
0.01	1	0.105060628000501	1	24	NA	92.0898097489999	0	0.1	0.8	1	87.9258204709995	88.030881099	"14"	5451.431969369	5449.277950281	1.5	0.1
0.01	1	0.0592324130002453	1	24	NA	92.0898097489999	0	0.1	0.8	1	88.2597102709997	88.3189426839999	"14"	5451.431969369	5449.277950281	1.5	0.1
0.01	1	0.0634867980006675	1	24	NA	92.0898097489999	0	0.1	0.8	1	88.5601722459996	88.6236590440003	"14"	5451.431969369	5449.277950281	1.5	0.1
0.01	1	0.491190588000791	1	24	NA	92.0898097489999	0	0.1	0.8	1	88.8607343839994	89.3519249720002	"14"	5451.431969369	5449.277950281	1.5	0.1
0.01	1	0.301786806000564	1	24	NA	92.0898097489999	0	0.1	0.8	1	89.5787010639997	89.8804878700003	"14"	5451.431969369	5449.277950281	1.5	0.1
0.01	1	0.0956151489999684	1	24	NA	92.0898097489999	0	0.1	0.8	1	90.1128224690001	90.2084376180001	"14"	5451.431969369	5449.277950281	1.5	0.1
0.01	1	0.0239363689997845	1	24	NA	92.0898097489999	0	0.1	0.8	1	90.4467609909998	90.4706973599996	"14"	5451.431969369	5449.277950281	1.5	0.1
0.01	1	0.11815441500039	1	24	NA	92.0898097489999	0	0.1	0.8	1	90.6972068289997	90.8153612440001	"14"	5451.431969369	5449.277950281	1.5	0.1
0.01	1	0.400884114999826	1	24	NA	92.0898097489999	0	0.1	0.8	1	91.047776329	91.4486604439999	"14"	5451.431969369	5449.277950281	1.5	0.1
0.01	1	0.406190042000162	2	24	NA	92.0898097489999	0	0.1	0.8	1	91.6820875009998	92.088277543	"14"	5451.431969369	5449.277950281	1.5	0.1
0.01	1	0.111677170999428	1	75	NA	98.3215123479995	0	0.1	0.9	1	94.1195665240002	94.2312436949996	"15"	5451.431969369	5449.277950281	1.5	0.1
0.01	1	0.0668608830001176	1	75	NA	98.3215123479995	0	0.1	0.9	1	94.453520901	94.5203817840002	"15"	5451.431969369	5449.277950281	1.5	0.1
0.01	1	0.0533373530006429	1	75	NA	98.3215123479995	0	0.1	0.9	1	94.7539028989995	94.8072402520002	"15"	5451.431969369	5449.277950281	1.5	0.1
0.01	1	0.0422476599997026	1	75	NA	98.3215123479995	0	0.1	0.9	1	95.0378540040001	95.0801016639998	"15"	5451.431969369	5449.277950281	1.5	0.1
0.01	1	0.0953421149997666	1	75	NA	98.3215123479995	0	0.1	0.9	1	95.3049534390002	95.400295554	"15"	5451.431969369	5449.277950281	1.5	0.1
0.01	1	0.36816881499999	1	75	NA	98.3215123479995	0	0.1	0.9	1	95.6388645440002	96.0070333590002	"15"	5451.431969369	5449.277950281	1.5	0.1
0.01	1	0.0650357219992657	1	75	NA	98.3215123479995	0	0.1	0.9	1	96.2398364640003	96.3048721859996	"15"	5451.431969369	5449.277950281	1.5	0.1
0.01	1	0.0758701509994353	1	75	NA	98.3215123479995	0	0.1	0.9	1	96.5403914210001	96.6162615719995	"15"	5451.431969369	5449.277950281	1.5	0.1
0.01	1	0.134845213000517	1	75	NA	98.3215123479995	0	0.1	0.9	1	96.8407948189997	96.9756400320002	"15"	5451.431969369	5449.277950281	1.5	0.1
0.01	1	0.470738250000068	1	75	NA	98.3215123479995	0	0.1	0.9	1	97.2081632589998	97.6789015089998	"15"	5451.431969369	5449.277950281	1.5	0.1
0.01	1	0.410637635000057	2	75	NA	98.3215123479995	0	0.1	0.9	1	97.9093306489995	98.3199682839995	"15"	5451.431969369	5449.277950281	1.5	0.1
0.01	1	0.380770980000307	1	112	NA	104.897438976	0	0.1	1	1	100.346797878999	100.727568859	"16"	5451.431969369	5449.277950281	1.5	0.1
0.01	1	0.0916949759994168	1	112	NA	104.897438976	0	0.1	1	1	100.964481326	101.056176302	"16"	5451.431969369	5449.277950281	1.5	0.1
0.01	1	0.0539257770005861	1	112	NA	104.897438976	0	0.1	1	1	101.281718441	101.335644218	"16"	5451.431969369	5449.277950281	1.5	0.1
0.01	1	0.0576151730001584	1	112	NA	104.897438976	0	0.1	1	1	101.565401293	101.623016466	"16"	5451.431969369	5449.277950281	1.5	0.1
0.01	1	0.0619004089994633	1	112	NA	104.897438976	0	0.1	1	1	101.849194761	101.911095169999	"16"	5451.431969369	5449.277950281	1.5	0.1
0.01	1	0.386968314000114	1	112	NA	104.897438976	0	0.1	1	1	102.133136753	102.520105067	"16"	5451.431969369	5449.277950281	1.5	0.1
0.01	1	0.0803311550007493	1	112	NA	104.897438976	0	0.1	1	1	102.750875444	102.831206599	"16"	5451.431969369	5449.277950281	1.5	0.1
0.01	1	0.0510502489996725	1	112	NA	104.897438976	0	0.1	1	1	103.067979589	103.119029838	"16"	5451.431969369	5449.277950281	1.5	0.1
0.01	1	0.102992287999768	1	112	NA	104.897438976	0	0.1	1	1	103.351850584	103.454842872	"16"	5451.431969369	5449.277950281	1.5	0.1
0.01	1	0.145158620000075	1	112	NA	104.897438976	0	0.1	1	1	103.685672501	103.830831121	"16"	5451.431969369	5449.277950281	1.5	0.1
0.01	1	0.826218639999752	2	112	NA	104.897438976	0	0.1	1	1	104.069654701	104.895873341	"16"	5451.431969369	5449.277950281	1.5	0.1
0.01	1	0.355850744999771	1	116	NA	111.337609507	0	0.1	1.1	1	106.924584349	107.280435094	"17"	5451.431969369	5449.277950281	1.5	0.1
0.01	1	0.0753423939995628	1	116	NA	111.337609507	0	0.1	1.1	1	107.508752801	107.584095194999	"17"	5451.431969369	5449.277950281	1.5	0.1
0.01	1	0.0708421930003169	1	116	NA	111.337609507	0	0.1	1.1	1	107.809324991	107.880167184	"17"	5451.431969369	5449.277950281	1.5	0.1
0.01	1	0.0812672289994225	1	116	NA	111.337609507	0	0.1	1.1	1	108.109778629	108.191045858	"17"	5451.431969369	5449.277950281	1.5	0.1
0.01	1	0.0695944099998087	1	116	NA	111.337609507	0	0.1	1.1	1	108.427052421	108.496646830999	"17"	5451.431969369	5449.277950281	1.5	0.1
0.01	1	0.223482834999231	1	116	NA	111.337609507	0	0.1	1.1	1	108.727485301	108.950968136	"17"	5451.431969369	5449.277950281	1.5	0.1
0.01	1	0.0683845029998338	1	116	NA	111.337609507	0	0.1	1.1	1	109.178326204	109.246710707	"17"	5451.431969369	5449.277950281	1.5	0.1
0.01	1	0.0480881129997215	1	116	NA	111.337609507	0	0.1	1.1	1	109.47877729	109.526865403	"17"	5451.431969369	5449.277950281	1.5	0.1
0.01	1	0.0770697100006146	1	116	NA	111.337609507	0	0.1	1.1	1	109.762661399	109.839731109	"17"	5451.431969369	5449.277950281	1.5	0.1
0.01	1	0.480860179000047	1	116	NA	111.337609507	0	0.1	1.1	1	110.063072454	110.543932633	"17"	5451.431969369	5449.277950281	1.5	0.1
0.01	1	0.555046930000572	2	116	NA	111.337609507	0	0.1	1.1	1	110.781002819	111.336049749	"17"	5451.431969369	5449.277950281	1.5	0.1
0.01	1	0.343424178000532	1	31	NA	121.049762243	0	0.15	1.25	1	113.385350131	113.728774309	"18"	5451.431969369	5449.277950281	1.5	0.1
0.01	1	0.0873118179997618	1	31	NA	121.049762243	0	0.15	1.25	1	113.952967246	114.040279064	"18"	5451.431969369	5449.277950281	1.5	0.1
0.01	1	0.0407067000005554	1	31	NA	121.049762243	0	0.15	1.25	1	114.270179429	114.310886129	"18"	5451.431969369	5449.277950281	1.5	0.1
0.01	1	0.0295622979992913	1	31	NA	121.049762243	0	0.15	1.25	1	114.537329351	114.566891648999	"18"	5451.431969369	5449.277950281	1.5	0.1
0.01	1	0.0986517450000974	1	31	NA	121.049762243	0	0.15	1.25	1	114.804456624	114.903108369	"18"	5451.431969369	5449.277950281	1.5	0.1
0.01	1	0.645665660000304	1	31	NA	121.049762243	0	0.15	1.25	1	115.138237739	115.783903399	"18"	5451.431969369	5449.277950281	1.5	0.1
0.01	1	0.320840483999746	1	31	NA	121.049762243	0	0.15	1.25	1	116.006398156	116.327238639999	"18"	5451.431969369	5449.277950281	1.5	0.1
0.01	1	0.0978764270003012	1	31	NA	121.049762243	0	0.15	1.25	1	116.557316941	116.655193368	"18"	5451.431969369	5449.277950281	1.5	0.1
0.01	1	0.227770045999932	1	31	NA	121.049762243	0	0.15	1.25	1	116.891281549	117.119051595	"18"	5451.431969369	5449.277950281	1.5	0.1
0.01	1	0.321482378000837	1	31	NA	121.049762243	0	0.15	1.25	1	117.341922785999	117.663405164	"18"	5451.431969369	5449.277950281	1.5	0.1
0.01	1	0.483238928999526	1	31	NA	121.049762243	0	0.15	1.25	1	117.892985939	118.376224868	"18"	5451.431969369	5449.277950281	1.5	0.1
0.01	1	0.292035006999868	1	31	NA	121.049762243	0	0.15	1.25	1	118.610793023	118.90282803	"18"	5451.431969369	5449.277950281	1.5	0.1
0.01	1	0.271787153000332	1	31	NA	121.049762243	0	0.15	1.25	1	119.128310794	119.400097947	"18"	5451.431969369	5449.277950281	1.5	0.1
0.01	1	0.307186024000657	1	31	NA	121.049762243	0	0.15	1.25	1	119.629215428999	119.936401453	"18"	5451.431969369	5449.277950281	1.5	0.1
0.01	1	0.301407650000328	1	31	NA	121.049762243	0	0.15	1.25	1	120.163404186	120.464811836	"18"	5451.431969369	5449.277950281	1.5	0.1
0.01	1	0.350576384000306	2	31	NA	121.049762243	0	0.15	1.25	1	120.697623651	121.048200035	"18"	5451.431969369	5449.277950281	1.5	0.1
0.01	1	0.307234891999542	1	54	NA	128.921491964	0	0.16	1.41	1	123.085057381	123.392292273	"19"	5451.431969369	5449.277950281	1.5	0.1
0.01	1	0.0532472699997015	1	54	NA	128.921491964	0	0.16	1.41	1	123.619237479	123.672484749	"19"	5451.431969369	5449.277950281	1.5	0.1
0.01	1	0.023970253000698	1	54	NA	128.921491964	0	0.16	1.41	1	123.903109553999	123.927079807	"19"	5451.431969369	5449.277950281	1.5	0.1
0.01	1	0.0379591559994878	1	54	NA	128.921491964	0	0.16	1.41	1	124.153482771	124.191441927	"19"	5451.431969369	5449.277950281	1.5	0.1
0.01	1	0.0353797629995825	1	54	NA	128.921491964	0	0.16	1.41	1	124.420605884	124.455985647	"19"	5451.431969369	5449.277950281	1.5	0.1
0.01	1	0.257078939999701	1	54	NA	128.921491964	0	0.16	1.41	1	124.687774469	124.944853409	"19"	5451.431969369	5449.277950281	1.5	0.1
0.01	1	0.0366496269998606	1	54	NA	128.921491964	0	0.16	1.41	1	125.171833242	125.208482868999	"19"	5451.431969369	5449.277950281	1.5	0.1
0.01	1	0.0336562729999059	1	54	NA	128.921491964	0	0.16	1.41	1	125.438933046	125.472589319	"19"	5451.431969369	5449.277950281	1.5	0.1
0.01	1	0.0128403230000913	1	54	NA	128.921491964	0	0.16	1.41	1	125.706115301	125.718955624	"19"	5451.431969369	5449.277950281	1.5	0.1
0.01	1	0.0759515079998891	1	54	NA	128.921491964	0	0.16	1.41	1	125.956519814	126.032471322	"19"	5451.431969369	5449.277950281	1.5	0.1
0.01	1	0.309797819999403	1	54	NA	128.921491964	0	0.16	1.41	1	126.257010479	126.566808299	"19"	5451.431969369	5449.277950281	1.5	0.1
0.01	1	0.0392105930004618	1	54	NA	128.921491964	0	0.16	1.41	1	126.807887939	126.847098532	"19"	5451.431969369	5449.277950281	1.5	0.1
0.01	1	0.0528322600002866	1	54	NA	128.921491964	0	0.16	1.41	1	127.075036499	127.127868759	"19"	5451.431969369	5449.277950281	1.5	0.1
0.01	1	0.128104112000074	1	54	NA	128.921491964	0	0.16	1.41	1	127.35884879	127.486952902	"19"	5451.431969369	5449.277950281	1.5	0.1
0.01	1	0.138438726999993	1	54	NA	128.921491964	0	0.16	1.41	1	127.709474734	127.847913461	"19"	5451.431969369	5449.277950281	1.5	0.1
0.01	1	0.194253422000656	1	54	NA	128.921491964	0	0.16	1.41	1	128.076774316	128.271027738	"19"	5451.431969369	5449.277950281	1.5	0.1
0.01	1	0.425765236999723	2	54	NA	128.921491964	0	0.16	1.41	1	128.494185961	128.919951198	"19"	5451.431969369	5449.277950281	1.5	0.1
0.01	1	0.243881659000181	1	19	NA	136.912262733	0	0.14	1.55	1	130.964879884	131.208761543	"20"	5451.431969369	5449.277950281	1.5	0.1
0.01	1	0.0616213469993454	1	19	NA	136.912262733	0	0.14	1.55	1	131.449096354	131.510717701	"20"	5451.431969369	5449.277950281	1.5	0.1
0.01	1	0.0351989450000474	1	19	NA	136.912262733	0	0.14	1.55	1	131.732902719	131.768101664	"20"	5451.431969369	5449.277950281	1.5	0.1
0.01	1	0.0560917390002942	1	19	NA	136.912262733	0	0.14	1.55	1	131.999936153999	132.056027893	"20"	5451.431969369	5449.277950281	1.5	0.1
0.01	1	0.0352719829998023	1	19	NA	136.912262733	0	0.14	1.55	1	132.283832804	132.319104787	"20"	5451.431969369	5449.277950281	1.5	0.1
0.01	1	0.248011333999784	1	19	NA	136.912262733	0	0.14	1.55	1	132.550956789	132.798968123	"20"	5451.431969369	5449.277950281	1.5	0.1
0.01	1	0.0681941019993246	1	19	NA	136.912262733	0	0.14	1.55	1	133.035048689	133.103242791	"20"	5451.431969369	5449.277950281	1.5	0.1
0.01	1	0.0312791159994958	1	19	NA	136.912262733	0	0.14	1.55	1	133.335690846	133.366969962	"20"	5451.431969369	5449.277950281	1.5	0.1
0.01	1	0.100673336	1	19	NA	136.912262733	0	0.14	1.55	1	133.602783854	133.70345719	"20"	5451.431969369	5449.277950281	1.5	0.1
0.01	1	0.0880700589996195	1	19	NA	136.912262733	0	0.14	1.55	1	133.936619019	134.024689078	"20"	5451.431969369	5449.277950281	1.5	0.1
0.01	1	0.617244941999161	1	19	NA	136.912262733	0	0.14	1.55	1	134.253780619	134.871025560999	"20"	5451.431969369	5449.277950281	1.5	0.1
0.01	1	0.0470617949995358	1	19	NA	136.912262733	0	0.14	1.55	1	135.105181594	135.152243389	"20"	5451.431969369	5449.277950281	1.5	0.1
0.01	1	0.043238072999884	1	19	NA	136.912262733	0	0.14	1.55	1	135.388966904	135.432204977	"20"	5451.431969369	5449.277950281	1.5	0.1
0.01	1	0.055589775000044	1	19	NA	136.912262733	0	0.14	1.55	1	135.656099874	135.711689649	"20"	5451.431969369	5449.277950281	1.5	0.1
0.01	1	0.970667422000588	2	19	NA	136.912262733	0	0.14	1.55	1	135.940023876999	136.910691299	"20"	5451.431969369	5449.277950281	1.5	0.1
0.01	1	0.286824843999966	1	17	NA	142.544251587999	0	0.12	1.67	1	138.961787034	139.248611878	"21"	5451.431969369	5449.277950281	1.5	0.1
0.01	1	0.0101254789997256	1	17	NA	142.544251587999	0	0.12	1.67	1	139.479331271	139.48945675	"21"	5451.431969369	5449.277950281	1.5	0.1
0.01	1	0.0221411249995072	1	17	NA	142.544251587999	0	0.12	1.67	1	139.712925244	139.735066368999	"21"	5451.431969369	5449.277950281	1.5	0.1
0.01	1	0.045423543000652	1	17	NA	142.544251587999	0	0.12	1.67	1	139.963378666	140.008802209	"21"	5451.431969369	5449.277950281	1.5	0.1
0.01	1	0.00320171800012758	1	17	NA	142.544251587999	0	0.12	1.67	1	140.230476488	140.233678206	"21"	5451.431969369	5449.277950281	1.5	0.1
0.01	1	0.0162427820005178	1	17	NA	142.544251587999	0	0.12	1.67	1	140.464211891	140.480454673	"21"	5451.431969369	5449.277950281	1.5	0.1
0.01	1	0.0527993559999231	1	17	NA	142.544251587999	0	0.12	1.67	1	140.714672219	140.767471575	"21"	5451.431969369	5449.277950281	1.5	0.1
0.01	1	0.0027698589992724	1	17	NA	142.544251587999	0	0.12	1.67	1	140.99852618	141.001296038999	"21"	5451.431969369	5449.277950281	1.5	0.1
0.01	1	0.00390303399944969	1	17	NA	142.544251587999	0	0.12	1.67	1	141.232172764	141.236075798	"21"	5451.431969369	5449.277950281	1.5	0.1
0.01	1	0.00346849400011706	1	17	NA	142.544251587999	0	0.12	1.67	1	141.465956186	141.46942468	"21"	5451.431969369	5449.277950281	1.5	0.1
0.01	1	0.0123329650004962	1	17	NA	142.544251587999	0	0.12	1.67	1	141.699683864	141.712016829	"21"	5451.431969369	5449.277950281	1.5	0.1
0.01	1	0.0252448720002576	1	17	NA	142.544251587999	0	0.12	1.67	1	141.949973049	141.975217921	"21"	5451.431969369	5449.277950281	1.5	0.1
0.01	1	0.342113329999847	2	17	NA	142.544251587999	0	0.12	1.67	1	142.200520799	142.542634128999	"21"	5451.431969369	5449.277950281	1.5	0.1
0.01	1	0.0760272190000251	1	48	NA	154.137096374	0	0.27	1.94	1	144.587891923999	144.663919142999	"22"	5451.431969369	5449.277950281	1.5	0.1
0.01	1	0.0164132210002208	1	48	NA	154.137096374	0	0.27	1.94	1	144.888391372	144.904804593	"22"	5451.431969369	5449.277950281	1.5	0.1
0.01	1	0.00226382099936018	1	48	NA	154.137096374	0	0.27	1.94	1	145.13875988	145.141023701	"22"	5451.431969369	5449.277950281	1.5	0.1
0.01	1	0.00319834400033869	1	48	NA	154.137096374	0	0.27	1.94	1	145.372499888	145.375698232	"22"	5451.431969369	5449.277950281	1.5	0.1
0.01	1	0.00222335099988413	1	48	NA	154.137096374	0	0.27	1.94	1	145.606165818	145.608389169	"22"	5451.431969369	5449.277950281	1.5	0.1
0.01	1	0.0100975200002722	1	48	NA	154.137096374	0	0.27	1.94	1	145.839996461	145.850093981	"22"	5451.431969369	5449.277950281	1.5	0.1
0.01	1	0.00279350399978284	1	48	NA	154.137096374	0	0.27	1.94	1	146.073609324	146.076402828	"22"	5451.431969369	5449.277950281	1.5	0.1
0.01	1	0.00224520299980213	1	48	NA	154.137096374	0	0.27	1.94	1	146.307398996	146.309644199	"22"	5451.431969369	5449.277950281	1.5	0.1
0.01	1	0.0342061540004579	1	48	NA	154.137096374	0	0.27	1.94	1	146.541181629	146.575387783	"22"	5451.431969369	5449.277950281	1.5	0.1
0.01	1	0.00722829099959199	1	48	NA	154.137096374	0	0.27	1.94	1	146.808326051	146.815554342	"22"	5451.431969369	5449.277950281	1.5	0.1
0.01	1	0.0768105930001184	1	48	NA	154.137096374	0	0.27	1.94	1	147.041914242	147.118724835	"22"	5451.431969369	5449.277950281	1.5	0.1
0.01	1	0.0737309960004495	1	48	NA	154.137096374	0	0.27	1.94	1	147.34245177	147.416182766	"22"	5451.431969369	5449.277950281	1.5	0.1
0.01	1	0.0771706030000132	1	48	NA	154.137096374	0	0.27	1.94	1	147.643007919	147.720178522	"22"	5451.431969369	5449.277950281	1.5	0.1
0.01	1	0.0315363290001187	1	48	NA	154.137096374	0	0.27	1.94	1	147.943447289	147.974983618	"22"	5451.431969369	5449.277950281	1.5	0.1
0.01	1	0.045781351000187	1	48	NA	154.137096374	0	0.27	1.94	1	148.210606684	148.256388035	"22"	5451.431969369	5449.277950281	1.5	0.1
0.01	1	0.0178530430002866	1	48	NA	154.137096374	0	0.27	1.94	1	148.494425209	148.512278252	"22"	5451.431969369	5449.277950281	1.5	0.1
0.01	1	0.0636188400003448	1	48	NA	154.137096374	0	0.27	1.94	1	148.744783529	148.808402369	"22"	5451.431969369	5449.277950281	1.5	0.1
0.01	1	0.0499478950005141	1	48	NA	154.137096374	0	0.27	1.94	1	149.045348219	149.095296114	"22"	5451.431969369	5449.277950281	1.5	0.1
0.01	1	0.0395912759995554	1	48	NA	154.137096374	0	0.27	1.94	1	149.329132486	149.368723762	"22"	5451.431969369	5449.277950281	1.5	0.1
0.01	1	0.0511884699999428	1	48	NA	154.137096374	0	0.27	1.94	1	149.596210694	149.647399164	"22"	5451.431969369	5449.277950281	1.5	0.1
0.01	1	0.102898920000371	1	48	NA	154.137096374	0	0.27	1.94	1	149.880081286	149.982980206	"22"	5451.431969369	5449.277950281	1.5	0.1
0.01	1	0.401747228999739	1	48	NA	154.137096374	0	0.27	1.94	1	150.213973964	150.615721192999	"22"	5451.431969369	5449.277950281	1.5	0.1
0.01	1	0.351502729000458	1	48	NA	154.137096374	0	0.27	1.94	1	150.848321549	151.199824278	"22"	5451.431969369	5449.277950281	1.5	0.1
0.01	1	0.320144058000551	1	48	NA	154.137096374	0	0.27	1.94	1	151.432641685999	151.752785744	"22"	5451.431969369	5449.277950281	1.5	0.1
0.01	1	0.304818746999445	1	48	NA	154.137096374	0	0.27	1.94	1	151.983527671	152.288346417999	"22"	5451.431969369	5449.277950281	1.5	0.1
0.01	1	0.321984385999713	1	48	NA	154.137096374	0	0.27	1.94	1	152.517876864	152.83986125	"22"	5451.431969369	5449.277950281	1.5	0.1
0.01	1	0.298713992000557	1	48	NA	154.137096374	0	0.27	1.94	1	153.068829194	153.367543186	"22"	5451.431969369	5449.277950281	1.5	0.1
0.01	1	0.532561799999712	2	48	NA	154.137096374	0	0.27	1.94	1	153.602951269	154.135513069	"22"	5451.431969369	5449.277950281	1.5	0.1
0.01	1	1.07225635400027	1	18	161.669355544	NA	1	0	1.94	1	156.190671939	157.262928293	"23"	5451.431969369	5449.277950281	1.5	0.1
0.01	1	0.00229250000029424	1	18	161.669355544	NA	1	0	1.94	1	157.492929153	157.495221653	"23"	5451.431969369	5449.277950281	1.5	0.1
0.01	1	0.00279841699921235	1	18	161.669355544	NA	1	0	1.94	1	157.726685972	157.729484388999	"23"	5451.431969369	5449.277950281	1.5	0.1
0.01	1	0.00248162299976684	1	18	161.669355544	NA	1	0	1.94	1	157.960334142	157.962815765	"23"	5451.431969369	5449.277950281	1.5	0.1
0.01	1	0.0529523559998779	1	18	161.669355544	NA	1	0	1.94	1	158.194012526	158.246964882	"23"	5451.431969369	5449.277950281	1.5	0.1
0.01	1	0.049681985999996	1	18	161.669355544	NA	1	0	1.94	1	158.477859164	158.52754115	"23"	5451.431969369	5449.277950281	1.5	0.1
0.01	1	0.0305462480000642	1	18	161.669355544	NA	1	0	1.94	1	158.761623358	158.792169606	"23"	5451.431969369	5449.277950281	1.5	0.1
0.01	1	0.00269692199981364	1	18	161.669355544	NA	1	0	1.94	1	159.028880166	159.031577088	"23"	5451.431969369	5449.277950281	1.5	0.1
0.01	1	0.0254926259995045	1	18	161.669355544	NA	1	0	1.94	1	159.262543011	159.288035637	"23"	5451.431969369	5449.277950281	1.5	0.1
0.01	1	0.0143275629998243	1	18	161.669355544	NA	1	0	1.94	1	159.512865626	159.527193189	"23"	5451.431969369	5449.277950281	1.5	0.1
0.01	1	0.0532592760000625	1	18	161.669355544	NA	1	0	1.94	1	159.763314633999	159.81657391	"23"	5451.431969369	5449.277950281	1.5	0.1
0.01	1	0.00978905400006624	1	18	161.669355544	NA	1	0	1.94	1	160.047197224	160.056986278	"23"	5451.431969369	5449.277950281	1.5	0.1
0.01	1	0.0314930519998597	1	18	161.669355544	NA	1	0	1.94	1	160.280884146	160.312377198	"23"	5451.431969369	5449.277950281	1.5	0.1
0.01	1	0.00406232699970133	1	18	161.669355544	NA	1	0	1.94	1	160.548037141	160.552099468	"23"	5451.431969369	5449.277950281	1.5	0.1
0.01	1	0.0349798819997886	1	18	161.669355544	NA	1	0	1.94	1	160.781825751	160.816805633	"23"	5451.431969369	5449.277950281	1.5	0.1
0.01	1	0.00740171100005682	1	18	161.669355544	NA	1	0	1.94	1	161.048869999	161.05627171	"23"	5451.431969369	5449.277950281	1.5	0.1
0.01	1	0.0220736010005567	1	18	161.669355544	NA	1	0	1.94	1	161.282615689	161.30468929	"23"	5451.431969369	5449.277950281	1.5	0.1
0.01	1	0.0276951030000419	1	18	161.669355544	NA	1	0	1.94	1	161.533063139	161.560758242	"23"	5451.431969369	5449.277950281	1.5	0.1
0.01	1	0.041024682999705	1	44	NA	172.473096549	0	0.33	2.27	1	163.703328439	163.744353122	"24"	5451.431969369	5449.277950281	1.5	0.1
0.01	1	0.00358628000049066	1	44	NA	172.473096549	0	0.33	2.27	1	163.970455363999	163.974041644	"24"	5451.431969369	5449.277950281	1.5	0.1
0.01	1	0.00470688000041264	1	44	NA	172.473096549	0	0.33	2.27	1	164.204183839	164.208890719	"24"	5451.431969369	5449.277950281	1.5	0.1
0.01	1	0.00220293999973364	1	44	NA	172.473096549	0	0.33	2.27	1	164.437870306	164.440073246	"24"	5451.431969369	5449.277950281	1.5	0.1
0.01	1	0.119512496000425	1	44	NA	172.473096549	0	0.33	2.27	1	164.671662299	164.791174795	"24"	5451.431969369	5449.277950281	1.5	0.1
0.01	1	0.0047015520003697	1	44	NA	172.473096549	0	0.33	2.27	1	165.022230287	165.026931839	"24"	5451.431969369	5449.277950281	1.5	0.1
0.01	1	0.00476768699991226	1	44	NA	172.473096549	0	0.33	2.27	1	165.256069254	165.260836941	"24"	5451.431969369	5449.277950281	1.5	0.1
0.01	1	0.0039963990002434	1	44	NA	172.473096549	0	0.33	2.27	1	165.489771889	165.493768288	"24"	5451.431969369	5449.277950281	1.5	0.1
0.01	1	0.131800557999668	1	44	NA	172.473096549	0	0.33	2.27	1	165.723351974	165.855152532	"24"	5451.431969369	5449.277950281	1.5	0.1
0.01	1	0.00450641599945811	1	44	NA	172.473096549	0	0.33	2.27	1	166.09062599	166.095132406	"24"	5451.431969369	5449.277950281	1.5	0.1
0.01	1	0.00390745200002129	1	44	NA	172.473096549	0	0.33	2.27	1	166.324441074	166.328348526	"24"	5451.431969369	5449.277950281	1.5	0.1
0.01	1	0.00475388699942414	1	44	NA	172.473096549	0	0.33	2.27	1	166.558222044	166.562975931	"24"	5451.431969369	5449.277950281	1.5	0.1
0.01	1	0.0048170800000662	1	44	NA	172.473096549	0	0.33	2.27	1	166.791905319	166.796722399	"24"	5451.431969369	5449.277950281	1.5	0.1
0.01	1	0.00210849099948973	1	44	NA	172.473096549	0	0.33	2.27	1	167.02567307	167.027781561	"24"	5451.431969369	5449.277950281	1.5	0.1
0.01	1	0.00259957300022506	1	44	NA	172.473096549	0	0.33	2.27	1	167.259264566	167.261864139	"24"	5451.431969369	5449.277950281	1.5	0.1
0.01	1	0.00422965899997507	1	44	NA	172.473096549	0	0.33	2.27	1	167.493060261	167.49728992	"24"	5451.431969369	5449.277950281	1.5	0.1
0.01	1	0.128128239999569	1	44	NA	172.473096549	0	0.33	2.27	1	167.726777639	167.854905878999	"24"	5451.431969369	5449.277950281	1.5	0.1
0.01	1	0.00411851799981378	1	44	NA	172.473096549	0	0.33	2.27	1	168.077312636	168.081431154	"24"	5451.431969369	5449.277950281	1.5	0.1
0.01	1	0.1446459710005	1	44	NA	172.473096549	0	0.33	2.27	1	168.311184384	168.455830355	"24"	5451.431969369	5449.277950281	1.5	0.1
0.01	1	0.0567651820001629	1	44	NA	172.473096549	0	0.33	2.27	1	168.678417209	168.735182391	"24"	5451.431969369	5449.277950281	1.5	0.1
0.01	1	0.00249017199985246	1	44	NA	172.473096549	0	0.33	2.27	1	168.962162522	168.964652694	"24"	5451.431969369	5449.277950281	1.5	0.1
0.01	1	0.00249946599979012	1	44	NA	172.473096549	0	0.33	2.27	1	169.195895564	169.19839503	"24"	5451.431969369	5449.277950281	1.5	0.1
0.01	1	0.00221636400056013	1	44	NA	172.473096549	0	0.33	2.27	1	169.429750888999	169.431967253	"24"	5451.431969369	5449.277950281	1.5	0.1
0.01	1	0.00479613700008485	1	44	NA	172.473096549	0	0.33	2.27	1	169.663394489	169.668190626	"24"	5451.431969369	5449.277950281	1.5	0.1
0.01	1	0.00256483200064395	1	44	NA	172.473096549	0	0.33	2.27	1	169.897109351999	169.899674184	"24"	5451.431969369	5449.277950281	1.5	0.1
0.01	1	0.00746251900000061	1	44	NA	172.473096549	0	0.33	2.27	1	170.130875521	170.13833804	"24"	5451.431969369	5449.277950281	1.5	0.1
0.01	1	0.00322803200015187	1	44	NA	172.473096549	0	0.33	2.27	1	170.364515726	170.367743758	"24"	5451.431969369	5449.277950281	1.5	0.1
0.01	1	0.00259752100009791	1	44	NA	172.473096549	0	0.33	2.27	1	170.598257678	170.600855199	"24"	5451.431969369	5449.277950281	1.5	0.1
0.01	1	0.00278349200016237	1	44	NA	172.473096549	0	0.33	2.27	1	170.831916489999	170.834699982	"24"	5451.431969369	5449.277950281	1.5	0.1
0.01	1	0.00482333699983428	1	44	NA	172.473096549	0	0.33	2.27	1	171.065821344	171.070644681	"24"	5451.431969369	5449.277950281	1.5	0.1
0.01	1	0.00214907200006564	1	44	NA	172.473096549	0	0.33	2.27	1	171.299462787	171.301611859	"24"	5451.431969369	5449.277950281	1.5	0.1
0.01	1	0.00412651500028005	1	44	NA	172.473096549	0	0.33	2.27	1	171.533203499	171.537330014	"24"	5451.431969369	5449.277950281	1.5	0.1
0.01	1	0.00390753400006361	1	44	NA	172.473096549	0	0.33	2.27	1	171.766991084	171.770898618	"24"	5451.431969369	5449.277950281	1.5	0.1
0.01	1	0.470939541000007	2	44	NA	172.473096549	0	0.33	2.27	1	172.000664159	172.4716037	"24"	5451.431969369	5449.277950281	1.5	0.1
0.01	1	0.317744320999736	1	74	NA	186.248909555999	0	0.39	2.66	1	174.521463074	174.839207395	"25"	5451.431969369	5449.277950281	1.5	0.1
0.01	1	0.0223283209998044	1	74	NA	186.248909555999	0	0.39	2.66	1	175.072485949	175.09481427	"25"	5451.431969369	5449.277950281	1.5	0.1
0.01	1	0.0299797199995737	1	74	NA	186.248909555999	0	0.39	2.66	1	175.322919399	175.352899119	"25"	5451.431969369	5449.277950281	1.5	0.1
0.01	1	0.00408455099932326	1	74	NA	186.248909555999	0	0.39	2.66	1	175.589932689	175.59401724	"25"	5451.431969369	5449.277950281	1.5	0.1
0.01	1	0.0312962750003862	1	74	NA	186.248909555999	0	0.39	2.66	1	175.823748946	175.855045221	"25"	5451.431969369	5449.277950281	1.5	0.1
0.01	1	0.00352735900014522	1	74	NA	186.248909555999	0	0.39	2.66	1	176.090826831	176.09435419	"25"	5451.431969369	5449.277950281	1.5	0.1
0.01	1	0.00212099799955467	1	74	NA	186.248909555999	0	0.39	2.66	1	176.324544758	176.326665756	"25"	5451.431969369	5449.277950281	1.5	0.1
0.01	1	0.00210664199948951	1	74	NA	186.248909555999	0	0.39	2.66	1	176.558273888	176.56038053	"25"	5451.431969369	5449.277950281	1.5	0.1
0.01	1	0.0873370479994264	1	74	NA	186.248909555999	0	0.39	2.66	1	176.792060394	176.879397442	"25"	5451.431969369	5449.277950281	1.5	0.1
0.01	1	0.00482234199989762	1	74	NA	186.248909555999	0	0.39	2.66	1	177.109285069	177.114107411	"25"	5451.431969369	5449.277950281	1.5	0.1
0.01	1	0.00401612499990733	1	74	NA	186.248909555999	0	0.39	2.66	1	177.342947149	177.346963274	"25"	5451.431969369	5449.277950281	1.5	0.1
0.01	1	0.078780666000057	1	74	NA	186.248909555999	0	0.39	2.66	1	177.576696564	177.65547723	"25"	5451.431969369	5449.277950281	1.5	0.1
0.01	1	0.122317430999829	1	74	NA	186.248909555999	0	0.39	2.66	1	177.893968363	178.016285793999	"25"	5451.431969369	5449.277950281	1.5	0.1
0.01	1	0.00408116400012659	1	74	NA	186.248909555999	0	0.39	2.66	1	178.244409684	178.248490848	"25"	5451.431969369	5449.277950281	1.5	0.1
0.01	1	0.0023866370001997	1	74	NA	186.248909555999	0	0.39	2.66	1	178.478233348	178.480619985	"25"	5451.431969369	5449.277950281	1.5	0.1
0.01	1	0.00398762000077113	1	74	NA	186.248909555999	0	0.39	2.66	1	178.711923544	178.715911164	"25"	5451.431969369	5449.277950281	1.5	0.1
0.01	1	0.109734497999852	1	74	NA	186.248909555999	0	0.39	2.66	1	178.945569099	179.055303597	"25"	5451.431969369	5449.277950281	1.5	0.1
0.01	1	0.00258911400032957	1	74	NA	186.248909555999	0	0.39	2.66	1	179.279553976	179.28214309	"25"	5451.431969369	5449.277950281	1.5	0.1
0.01	1	0.00482328199996118	1	74	NA	186.248909555999	0	0.39	2.66	1	179.513344559	179.518167841	"25"	5451.431969369	5449.277950281	1.5	0.1
0.01	1	0.133536357999219	1	74	NA	186.248909555999	0	0.39	2.66	1	179.747046704	179.880583061999	"25"	5451.431969369	5449.277950281	1.5	0.1
0.01	1	0.0022580859995287	1	74	NA	186.248909555999	0	0.39	2.66	1	180.114254113	180.116512199	"25"	5451.431969369	5449.277950281	1.5	0.1
0.01	1	0.00407605300006253	1	74	NA	186.248909555999	0	0.39	2.66	1	180.348041641	180.352117694	"25"	5451.431969369	5449.277950281	1.5	0.1
0.01	1	0.178368115000012	1	74	NA	186.248909555999	0	0.39	2.66	1	180.581761811	180.760129926	"25"	5451.431969369	5449.277950281	1.5	0.1
0.01	1	0.0041066600006161	1	74	NA	186.248909555999	0	0.39	2.66	1	180.999052233999	181.003158894	"25"	5451.431969369	5449.277950281	1.5	0.1
0.01	1	0.00214513900027669	1	74	NA	186.248909555999	0	0.39	2.66	1	181.232808938	181.234954077	"25"	5451.431969369	5449.277950281	1.5	0.1
0.01	1	0.00407159799942747	1	74	NA	186.248909555999	0	0.39	2.66	1	181.466505014	181.470576612	"25"	5451.431969369	5449.277950281	1.5	0.1
0.01	1	0.00408661199980997	1	74	NA	186.248909555999	0	0.39	2.66	1	181.700280796	181.704367408	"25"	5451.431969369	5449.277950281	1.5	0.1
0.01	1	0.0040085149994411	1	74	NA	186.248909555999	0	0.39	2.66	1	181.934023611	181.938032126	"25"	5451.431969369	5449.277950281	1.5	0.1
0.01	1	0.127575304999482	1	74	NA	186.248909555999	0	0.39	2.66	1	182.167699284	182.295274589	"25"	5451.431969369	5449.277950281	1.5	0.1
0.01	1	0.00217813899962493	1	74	NA	186.248909555999	0	0.39	2.66	1	182.518354074	182.520532213	"25"	5451.431969369	5449.277950281	1.5	0.1
0.01	1	0.00462345799951436	1	74	NA	186.248909555999	0	0.39	2.66	1	182.752122983	182.756746440999	"25"	5451.431969369	5449.277950281	1.5	0.1
0.01	1	0.00400465999973676	1	74	NA	186.248909555999	0	0.39	2.66	1	182.985869174	182.989873834	"25"	5451.431969369	5449.277950281	1.5	0.1
0.01	1	0.00382495900066715	1	74	NA	186.248909555999	0	0.39	2.66	1	183.219473601	183.22329856	"25"	5451.431969369	5449.277950281	1.5	0.1
0.01	1	0.122054260999903	1	74	NA	186.248909555999	0	0.39	2.66	1	183.453241566	183.575295827	"25"	5451.431969369	5449.277950281	1.5	0.1
0.01	1	0.0831021809999584	1	74	NA	186.248909555999	0	0.39	2.66	1	183.803787511	183.886889692	"25"	5451.431969369	5449.277950281	1.5	0.1
0.01	1	0.00487995000003139	1	74	NA	186.248909555999	0	0.39	2.66	1	184.121128844	184.126008794	"25"	5451.431969369	5449.277950281	1.5	0.1
0.01	1	0.141287164999994	1	74	NA	186.248909555999	0	0.39	2.66	1	184.354630944	184.495918109	"25"	5451.431969369	5449.277950281	1.5	0.1
0.01	1	0.364713888000551	1	74	NA	186.248909555999	0	0.39	2.66	1	184.722196524	185.086910412	"25"	5451.431969369	5449.277950281	1.5	0.1
0.01	1	0.33347497900013	1	74	NA	186.248909555999	0	0.39	2.66	1	185.323059521	185.6565345	"25"	5451.431969369	5449.277950281	1.5	0.1
0.01	1	0.356584741000006	2	74	NA	186.248909555999	0	0.39	2.66	1	185.890699299	186.24728404	"25"	5451.431969369	5449.277950281	1.5	0.1
0.01	1	0.36138309099988	1	63	NA	204.777257262	0	0.59	3.25	1	188.294660371	188.656043462	"26"	5451.431969369	5449.277950281	1.5	0.1
0.01	1	0.0161628949999795	1	63	NA	204.777257262	0	0.59	3.25	1	188.895682201	188.911845096	"26"	5451.431969369	5449.277950281	1.5	0.1
0.01	1	0.0304829300002893	1	63	NA	204.777257262	0	0.59	3.25	1	189.146110041	189.176592971	"26"	5451.431969369	5449.277950281	1.5	0.1
0.01	1	0.00233307599955879	1	63	NA	204.777257262	0	0.59	3.25	1	189.41322931	189.415562386	"26"	5451.431969369	5449.277950281	1.5	0.1
0.01	1	0.243123589999414	1	63	NA	204.777257262	0	0.59	3.25	1	189.647025774	189.890149364	"26"	5451.431969369	5449.277950281	1.5	0.1
0.01	1	0.00344814999971277	1	63	NA	204.777257262	0	0.59	3.25	1	190.114353838	190.117801988	"26"	5451.431969369	5449.277950281	1.5	0.1
0.01	1	0.00401786000020365	1	63	NA	204.777257262	0	0.59	3.25	1	190.348166366	190.352184226	"26"	5451.431969369	5449.277950281	1.5	0.1
0.01	1	0.00475497000024916	1	63	NA	204.777257262	0	0.59	3.25	1	190.581873699	190.586628669	"26"	5451.431969369	5449.277950281	1.5	0.1
0.01	1	0.00485355700038781	1	63	NA	204.777257262	0	0.59	3.25	1	190.815775499	190.820629056	"26"	5451.431969369	5449.277950281	1.5	0.1
0.01	1	0.0857262439994884	1	63	NA	204.777257262	0	0.59	3.25	1	191.049355109	191.135081353	"26"	5451.431969369	5449.277950281	1.5	0.1
0.01	1	0.00235044199962431	1	63	NA	204.777257262	0	0.59	3.25	1	191.366527876	191.368878318	"26"	5451.431969369	5449.277950281	1.5	0.1
0.01	1	0.103955221999968	1	63	NA	204.777257262	0	0.59	3.25	1	191.600269041	191.704224263	"26"	5451.431969369	5449.277950281	1.5	0.1
0.01	1	0.00400222900043445	1	63	NA	204.777257262	0	0.59	3.25	1	191.934212789	191.938215018	"26"	5451.431969369	5449.277950281	1.5	0.1
0.01	1	0.104866751999907	1	63	NA	204.777257262	0	0.59	3.25	1	192.167938329	192.272805081	"26"	5451.431969369	5449.277950281	1.5	0.1
0.01	1	0.00214412300010736	1	63	NA	204.777257262	0	0.59	3.25	1	192.501780818	192.503924941	"26"	5451.431969369	5449.277950281	1.5	0.1
0.01	1	0.112853880999864	1	63	NA	204.777257262	0	0.59	3.25	1	192.735482409	192.84833629	"26"	5451.431969369	5449.277950281	1.5	0.1
0.01	1	0.00223361799999111	1	63	NA	204.777257262	0	0.59	3.25	1	193.086157222	193.08839084	"26"	5451.431969369	5449.277950281	1.5	0.1
0.01	1	0.119320921000508	1	63	NA	204.777257262	0	0.59	3.25	1	193.319782355999	193.439103277	"26"	5451.431969369	5449.277950281	1.5	0.1
0.01	1	0.00470740499986277	1	63	NA	204.777257262	0	0.59	3.25	1	193.670467019	193.675174424	"26"	5451.431969369	5449.277950281	1.5	0.1
0.01	1	0.00418387499939854	1	63	NA	204.777257262	0	0.59	3.25	1	193.904193909	193.908377784	"26"	5451.431969369	5449.277950281	1.5	0.1
0.01	1	0.0791198830002031	1	63	NA	204.777257262	0	0.59	3.25	1	194.137841829	194.216961712	"26"	5451.431969369	5449.277950281	1.5	0.1
0.01	1	0.00456401700012066	1	63	NA	204.777257262	0	0.59	3.25	1	194.455075327	194.459639344	"26"	5451.431969369	5449.277950281	1.5	0.1
0.01	1	0.00255508600002941	1	63	NA	204.777257262	0	0.59	3.25	1	194.688767958	194.691323044	"26"	5451.431969369	5449.277950281	1.5	0.1
0.01	1	0.00409048600067763	1	63	NA	204.777257262	0	0.59	3.25	1	194.922520313999	194.9266108	"26"	5451.431969369	5449.277950281	1.5	0.1
0.01	1	0.092202468999858	1	63	NA	204.777257262	0	0.59	3.25	1	195.156209724	195.248412193	"26"	5451.431969369	5449.277950281	1.5	0.1
0.01	1	0.00381798000034905	1	63	NA	204.777257262	0	0.59	3.25	1	195.473429684	195.477247664	"26"	5451.431969369	5449.277950281	1.5	0.1
0.01	1	0.00260640000033163	1	63	NA	204.777257262	0	0.59	3.25	1	195.707192088	195.709798488	"26"	5451.431969369	5449.277950281	1.5	0.1
0.01	1	0.00478440000006231	1	63	NA	204.777257262	0	0.59	3.25	1	195.941053464	195.945837864	"26"	5451.431969369	5449.277950281	1.5	0.1
0.01	1	0.12850091799919	1	63	NA	204.777257262	0	0.59	3.25	1	196.174603954	196.303104871999	"26"	5451.431969369	5449.277950281	1.5	0.1
0.01	1	0.00481361000038305	1	63	NA	204.777257262	0	0.59	3.25	1	196.525285164	196.530098774	"26"	5451.431969369	5449.277950281	1.5	0.1
0.01	1	0.00408826100010629	1	63	NA	204.777257262	0	0.59	3.25	1	196.758885469	196.76297373	"26"	5451.431969369	5449.277950281	1.5	0.1
0.01	1	0.00405160199989041	1	63	NA	204.777257262	0	0.59	3.25	1	196.992715816	196.996767418	"26"	5451.431969369	5449.277950281	1.5	0.1
0.01	1	0.109878903999743	1	63	NA	204.777257262	0	0.59	3.25	1	197.226430979	197.336309883	"26"	5451.431969369	5449.277950281	1.5	0.1
0.01	1	0.00478492700040078	1	63	NA	204.777257262	0	0.59	3.25	1	197.560427074	197.565212001	"26"	5451.431969369	5449.277950281	1.5	0.1
0.01	1	0.0863048720002553	1	63	NA	204.777257262	0	0.59	3.25	1	197.794049089	197.880353961	"26"	5451.431969369	5449.277950281	1.5	0.1
0.01	1	0.00228174399944692	1	63	NA	204.777257262	0	0.59	3.25	1	198.11123474	198.113516484	"26"	5451.431969369	5449.277950281	1.5	0.1
0.01	1	0.119828208999934	1	63	NA	204.777257262	0	0.59	3.25	1	198.344888879	198.464717088	"26"	5451.431969369	5449.277950281	1.5	0.1
0.01	1	0.00392584400015039	1	63	NA	204.777257262	0	0.59	3.25	1	198.695583193999	198.699509038	"26"	5451.431969369	5449.277950281	1.5	0.1
0.01	1	0.0862672359999124	1	63	NA	204.777257262	0	0.59	3.25	1	198.929267504	199.01553474	"26"	5451.431969369	5449.277950281	1.5	0.1
0.01	1	0.0040101210006469	1	63	NA	204.777257262	0	0.59	3.25	1	199.246484539	199.25049466	"26"	5451.431969369	5449.277950281	1.5	0.1
0.01	1	0.11182543599989	1	63	NA	204.777257262	0	0.59	3.25	1	199.480211214	199.592036649999	"26"	5451.431969369	5449.277950281	1.5	0.1
0.01	1	0.00281701600033557	1	63	NA	204.777257262	0	0.59	3.25	1	199.814071542	199.816888558	"26"	5451.431969369	5449.277950281	1.5	0.1
0.01	1	0.00217144700036442	1	63	NA	204.777257262	0	0.59	3.25	1	200.047754814	200.049926261	"26"	5451.431969369	5449.277950281	1.5	0.1
0.01	1	0.00414724499933072	1	63	NA	204.777257262	0	0.59	3.25	1	200.281602189	200.285749434	"26"	5451.431969369	5449.277950281	1.5	0.1
0.01	1	0.00407385400012572	1	63	NA	204.777257262	0	0.59	3.25	1	200.515196626	200.51927048	"26"	5451.431969369	5449.277950281	1.5	0.1
0.01	1	0.114871224000126	1	63	NA	204.777257262	0	0.59	3.25	1	200.749003804	200.863875028	"26"	5451.431969369	5449.277950281	1.5	0.1
0.01	1	0.0020984539996789	1	63	NA	204.777257262	0	0.59	3.25	1	201.099640949	201.101739403	"26"	5451.431969369	5449.277950281	1.5	0.1
0.01	1	0.00211661899993487	1	63	NA	204.777257262	0	0.59	3.25	1	201.333279961	201.33539658	"26"	5451.431969369	5449.277950281	1.5	0.1
0.01	1	0.161417032999452	1	63	NA	204.777257262	0	0.59	3.25	1	201.567059039	201.728476071999	"26"	5451.431969369	5449.277950281	1.5	0.1
0.01	1	0.00219248200028233	1	63	NA	204.777257262	0	0.59	3.25	1	201.95116944	201.953361922	"26"	5451.431969369	5449.277950281	1.5	0.1
0.01	1	0.00236783800028206	1	63	NA	204.777257262	0	0.59	3.25	1	202.184778151	202.187145989	"26"	5451.431969369	5449.277950281	1.5	0.1
0.01	1	0.00387528299961559	1	63	NA	204.777257262	0	0.59	3.25	1	202.418471461	202.422346744	"26"	5451.431969369	5449.277950281	1.5	0.1
0.01	1	0.172060395000699	1	63	NA	204.777257262	0	0.59	3.25	1	202.652190626	202.824251021	"26"	5451.431969369	5449.277950281	1.5	0.1
0.01	1	0.00325535600040894	1	63	NA	204.777257262	0	0.59	3.25	1	203.0528921	203.056147456	"26"	5451.431969369	5449.277950281	1.5	0.1
0.01	1	0.00284555400048703	1	63	NA	204.777257262	0	0.59	3.25	1	203.286613574	203.289459128	"26"	5451.431969369	5449.277950281	1.5	0.1
0.01	1	0.00274128299952281	1	63	NA	204.777257262	0	0.59	3.25	1	203.520405094	203.523146377	"26"	5451.431969369	5449.277950281	1.5	0.1
0.01	1	0.118467406000491	1	63	NA	204.777257262	0	0.59	3.25	1	203.754049769	203.872517175	"26"	5451.431969369	5449.277950281	1.5	0.1
0.01	1	0.00289610700019693	1	63	NA	204.777257262	0	0.59	3.25	1	204.104595852	204.107491959	"26"	5451.431969369	5449.277950281	1.5	0.1
0.01	1	0.00480750699989585	1	63	NA	204.777257262	0	0.59	3.25	1	204.338356559	204.343164066	"26"	5451.431969369	5449.277950281	1.5	0.1
0.01	1	0.203561607000665	2	63	NA	204.777257262	0	0.59	3.25	1	204.572118949	204.775680556	"26"	5451.431969369	5449.277950281	1.5	0.1
0.01	1	0.318299456999739	1	123	NA	227.849351164	0	0.76	4.01	1	206.825863909	207.144163366	"27"	5451.431969369	5449.277950281	1.5	0.1
0.01	1	0.00393206300032034	1	123	NA	227.849351164	0	0.76	4.01	1	207.376767641	207.380699704	"27"	5451.431969369	5449.277950281	1.5	0.1
0.01	1	0.00228743499974371	1	123	NA	227.849351164	0	0.76	4.01	1	207.610612036	207.612899471	"27"	5451.431969369	5449.277950281	1.5	0.1
0.01	1	0.122817300000861	1	123	NA	227.849351164	0	0.76	4.01	1	207.844321525999	207.967138826	"27"	5451.431969369	5449.277950281	1.5	0.1
0.01	1	0.00479515499955596	1	123	NA	227.849351164	0	0.76	4.01	1	208.194832029	208.199627184	"27"	5451.431969369	5449.277950281	1.5	0.1
0.01	1	0.106554688999495	1	123	NA	227.849351164	0	0.76	4.01	1	208.428507149	208.535061838	"27"	5451.431969369	5449.277950281	1.5	0.1
0.01	1	0.00233035200017184	1	123	NA	227.849351164	0	0.76	4.01	1	208.762547584	208.764877936	"27"	5451.431969369	5449.277950281	1.5	0.1
0.01	1	0.00226963499972044	1	123	NA	227.849351164	0	0.76	4.01	1	208.996316903	208.998586537999	"27"	5451.431969369	5449.277950281	1.5	0.1
0.01	1	0.113538429999608	1	123	NA	227.849351164	0	0.76	4.01	1	209.229862264	209.343400694	"27"	5451.431969369	5449.277950281	1.5	0.1
0.01	1	0.00473955699999351	1	123	NA	227.849351164	0	0.76	4.01	1	209.580713894	209.585453451	"27"	5451.431969369	5449.277950281	1.5	0.1
0.01	1	0.096524366000267	1	123	NA	227.849351164	0	0.76	4.01	1	209.814214644	209.91073901	"27"	5451.431969369	5449.277950281	1.5	0.1
0.01	1	0.00236882900026103	1	123	NA	227.849351164	0	0.76	4.01	1	210.148169781	210.15053861	"27"	5451.431969369	5449.277950281	1.5	0.1
0.01	1	0.0901233739996314	1	123	NA	227.849351164	0	0.76	4.01	1	210.381930794	210.472054168	"27"	5451.431969369	5449.277950281	1.5	0.1
0.01	1	0.00215846900027827	1	123	NA	227.849351164	0	0.76	4.01	1	210.699125069	210.701283538	"27"	5451.431969369	5449.277950281	1.5	0.1
0.01	1	0.00466696100011177	1	123	NA	227.849351164	0	0.76	4.01	1	210.932830783	210.937497744	"27"	5451.431969369	5449.277950281	1.5	0.1
0.01	1	0.0977129610000702	1	123	NA	227.849351164	0	0.76	4.01	1	211.166592601	211.264305562	"27"	5451.431969369	5449.277950281	1.5	0.1
0.01	1	0.00318629400044301	1	123	NA	227.849351164	0	0.76	4.01	1	211.500338014	211.503524308	"27"	5451.431969369	5449.277950281	1.5	0.1
0.01	1	0.00417344299967226	1	123	NA	227.849351164	0	0.76	4.01	1	211.734117719	211.738291162	"27"	5451.431969369	5449.277950281	1.5	0.1
0.01	1	0.104642877000515	1	123	NA	227.849351164	0	0.76	4.01	1	211.967964119	212.072606996	"27"	5451.431969369	5449.277950281	1.5	0.1
0.01	1	0.00332113399963418	1	123	NA	227.849351164	0	0.76	4.01	1	212.301684492	212.305005626	"27"	5451.431969369	5449.277950281	1.5	0.1
0.01	1	0.160692908999408	1	123	NA	227.849351164	0	0.76	4.01	1	212.535509784	212.696202693	"27"	5451.431969369	5449.277950281	1.5	0.1
0.01	1	0.00402126500011946	1	123	NA	227.849351164	0	0.76	4.01	1	212.919523519	212.923544784	"27"	5451.431969369	5449.277950281	1.5	0.1
0.01	1	0.00403536300018459	1	123	NA	227.849351164	0	0.76	4.01	1	213.153175421	213.157210784	"27"	5451.431969369	5449.277950281	1.5	0.1
0.01	1	0.0759855189999143	1	123	NA	227.849351164	0	0.76	4.01	1	213.386964576	213.462950095	"27"	5451.431969369	5449.277950281	1.5	0.1
0.01	1	0.00221418799992534	1	123	NA	227.849351164	0	0.76	4.01	1	213.704059239	213.706273427	"27"	5451.431969369	5449.277950281	1.5	0.1
0.01	1	0.302439228999901	1	123	NA	227.849351164	0	0.76	4.01	1	213.937868919	214.240308148	"27"	5451.431969369	5449.277950281	1.5	0.1
0.01	1	0.00262865100012277	1	123	NA	227.849351164	0	0.76	4.01	1	214.47206407	214.474692721	"27"	5451.431969369	5449.277950281	1.5	0.1
0.01	1	0.00475060999997368	1	123	NA	227.849351164	0	0.76	4.01	1	214.705913319	214.710663929	"27"	5451.431969369	5449.277950281	1.5	0.1
0.01	1	0.00476202499976353	1	123	NA	227.849351164	0	0.76	4.01	1	214.939660279	214.944422304	"27"	5451.431969369	5449.277950281	1.5	0.1
0.01	1	0.00410076000025583	1	123	NA	227.849351164	0	0.76	4.01	1	215.173238165999	215.177338926	"27"	5451.431969369	5449.277950281	1.5	0.1
0.01	1	0.00472708699999203	1	123	NA	227.849351164	0	0.76	4.01	1	215.406999144	215.411726231	"27"	5451.431969369	5449.277950281	1.5	0.1
0.01	1	0.00219525899956352	1	123	NA	227.849351164	0	0.76	4.01	1	215.64068345	215.642878709	"27"	5451.431969369	5449.277950281	1.5	0.1
0.01	1	0.00230206000014732	1	123	NA	227.849351164	0	0.76	4.01	1	215.874499052	215.876801112	"27"	5451.431969369	5449.277950281	1.5	0.1
0.01	1	0.00454308500047773	1	123	NA	227.849351164	0	0.76	4.01	1	216.108141104	216.112684189	"27"	5451.431969369	5449.277950281	1.5	0.1
0.01	1	0.00383420199977991	1	123	NA	227.849351164	0	0.76	4.01	1	216.341878686	216.345712888	"27"	5451.431969369	5449.277950281	1.5	0.1
0.01	1	0.00472737700056314	1	123	NA	227.849351164	0	0.76	4.01	1	216.575606164	216.580333541	"27"	5451.431969369	5449.277950281	1.5	0.1
0.01	1	0.00393954599985591	1	123	NA	227.849351164	0	0.76	4.01	1	216.809416624	216.81335617	"27"	5451.431969369	5449.277950281	1.5	0.1
0.01	1	0.00396813699990162	1	123	NA	227.849351164	0	0.76	4.01	1	217.043125269	217.047093405999	"27"	5451.431969369	5449.277950281	1.5	0.1
0.01	1	0.00461625100069796	1	123	NA	227.849351164	0	0.76	4.01	1	217.276897152999	217.281513404	"27"	5451.431969369	5449.277950281	1.5	0.1
0.01	1	0.00405295500058855	1	123	NA	227.849351164	0	0.76	4.01	1	217.510537869	217.514590824	"27"	5451.431969369	5449.277950281	1.5	0.1
0.01	1	0.00485390999983792	1	123	NA	227.849351164	0	0.76	4.01	1	217.744214054	217.749067964	"27"	5451.431969369	5449.277950281	1.5	0.1
0.01	1	0.125282314000287	1	123	NA	227.849351164	0	0.76	4.01	1	217.977969566	218.10325188	"27"	5451.431969369	5449.277950281	1.5	0.1
0.01	1	0.00451610299933236	1	123	NA	227.849351164	0	0.76	4.01	1	218.328505696	218.333021799	"27"	5451.431969369	5449.277950281	1.5	0.1
0.01	1	0.00481126699924062	1	123	NA	227.849351164	0	0.76	4.01	1	218.562326119	218.567137386	"27"	5451.431969369	5449.277950281	1.5	0.1
0.01	1	0.00412756900004752	1	123	NA	227.849351164	0	0.76	4.01	1	218.796021831	218.8001494	"27"	5451.431969369	5449.277950281	1.5	0.1
0.01	1	0.121734187000584	1	123	NA	227.849351164	0	0.76	4.01	1	219.029763066	219.151497253	"27"	5451.431969369	5449.277950281	1.5	0.1
0.01	1	0.0121783620006681	1	123	NA	227.849351164	0	0.76	4.01	1	219.380326164	219.392504526	"27"	5451.431969369	5449.277950281	1.5	0.1
0.01	1	0.00381607100007386	1	123	NA	227.849351164	0	0.76	4.01	1	219.630764381	219.634580452	"27"	5451.431969369	5449.277950281	1.5	0.1
0.01	1	0.00320729000031861	1	123	NA	227.849351164	0	0.76	4.01	1	219.864468938	219.867676228	"27"	5451.431969369	5449.277950281	1.5	0.1
0.01	1	0.00246306300050492	1	123	NA	227.849351164	0	0.76	4.01	1	220.098242921	220.100705984	"27"	5451.431969369	5449.277950281	1.5	0.1
0.01	1	0.00402613999995083	1	123	NA	227.849351164	0	0.76	4.01	1	220.331947514	220.335973654	"27"	5451.431969369	5449.277950281	1.5	0.1
0.01	1	0.129705970999566	1	123	NA	227.849351164	0	0.76	4.01	1	220.565661959	220.69536793	"27"	5451.431969369	5449.277950281	1.5	0.1
0.01	1	0.00425365599949146	1	123	NA	227.849351164	0	0.76	4.01	1	220.932983546	220.937237202	"27"	5451.431969369	5449.277950281	1.5	0.1
0.01	1	0.00473521499952767	1	123	NA	227.849351164	0	0.76	4.01	1	221.166646859	221.171382074	"27"	5451.431969369	5449.277950281	1.5	0.1
0.01	1	0.00237269799981732	1	123	NA	227.849351164	0	0.76	4.01	1	221.400386591	221.402759289	"27"	5451.431969369	5449.277950281	1.5	0.1
0.01	1	0.00417652299984184	1	123	NA	227.849351164	0	0.76	4.01	1	221.634206689	221.638383212	"27"	5451.431969369	5449.277950281	1.5	0.1
0.01	1	0.00392732299951604	1	123	NA	227.849351164	0	0.76	4.01	1	221.867952159	221.871879482	"27"	5451.431969369	5449.277950281	1.5	0.1
0.01	1	0.154282919999787	1	123	NA	227.849351164	0	0.76	4.01	1	222.101600654	222.255883574	"27"	5451.431969369	5449.277950281	1.5	0.1
0.01	1	0.185042379000151	1	123	NA	227.849351164	0	0.76	4.01	1	222.485634879	222.670677258	"27"	5451.431969369	5449.277950281	1.5	0.1
0.01	1	0.002183779999541	1	123	NA	227.849351164	0	0.76	4.01	1	222.902932013	222.905115793	"27"	5451.431969369	5449.277950281	1.5	0.1
0.01	1	0.119272963000185	1	123	NA	227.849351164	0	0.76	4.01	1	223.136700464	223.255973427	"27"	5451.431969369	5449.277950281	1.5	0.1
0.01	1	0.0101580810005544	1	123	NA	227.849351164	0	0.76	4.01	1	223.487255008999	223.49741309	"27"	5451.431969369	5449.277950281	1.5	0.1
0.01	1	0.00286206600048899	1	123	NA	227.849351164	0	0.76	4.01	1	223.720988478	223.723850544	"27"	5451.431969369	5449.277950281	1.5	0.1
0.01	1	0.00223205899965251	1	123	NA	227.849351164	0	0.76	4.01	1	223.954753236	223.956985295	"27"	5451.431969369	5449.277950281	1.5	0.1
0.01	1	0.0120705299996189	1	123	NA	227.849351164	0	0.76	4.01	1	224.188500679	224.200571208999	"27"	5451.431969369	5449.277950281	1.5	0.1
0.01	1	0.00250628499998129	1	123	NA	227.849351164	0	0.76	4.01	1	224.438920118	224.441426403	"27"	5451.431969369	5449.277950281	1.5	0.1
0.01	1	0.00755563599977904	1	123	NA	227.849351164	0	0.76	4.01	1	224.672504624	224.68006026	"27"	5451.431969369	5449.277950281	1.5	0.1
0.01	1	0.0448579630001404	1	123	NA	227.849351164	0	0.76	4.01	1	224.906271786	224.951129749	"27"	5451.431969369	5449.277950281	1.5	0.1
0.01	1	0.041298349000499	1	123	NA	227.849351164	0	0.76	4.01	1	225.173449589	225.214747938	"27"	5451.431969369	5449.277950281	1.5	0.1
0.01	1	0.0314375369998743	1	123	NA	227.849351164	0	0.76	4.01	1	225.440711089	225.472148626	"27"	5451.431969369	5449.277950281	1.5	0.1
0.01	1	0.0117662270004075	1	123	NA	227.849351164	0	0.76	4.01	1	225.707716114	225.719482341	"27"	5451.431969369	5449.277950281	1.5	0.1
0.01	1	0.0180129750006017	1	123	NA	227.849351164	0	0.76	4.01	1	225.958119704	225.976132679	"27"	5451.431969369	5449.277950281	1.5	0.1
0.01	1	0.0231527149999238	1	123	NA	227.849351164	0	0.76	4.01	1	226.20853969	226.231692405	"27"	5451.431969369	5449.277950281	1.5	0.1
0.01	1	0.0214629479996802	1	123	NA	227.849351164	0	0.76	4.01	1	226.458933261	226.480396209	"27"	5451.431969369	5449.277950281	1.5	0.1
0.01	1	0.0508601550000094	1	123	NA	227.849351164	0	0.76	4.01	1	226.709351149	226.760211304	"27"	5451.431969369	5449.277950281	1.5	0.1
0.01	1	0.0025292520003859	1	123	NA	227.849351164	0	0.76	4.01	1	226.993224448	226.9957537	"27"	5451.431969369	5449.277950281	1.5	0.1
0.01	1	0.620859805000691	2	123	NA	227.849351164	0	0.76	4.01	1	227.226916266	227.847776071	"27"	5451.431969369	5449.277950281	1.5	0.1
0.01	1	0.469020784999884	1	121	NA	255.537525761	0	0.900000000000001	4.91	1	229.897986824	230.367007609	"28"	5451.431969369	5449.277950281	1.5	0.1
0.01	1	0.00304093800059491	1	121	NA	255.537525761	0	0.900000000000001	4.91	1	230.599172312	230.60221325	"28"	5451.431969369	5449.277950281	1.5	0.1
0.01	1	0.00233521299924178	1	121	NA	255.537525761	0	0.900000000000001	4.91	1	230.832978186	230.835313398999	"28"	5451.431969369	5449.277950281	1.5	0.1
0.01	1	0.00417229199956637	1	121	NA	255.537525761	0	0.900000000000001	4.91	1	231.066710096	231.070882388	"28"	5451.431969369	5449.277950281	1.5	0.1
0.01	1	0.0666180389998772	1	121	NA	255.537525761	0	0.900000000000001	4.91	1	231.300406531	231.36702457	"28"	5451.431969369	5449.277950281	1.5	0.1
0.01	1	0.00219752300017717	1	121	NA	255.537525761	0	0.900000000000001	4.91	1	231.600941318	231.603138841	"28"	5451.431969369	5449.277950281	1.5	0.1
0.01	1	0.00402288999976008	1	121	NA	255.537525761	0	0.900000000000001	4.91	1	231.834607126	231.838630016	"28"	5451.431969369	5449.277950281	1.5	0.1
0.01	1	0.116425449999952	1	121	NA	255.537525761	0	0.900000000000001	4.91	1	232.068372549	232.184797999	"28"	5451.431969369	5449.277950281	1.5	0.1
0.01	1	1.00556854199931	1	121	NA	255.537525761	0	0.900000000000001	4.91	1	232.418978679	233.424547221	"28"	5451.431969369	5449.277950281	1.5	0.1
0.01	1	0.0041279819997726	1	121	NA	255.537525761	0	0.900000000000001	4.91	1	233.654283234	233.658411216	"28"	5451.431969369	5449.277950281	1.5	0.1
0.01	1	0.00223384499986423	1	121	NA	255.537525761	0	0.900000000000001	4.91	1	233.888145689	233.890379534	"28"	5451.431969369	5449.277950281	1.5	0.1
0.01	1	0.0040091199998642	1	121	NA	255.537525761	0	0.900000000000001	4.91	1	234.121872994	234.125882114	"28"	5451.431969369	5449.277950281	1.5	0.1
0.01	1	0.00477299999965908	1	121	NA	255.537525761	0	0.900000000000001	4.91	1	234.355551439	234.360324439	"28"	5451.431969369	5449.277950281	1.5	0.1
0.01	1	0.00482005999947432	1	121	NA	255.537525761	0	0.900000000000001	4.91	1	234.589329499	234.594149559	"28"	5451.431969369	5449.277950281	1.5	0.1
0.01	1	0.217420783000307	1	121	NA	255.537525761	0	0.900000000000001	4.91	1	234.823016249	235.040437032	"28"	5451.431969369	5449.277950281	1.5	0.1
0.01	1	0.00277300199923047	1	121	NA	255.537525761	0	0.900000000000001	4.91	1	235.273754218	235.276527219999	"28"	5451.431969369	5449.277950281	1.5	0.1
0.01	1	0.00391404499987402	1	121	NA	255.537525761	0	0.900000000000001	4.91	1	235.507476651	235.511390696	"28"	5451.431969369	5449.277950281	1.5	0.1
0.01	1	0.0978146610004842	1	121	NA	255.537525761	0	0.900000000000001	4.91	1	235.741164949	235.83897961	"28"	5451.431969369	5449.277950281	1.5	0.1
0.01	1	0.00499992000004568	1	121	NA	255.537525761	0	0.900000000000001	4.91	1	236.075152634	236.080152554	"28"	5451.431969369	5449.277950281	1.5	0.1
0.01	1	0.00405575799959479	1	121	NA	255.537525761	0	0.900000000000001	4.91	1	236.308833426	236.312889184	"28"	5451.431969369	5449.277950281	1.5	0.1
0.01	1	0.136226812000132	1	121	NA	255.537525761	0	0.900000000000001	4.91	1	236.542609249	236.678836061	"28"	5451.431969369	5449.277950281	1.5	0.1
0.01	1	0.0115296350004428	1	121	NA	255.537525761	0	0.900000000000001	4.91	1	236.909846039	236.921375674	"28"	5451.431969369	5449.277950281	1.5	0.1
0.01	1	0.00257447700005287	1	121	NA	255.537525761	0	0.900000000000001	4.91	1	237.143462782	237.146037259	"28"	5451.431969369	5449.277950281	1.5	0.1
0.01	1	0.00407573899974523	1	121	NA	255.537525761	0	0.900000000000001	4.91	1	237.377372629	237.381448368	"28"	5451.431969369	5449.277950281	1.5	0.1
0.01	1	0.00389107699993474	1	121	NA	255.537525761	0	0.900000000000001	4.91	1	237.611061529	237.614952606	"28"	5451.431969369	5449.277950281	1.5	0.1
0.01	1	0.0837993339991954	1	121	NA	255.537525761	0	0.900000000000001	4.91	1	237.844647824	237.928447157999	"28"	5451.431969369	5449.277950281	1.5	0.1
0.01	1	0.00347605400020257	1	121	NA	255.537525761	0	0.900000000000001	4.91	1	238.16186461	238.165340664	"28"	5451.431969369	5449.277950281	1.5	0.1
0.01	1	0.00215614900025685	1	121	NA	255.537525761	0	0.900000000000001	4.91	1	238.395698799	238.397854948	"28"	5451.431969369	5449.277950281	1.5	0.1
0.01	1	0.00480514699938794	1	121	NA	255.537525761	0	0.900000000000001	4.91	1	238.629397179	238.634202325999	"28"	5451.431969369	5449.277950281	1.5	0.1
0.01	1	0.00470962100007455	1	121	NA	255.537525761	0	0.900000000000001	4.91	1	238.863132403	238.867842024	"28"	5451.431969369	5449.277950281	1.5	0.1
0.01	1	0.00405721100014489	1	121	NA	255.537525761	0	0.900000000000001	4.91	1	239.096832479	239.10088969	"28"	5451.431969369	5449.277950281	1.5	0.1
0.01	1	0.108014972999626	1	121	NA	255.537525761	0	0.900000000000001	4.91	1	239.330576206	239.438591179	"28"	5451.431969369	5449.277950281	1.5	0.1
0.01	1	0.0026030239996544	1	121	NA	255.537525761	0	0.900000000000001	4.91	1	239.664478762	239.667081785999	"28"	5451.431969369	5449.277950281	1.5	0.1
0.01	1	0.00247842499993567	1	121	NA	255.537525761	0	0.900000000000001	4.91	1	239.898253074	239.900731498999	"28"	5451.431969369	5449.277950281	1.5	0.1
0.01	1	0.00404405900007987	1	121	NA	255.537525761	0	0.900000000000001	4.91	1	240.131919029	240.135963088	"28"	5451.431969369	5449.277950281	1.5	0.1
0.01	1	0.0982865909991233	1	121	NA	255.537525761	0	0.900000000000001	4.91	1	240.365672949	240.463959539999	"28"	5451.431969369	5449.277950281	1.5	0.1
0.01	1	0.00242408899975999	1	121	NA	255.537525761	0	0.900000000000001	4.91	1	240.69954046	240.701964549	"28"	5451.431969369	5449.277950281	1.5	0.1
0.01	1	0.00390920999961963	1	121	NA	255.537525761	0	0.900000000000001	4.91	1	240.933248886	240.937158096	"28"	5451.431969369	5449.277950281	1.5	0.1
0.01	1	0.00478836700040119	1	121	NA	255.537525761	0	0.900000000000001	4.91	1	241.166941854	241.171730221	"28"	5451.431969369	5449.277950281	1.5	0.1
0.01	1	0.0959949149992099	1	121	NA	255.537525761	0	0.900000000000001	4.91	1	241.400741659	241.496736573999	"28"	5451.431969369	5449.277950281	1.5	0.1
0.01	1	0.00253774700013309	1	121	NA	255.537525761	0	0.900000000000001	4.91	1	241.73462826	241.737166007	"28"	5451.431969369	5449.277950281	1.5	0.1
0.01	1	0.00214841400065779	1	121	NA	255.537525761	0	0.900000000000001	4.91	1	241.968421944	241.970570358	"28"	5451.431969369	5449.277950281	1.5	0.1
0.01	1	0.00475527500020689	1	121	NA	255.537525761	0	0.900000000000001	4.91	1	242.202032914	242.206788189	"28"	5451.431969369	5449.277950281	1.5	0.1
0.01	1	0.108000223999625	1	121	NA	255.537525761	0	0.900000000000001	4.91	1	242.435803069	242.543803293	"28"	5451.431969369	5449.277950281	1.5	0.1
0.01	1	0.00209652299963636	1	121	NA	255.537525761	0	0.900000000000001	4.91	1	242.769670038	242.771766561	"28"	5451.431969369	5449.277950281	1.5	0.1
0.01	1	0.0040667579996807	1	121	NA	255.537525761	0	0.900000000000001	4.91	1	243.003439946	243.007506704	"28"	5451.431969369	5449.277950281	1.5	0.1
0.01	1	0.0739473519997773	1	121	NA	255.537525761	0	0.900000000000001	4.91	1	243.237133454	243.311080806	"28"	5451.431969369	5449.277950281	1.5	0.1
0.01	1	0.00232648999917728	1	121	NA	255.537525761	0	0.900000000000001	4.91	1	243.537543479	243.539869968999	"28"	5451.431969369	5449.277950281	1.5	0.1
0.01	1	0.00212319299953379	1	121	NA	255.537525761	0	0.900000000000001	4.91	1	243.771298834	243.773422026999	"28"	5451.431969369	5449.277950281	1.5	0.1
0.01	1	0.121655665000617	1	121	NA	255.537525761	0	0.900000000000001	4.91	1	244.005049754	244.126705419	"28"	5451.431969369	5449.277950281	1.5	0.1
0.01	1	0.0021352220001063	1	121	NA	255.537525761	0	0.900000000000001	4.91	1	244.355660183	244.357795405	"28"	5451.431969369	5449.277950281	1.5	0.1
0.01	1	0.00411515799987683	1	121	NA	255.537525761	0	0.900000000000001	4.91	1	244.589440386	244.593555544	"28"	5451.431969369	5449.277950281	1.5	0.1
0.01	1	0.128000168999279	1	121	NA	255.537525761	0	0.900000000000001	4.91	1	244.823208996	244.951209164999	"28"	5451.431969369	5449.277950281	1.5	0.1
0.01	1	0.0042173769998044	1	121	NA	255.537525761	0	0.900000000000001	4.91	1	245.173790139	245.178007516	"28"	5451.431969369	5449.277950281	1.5	0.1
0.01	1	0.00271066000004794	1	121	NA	255.537525761	0	0.900000000000001	4.91	1	245.407447512	245.410158172	"28"	5451.431969369	5449.277950281	1.5	0.1
0.01	1	0.00229849200059107	1	121	NA	255.537525761	0	0.900000000000001	4.91	1	245.641193322	245.643491814	"28"	5451.431969369	5449.277950281	1.5	0.1
0.01	1	0.00425067400010448	1	121	NA	255.537525761	0	0.900000000000001	4.91	1	245.87492657	245.879177244	"28"	5451.431969369	5449.277950281	1.5	0.1
0.01	1	0.10673674499958	1	121	NA	255.537525761	0	0.900000000000001	4.91	1	246.108683417	246.215420162	"28"	5451.431969369	5449.277950281	1.5	0.1
0.01	1	0.0023212539999804	1	121	NA	255.537525761	0	0.900000000000001	4.91	1	246.442504228999	246.444825482999	"28"	5451.431969369	5449.277950281	1.5	0.1
0.01	1	0.00485336699966865	1	121	NA	255.537525761	0	0.900000000000001	4.91	1	246.676270699	246.681124066	"28"	5451.431969369	5449.277950281	1.5	0.1
0.01	1	0.0971834389993091	1	121	NA	255.537525761	0	0.900000000000001	4.91	1	246.91004133	247.007224769	"28"	5451.431969369	5449.277950281	1.5	0.1
0.01	1	0.00478984000073979	1	121	NA	255.537525761	0	0.900000000000001	4.91	1	247.243897674	247.248687514	"28"	5451.431969369	5449.277950281	1.5	0.1
0.01	1	0.131164045999867	1	121	NA	255.537525761	0	0.900000000000001	4.91	1	247.477562814	247.608726859999	"28"	5451.431969369	5449.277950281	1.5	0.1
0.01	1	0.00214087399945129	1	121	NA	255.537525761	0	0.900000000000001	4.91	1	247.844928059	247.847068933	"28"	5451.431969369	5449.277950281	1.5	0.1
0.01	1	0.00217851799970958	1	121	NA	255.537525761	0	0.900000000000001	4.91	1	248.078620816	248.080799333999	"28"	5451.431969369	5449.277950281	1.5	0.1
0.01	1	0.159735740000542	1	121	NA	255.537525761	0	0.900000000000001	4.91	1	248.312346661	248.472082401	"28"	5451.431969369	5449.277950281	1.5	0.1
0.01	1	0.00249046799945063	1	121	NA	255.537525761	0	0.900000000000001	4.91	1	248.696315694	248.698806162	"28"	5451.431969369	5449.277950281	1.5	0.1
0.01	1	0.00471288499920774	1	121	NA	255.537525761	0	0.900000000000001	4.91	1	248.930198064	248.934910948999	"28"	5451.431969369	5449.277950281	1.5	0.1
0.01	1	0.00411938599972927	1	121	NA	255.537525761	0	0.900000000000001	4.91	1	249.163686326	249.167805712	"28"	5451.431969369	5449.277950281	1.5	0.1
0.01	1	0.115102017000027	1	121	NA	255.537525761	0	0.900000000000001	4.91	1	249.397507924	249.512609941	"28"	5451.431969369	5449.277950281	1.5	0.1
0.01	1	0.00404805699963617	1	121	NA	255.537525761	0	0.900000000000001	4.91	1	249.748074241	249.752122297999	"28"	5451.431969369	5449.277950281	1.5	0.1
0.01	1	0.130834141999912	1	121	NA	255.537525761	0	0.900000000000001	4.91	1	249.981740599	250.112574741	"28"	5451.431969369	5449.277950281	1.5	0.1
0.01	1	0.00225388600028964	1	121	NA	255.537525761	0	0.900000000000001	4.91	1	250.349037573	250.351291459	"28"	5451.431969369	5449.277950281	1.5	0.1
0.01	1	0.00215813100021478	1	121	NA	255.537525761	0	0.900000000000001	4.91	1	250.582928008	250.585086139	"28"	5451.431969369	5449.277950281	1.5	0.1
0.01	1	0.144066588999522	1	121	NA	255.537525761	0	0.900000000000001	4.91	1	250.816533821	250.96060041	"28"	5451.431969369	5449.277950281	1.5	0.1
0.01	1	0.00225237999984529	1	121	NA	255.537525761	0	0.900000000000001	4.91	1	251.183862832	251.186115212	"28"	5451.431969369	5449.277950281	1.5	0.1
0.01	1	0.00231656399955682	1	121	NA	255.537525761	0	0.900000000000001	4.91	1	251.417596465	251.419913029	"28"	5451.431969369	5449.277950281	1.5	0.1
0.01	1	0.00406126500001847	1	121	NA	255.537525761	0	0.900000000000001	4.91	1	251.651316859	251.655378124	"28"	5451.431969369	5449.277950281	1.5	0.1
0.01	1	0.123455556000408	1	121	NA	255.537525761	0	0.900000000000001	4.91	1	251.884952214	252.00840777	"28"	5451.431969369	5449.277950281	1.5	0.1
0.01	1	0.00251213499996084	1	121	NA	255.537525761	0	0.900000000000001	4.91	1	252.2356494	252.238161535	"28"	5451.431969369	5449.277950281	1.5	0.1
0.01	1	0.0023137999996834	1	121	NA	255.537525761	0	0.900000000000001	4.91	1	252.469322918	252.471636718	"28"	5451.431969369	5449.277950281	1.5	0.1
0.01	1	0.00416727700030606	1	121	NA	255.537525761	0	0.900000000000001	4.91	1	252.703041899	252.707209176	"28"	5451.431969369	5449.277950281	1.5	0.1
0.01	1	0.142010378000123	1	121	NA	255.537525761	0	0.900000000000001	4.91	1	252.936682681	253.078693059	"28"	5451.431969369	5449.277950281	1.5	0.1
0.01	1	0.00212166900018929	1	121	NA	255.537525761	0	0.900000000000001	4.91	1	253.303996744	253.306118413	"28"	5451.431969369	5449.277950281	1.5	0.1
0.01	1	0.125693441999829	1	121	NA	255.537525761	0	0.900000000000001	4.91	1	253.537775154	253.663468596	"28"	5451.431969369	5449.277950281	1.5	0.1
0.01	1	0.00739221799994993	1	121	NA	255.537525761	0	0.900000000000001	4.91	1	253.888410106	253.895802324	"28"	5451.431969369	5449.277950281	1.5	0.1
0.01	1	0.00354881400016893	1	121	NA	255.537525761	0	0.900000000000001	4.91	1	254.122073842	254.125622656	"28"	5451.431969369	5449.277950281	1.5	0.1
0.01	1	0.00411165900004562	1	121	NA	255.537525761	0	0.900000000000001	4.91	1	254.355892449	254.360004108	"28"	5451.431969369	5449.277950281	1.5	0.1
0.01	1	0.138684591000128	1	121	NA	255.537525761	0	0.900000000000001	4.91	1	254.58954565	254.728230241	"28"	5451.431969369	5449.277950281	1.5	0.1
0.01	1	0.00214779900034046	1	121	NA	255.537525761	0	0.900000000000001	4.91	1	254.956850482	254.958998281	"28"	5451.431969369	5449.277950281	1.5	0.1
0.01	1	0.345342847000211	2	121	NA	255.537525761	0	0.900000000000001	4.91	1	255.190605549	255.535948396	"28"	5451.431969369	5449.277950281	1.5	0.1
0.01	1	1.45361073799995	1	10	261.470719901	NA	1	0	4.91	1	257.561225689	259.014836427	"29"	5451.431969369	5449.277950281	1.5	0.1
0.01	1	0.0399202290000176	1	10	261.470719901	NA	1	0	4.91	1	259.247327551	259.28724778	"29"	5451.431969369	5449.277950281	1.5	0.1
0.01	1	0.00221375100045407	1	10	261.470719901	NA	1	0	4.91	1	259.514501573	259.516715324	"29"	5451.431969369	5449.277950281	1.5	0.1
0.01	1	0.1067623429999	1	10	261.470719901	NA	1	0	4.91	1	259.748247879	259.855010222	"29"	5451.431969369	5449.277950281	1.5	0.1
0.01	1	0.0023249260002558	1	10	261.470719901	NA	1	0	4.91	1	260.082191559	260.084516485	"29"	5451.431969369	5449.277950281	1.5	0.1
0.01	1	0.00404738099950919	1	10	261.470719901	NA	1	0	4.91	1	260.315822161	260.319869542	"29"	5451.431969369	5449.277950281	1.5	0.1
0.01	1	0.105166896999435	1	10	261.470719901	NA	1	0	4.91	1	260.549620744	260.654787641	"29"	5451.431969369	5449.277950281	1.5	0.1
0.01	1	0.00221337399943877	1	10	261.470719901	NA	1	0	4.91	1	260.883537128	260.885750502	"29"	5451.431969369	5449.277950281	1.5	0.1
0.01	1	0.00390603300002113	1	10	261.470719901	NA	1	0	4.91	1	261.117297771	261.121203804	"29"	5451.431969369	5449.277950281	1.5	0.1
0.01	1	0.00431843299975299	1	10	261.470719901	NA	1	0	4.91	1	261.350983579	261.355302012	"29"	5451.431969369	5449.277950281	1.5	0.1
0.01	1	0.454155059000186	1	71	281.604555291	NA	1	0	4.91	1	263.521328011	263.97548307	"30"	5451.431969369	5449.277950281	1.5	0.1
0.01	1	0.00213238800006366	1	71	281.604555291	NA	1	0	4.91	1	264.20581415	264.207946538	"30"	5451.431969369	5449.277950281	1.5	0.1
0.01	1	0.00408191699989402	1	71	281.604555291	NA	1	0	4.91	1	264.439545519	264.443627436	"30"	5451.431969369	5449.277950281	1.5	0.1
0.01	1	0.102994222000234	1	71	281.604555291	NA	1	0	4.91	1	264.673219224	264.776213446	"30"	5451.431969369	5449.277950281	1.5	0.1
0.01	1	0.00210963700010325	1	71	281.604555291	NA	1	0	4.91	1	265.007159408	265.009269045	"30"	5451.431969369	5449.277950281	1.5	0.1
0.01	1	0.0040564959999756	1	71	281.604555291	NA	1	0	4.91	1	265.240850124	265.24490662	"30"	5451.431969369	5449.277950281	1.5	0.1
0.01	1	0.108938549999948	1	71	281.604555291	NA	1	0	4.91	1	265.474555271	265.583493821	"30"	5451.431969369	5449.277950281	1.5	0.1
0.01	1	0.00337914800002181	1	71	281.604555291	NA	1	0	4.91	1	265.808403526	265.811782674	"30"	5451.431969369	5449.277950281	1.5	0.1
0.01	1	0.00353945799997746	1	71	281.604555291	NA	1	0	4.91	1	266.042094268	266.045633726	"30"	5451.431969369	5449.277950281	1.5	0.1
0.01	1	0.00235616200006916	1	71	281.604555291	NA	1	0	4.91	1	266.275936684	266.278292846	"30"	5451.431969369	5449.277950281	1.5	0.1
0.01	1	0.00388997400023072	1	71	281.604555291	NA	1	0	4.91	1	266.509606524	266.513496498	"30"	5451.431969369	5449.277950281	1.5	0.1
0.01	1	0.00484887499987963	1	71	281.604555291	NA	1	0	4.91	1	266.743379699	266.748228574	"30"	5451.431969369	5449.277950281	1.5	0.1
0.01	1	0.00401986699944246	1	71	281.604555291	NA	1	0	4.91	1	266.977130379	266.981150246	"30"	5451.431969369	5449.277950281	1.5	0.1
0.01	1	0.0771635580003931	1	71	281.604555291	NA	1	0	4.91	1	267.210830864	267.287994422	"30"	5451.431969369	5449.277950281	1.5	0.1
0.01	1	0.00281467200056795	1	71	281.604555291	NA	1	0	4.91	1	267.528053038	267.53086771	"30"	5451.431969369	5449.277950281	1.5	0.1
0.01	1	0.00211659799970221	1	71	281.604555291	NA	1	0	4.91	1	267.761685923	267.763802521	"30"	5451.431969369	5449.277950281	1.5	0.1
0.01	1	0.00422915699982696	1	71	281.604555291	NA	1	0	4.91	1	267.995488161	267.999717318	"30"	5451.431969369	5449.277950281	1.5	0.1
0.01	1	0.00389898499997798	1	71	281.604555291	NA	1	0	4.91	1	268.229149491	268.233048476	"30"	5451.431969369	5449.277950281	1.5	0.1
0.01	1	0.00480590000006487	1	71	281.604555291	NA	1	0	4.91	1	268.462902628999	268.467708529	"30"	5451.431969369	5449.277950281	1.5	0.1
0.01	1	0.111128309999913	1	71	281.604555291	NA	1	0	4.91	1	268.696657291	268.807785601	"30"	5451.431969369	5449.277950281	1.5	0.1
0.01	1	0.00324978799926612	1	71	281.604555291	NA	1	0	4.91	1	269.030517678	269.033767466	"30"	5451.431969369	5449.277950281	1.5	0.1
0.01	1	0.00272646200028248	1	71	281.604555291	NA	1	0	4.91	1	269.264266354	269.266992816	"30"	5451.431969369	5449.277950281	1.5	0.1
0.01	1	0.00221578699984093	1	71	281.604555291	NA	1	0	4.91	1	269.497997362	269.500213149	"30"	5451.431969369	5449.277950281	1.5	0.1
0.01	1	0.00393272700057423	1	71	281.604555291	NA	1	0	4.91	1	269.731756790999	269.735689518	"30"	5451.431969369	5449.277950281	1.5	0.1
0.01	1	0.0900082150001253	1	71	281.604555291	NA	1	0	4.91	1	269.965447249	270.055455464	"30"	5451.431969369	5449.277950281	1.5	0.1
0.01	1	0.00237772499986022	1	71	281.604555291	NA	1	0	4.91	1	270.282672448	270.285050173	"30"	5451.431969369	5449.277950281	1.5	0.1
0.01	1	0.0041409739997107	1	71	281.604555291	NA	1	0	4.91	1	270.516416786	270.52055776	"30"	5451.431969369	5449.277950281	1.5	0.1
0.01	1	0.00393427100061672	1	71	281.604555291	NA	1	0	4.91	1	270.750078521	270.754012792	"30"	5451.431969369	5449.277950281	1.5	0.1
0.01	1	0.0969653759993889	1	71	281.604555291	NA	1	0	4.91	1	270.983820706	271.080786082	"30"	5451.431969369	5449.277950281	1.5	0.1
0.01	1	0.00218781599960494	1	71	281.604555291	NA	1	0	4.91	1	271.317791364	271.31997918	"30"	5451.431969369	5449.277950281	1.5	0.1
0.01	1	0.00478562500029511	1	71	281.604555291	NA	1	0	4.91	1	271.551429159	271.556214784	"30"	5451.431969369	5449.277950281	1.5	0.1
0.01	1	0.00391630099966278	1	71	281.604555291	NA	1	0	4.91	1	271.785084281	271.789000582	"30"	5451.431969369	5449.277950281	1.5	0.1
0.01	1	0.11634125799992	1	71	281.604555291	NA	1	0	4.91	1	272.018871904	272.135213162	"30"	5451.431969369	5449.277950281	1.5	0.1
0.01	1	0.00374878699949477	1	71	281.604555291	NA	1	0	4.91	1	272.369432851	272.373181638	"30"	5451.431969369	5449.277950281	1.5	0.1
0.01	1	0.00475152099988918	1	71	281.604555291	NA	1	0	4.91	1	272.603202863	272.607954384	"30"	5451.431969369	5449.277950281	1.5	0.1
0.01	1	0.00389185699987138	1	71	281.604555291	NA	1	0	4.91	1	272.836947271	272.840839128	"30"	5451.431969369	5449.277950281	1.5	0.1
0.01	1	0.00398627499998838	1	71	281.604555291	NA	1	0	4.91	1	273.070684099	273.074670374	"30"	5451.431969369	5449.277950281	1.5	0.1
0.01	1	0.00413054300042859	1	71	281.604555291	NA	1	0	4.91	1	273.304497059	273.308627602	"30"	5451.431969369	5449.277950281	1.5	0.1
0.01	1	0.00474761500026943	1	71	281.604555291	NA	1	0	4.91	1	273.538231259	273.542978874	"30"	5451.431969369	5449.277950281	1.5	0.1
0.01	1	0.00414493100015534	1	71	281.604555291	NA	1	0	4.91	1	273.771755151	273.775900082	"30"	5451.431969369	5449.277950281	1.5	0.1
0.01	1	0.113139420000152	1	71	281.604555291	NA	1	0	4.91	1	274.005565929	274.118705349	"30"	5451.431969369	5449.277950281	1.5	0.1
0.01	1	0.00234051499955967	1	71	281.604555291	NA	1	0	4.91	1	274.356180601	274.358521116	"30"	5451.431969369	5449.277950281	1.5	0.1
0.01	1	0.00219604399990203	1	71	281.604555291	NA	1	0	4.91	1	274.589903976	274.59210002	"30"	5451.431969369	5449.277950281	1.5	0.1
0.01	1	0.00412460300049133	1	71	281.604555291	NA	1	0	4.91	1	274.823631779	274.827756382	"30"	5451.431969369	5449.277950281	1.5	0.1
0.01	1	0.00486326500049472	1	71	281.604555291	NA	1	0	4.91	1	275.057481418999	275.062344684	"30"	5451.431969369	5449.277950281	1.5	0.1
0.01	1	0.123766350000551	1	71	281.604555291	NA	1	0	4.91	1	275.291148189	275.414914539	"30"	5451.431969369	5449.277950281	1.5	0.1
0.01	1	0.00215044700053113	1	71	281.604555291	NA	1	0	4.91	1	275.641652093	275.64380254	"30"	5451.431969369	5449.277950281	1.5	0.1
0.01	1	0.0021525649999603	1	71	281.604555291	NA	1	0	4.91	1	275.87542054	275.877573105	"30"	5451.431969369	5449.277950281	1.5	0.1
0.01	1	0.00400384200020198	1	71	281.604555291	NA	1	0	4.91	1	276.109065744	276.113069586	"30"	5451.431969369	5449.277950281	1.5	0.1
0.01	1	0.00489049299994804	1	71	281.604555291	NA	1	0	4.91	1	276.342835351	276.347725844	"30"	5451.431969369	5449.277950281	1.5	0.1
0.01	1	0.136230250000153	1	71	281.604555291	NA	1	0	4.91	1	276.576501859	276.712732109	"30"	5451.431969369	5449.277950281	1.5	0.1
0.01	1	0.00487476499984041	1	71	281.604555291	NA	1	0	4.91	1	276.943785669	276.948660434	"30"	5451.431969369	5449.277950281	1.5	0.1
0.01	1	0.00249086599978909	1	71	281.604555291	NA	1	0	4.91	1	277.17761624	277.180107106	"30"	5451.431969369	5449.277950281	1.5	0.1
0.01	1	0.00229832299919508	1	71	281.604555291	NA	1	0	4.91	1	277.411253209	277.413551531999	"30"	5451.431969369	5449.277950281	1.5	0.1
0.01	1	0.00359775800006901	1	71	281.604555291	NA	1	0	4.91	1	277.645111314	277.648709072	"30"	5451.431969369	5449.277950281	1.5	0.1
0.01	1	0.0045355379998	1	71	281.604555291	NA	1	0	4.91	1	277.878754303	277.883289841	"30"	5451.431969369	5449.277950281	1.5	0.1
0.01	1	0.00467526000011276	1	71	281.604555291	NA	1	0	4.91	1	278.112486259	278.117161519	"30"	5451.431969369	5449.277950281	1.5	0.1
0.01	1	0.00417474799996853	1	71	281.604555291	NA	1	0	4.91	1	278.346127984	278.350302732	"30"	5451.431969369	5449.277950281	1.5	0.1
0.01	1	0.00398610600041138	1	71	281.604555291	NA	1	0	4.91	1	278.579877063999	278.58386317	"30"	5451.431969369	5449.277950281	1.5	0.1
0.01	1	0.105028595000476	1	71	281.604555291	NA	1	0	4.91	1	278.813682931	278.918711526	"30"	5451.431969369	5449.277950281	1.5	0.1
0.01	1	0.00221875799979898	1	71	281.604555291	NA	1	0	4.91	1	279.147528192	279.14974695	"30"	5451.431969369	5449.277950281	1.5	0.1
0.01	1	0.00215358700006618	1	71	281.604555291	NA	1	0	4.91	1	279.381324386	279.383477973	"30"	5451.431969369	5449.277950281	1.5	0.1
0.01	1	0.00401620699994965	1	71	281.604555291	NA	1	0	4.91	1	279.614981311	279.618997518	"30"	5451.431969369	5449.277950281	1.5	0.1
0.01	1	0.00402565399963351	1	71	281.604555291	NA	1	0	4.91	1	279.848783194	279.852808848	"30"	5451.431969369	5449.277950281	1.5	0.1
0.01	1	0.00413774099979491	1	71	281.604555291	NA	1	0	4.91	1	280.082431101	280.086568842	"30"	5451.431969369	5449.277950281	1.5	0.1
0.01	1	0.00419737500033079	1	71	281.604555291	NA	1	0	4.91	1	280.316236699	280.320434074	"30"	5451.431969369	5449.277950281	1.5	0.1
0.01	1	0.00397848000011436	1	71	281.604555291	NA	1	0	4.91	1	280.549950703999	280.553929184	"30"	5451.431969369	5449.277950281	1.5	0.1
0.01	1	0.00230673400074011	1	71	281.604555291	NA	1	0	4.91	1	280.783584284	280.785891018	"30"	5451.431969369	5449.277950281	1.5	0.1
0.01	1	0.00478285999997752	1	71	281.604555291	NA	1	0	4.91	1	281.017453804	281.022236664	"30"	5451.431969369	5449.277950281	1.5	0.1
0.01	1	0.00390828899980988	1	71	281.604555291	NA	1	0	4.91	1	281.251068431	281.25497672	"30"	5451.431969369	5449.277950281	1.5	0.1
0.01	1	0.0040259759998662	1	71	281.604555291	NA	1	0	4.91	1	281.484823686	281.488849662	"30"	5451.431969369	5449.277950281	1.5	0.1
