"payoff.level"	"balloon"	"rt"	"resp"	"explode.trial"	"explode.time"	"finish.time"	"exploded"	"trial.total"	"cumulative.total"	"finished"	"trial.start"	"trial.end"	"trial.num"	"secs"	"start.time"	"iti"	"isi"
0.01	1	4.00340885999998	2	64	NA	4.09329054099999	0	0	0	1	0.0214099770000189	4.024818837	"1"	505.056680182	492.654923763	1.5	0.1
0.01	1	4.45392860199996	1	102	NA	14.869344265	0	0.12	0.12	1	6.14841941700001	10.602348019	"2"	505.056680182	492.654923763	1.5	0.1
0.01	1	0.867459107999991	1	102	NA	14.869344265	0	0.12	0.12	1	10.839551449	11.707010557	"2"	505.056680182	492.654923763	1.5	0.1
0.01	1	0.557282820000012	1	102	NA	14.869344265	0	0.12	0.12	1	11.94141181	12.49869463	"2"	505.056680182	492.654923763	1.5	0.1
0.01	1	0.00465311199997132	1	102	NA	14.869344265	0	0.12	0.12	1	12.726053555	12.730706667	"2"	505.056680182	492.654923763	1.5	0.1
0.01	1	0.00432541800000763	1	102	NA	14.869344265	0	0.12	0.12	1	12.959942124	12.964267542	"2"	505.056680182	492.654923763	1.5	0.1
0.01	1	0.00347669199999245	1	102	NA	14.869344265	0	0.12	0.12	1	13.193547507	13.197024199	"2"	505.056680182	492.654923763	1.5	0.1
0.01	1	0.00359508299999334	1	102	NA	14.869344265	0	0.12	0.12	1	13.427203162	13.430798245	"2"	505.056680182	492.654923763	1.5	0.1
0.01	1	0.00392845699997224	1	102	NA	14.869344265	0	0.12	0.12	1	13.660988072	13.664916529	"2"	505.056680182	492.654923763	1.5	0.1
0.01	1	0.00379420699999855	1	102	NA	14.869344265	0	0.12	0.12	1	13.894684112	13.898478319	"2"	505.056680182	492.654923763	1.5	0.1
0.01	1	0.00342197100002295	1	102	NA	14.869344265	0	0.12	0.12	1	14.128552782	14.131974753	"2"	505.056680182	492.654923763	1.5	0.1
0.01	1	0.00358250599998655	1	102	NA	14.869344265	0	0.12	0.12	1	14.362124965	14.365707471	"2"	505.056680182	492.654923763	1.5	0.1
0.01	1	0.00335370200002671	1	102	NA	14.869344265	0	0.12	0.12	1	14.595839165	14.599192867	"2"	505.056680182	492.654923763	1.5	0.1
0.01	1	0.0380500219999931	2	102	NA	14.869344265	0	0.12	0.12	1	14.82960622	14.867656242	"2"	505.056680182	492.654923763	1.5	0.1
0.01	1	0.454352868000001	1	97	NA	21.692894634	0	0.18	0.3	1	16.916481692	17.37083456	"3"	505.056680182	492.654923763	1.5	0.1
0.01	1	0.00394849100001693	1	97	NA	21.692894634	0	0.18	0.3	1	17.60101074	17.604959231	"3"	505.056680182	492.654923763	1.5	0.1
0.01	1	0.00406573499998331	1	97	NA	21.692894634	0	0.18	0.3	1	17.83467817	17.838743905	"3"	505.056680182	492.654923763	1.5	0.1
0.01	1	0.0034029720000035	1	97	NA	21.692894634	0	0.18	0.3	1	18.068483085	18.071886057	"3"	505.056680182	492.654923763	1.5	0.1
0.01	1	0.00363778799999182	1	97	NA	21.692894634	0	0.18	0.3	1	18.302061725	18.305699513	"3"	505.056680182	492.654923763	1.5	0.1
0.01	1	0.003949050000017	1	97	NA	21.692894634	0	0.18	0.3	1	18.535897525	18.539846575	"3"	505.056680182	492.654923763	1.5	0.1
0.01	1	0.00393332200002305	1	97	NA	21.692894634	0	0.18	0.3	1	18.769516485	18.773449807	"3"	505.056680182	492.654923763	1.5	0.1
0.01	1	0.00455231500001219	1	97	NA	21.692894634	0	0.18	0.3	1	19.003304625	19.00785694	"3"	505.056680182	492.654923763	1.5	0.1
0.01	1	0.00347451200002524	1	97	NA	21.692894634	0	0.18	0.3	1	19.237028465	19.240502977	"3"	505.056680182	492.654923763	1.5	0.1
0.01	1	0.00357772700004944	1	97	NA	21.692894634	0	0.18	0.3	1	19.470673302	19.474251029	"3"	505.056680182	492.654923763	1.5	0.1
0.01	1	0.00466695199997957	1	97	NA	21.692894634	0	0.18	0.3	1	19.704498435	19.709165387	"3"	505.056680182	492.654923763	1.5	0.1
0.01	1	0.00478710500004809	1	97	NA	21.692894634	0	0.18	0.3	1	19.938383765	19.94317087	"3"	505.056680182	492.654923763	1.5	0.1
0.01	1	0.00464850000003025	1	97	NA	21.692894634	0	0.18	0.3	1	20.17203112	20.17667962	"3"	505.056680182	492.654923763	1.5	0.1
0.01	1	0.00462703699997746	1	97	NA	21.692894634	0	0.18	0.3	1	20.40571265	20.410339687	"3"	505.056680182	492.654923763	1.5	0.1
0.01	1	0.00352254799997809	1	97	NA	21.692894634	0	0.18	0.3	1	20.639324675	20.642847223	"3"	505.056680182	492.654923763	1.5	0.1
0.01	1	0.00471714200000406	1	97	NA	21.692894634	0	0.18	0.3	1	20.87305873	20.877775872	"3"	505.056680182	492.654923763	1.5	0.1
0.01	1	0.00337357200004362	1	97	NA	21.692894634	0	0.18	0.3	1	21.106742991	21.110116563	"3"	505.056680182	492.654923763	1.5	0.1
0.01	1	0.00339182600004051	1	97	NA	21.692894634	0	0.18	0.3	1	21.340492969	21.343884795	"3"	505.056680182	492.654923763	1.5	0.1
0.01	1	0.116883513000005	2	97	NA	21.692894634	0	0.18	0.3	1	21.57435477	21.691238283	"3"	505.056680182	492.654923763	1.5	0.1
0.01	1	0.739274170999977	1	51	NA	29.349086184	0	0.2	0.5	1	23.728080593	24.467354764	"4"	505.056680182	492.654923763	1.5	0.1
0.01	1	0.0038300809999896	1	51	NA	29.349086184	0	0.2	0.5	1	24.6962585	24.700088581	"4"	505.056680182	492.654923763	1.5	0.1
0.01	1	0.00398438500002385	1	51	NA	29.349086184	0	0.2	0.5	1	24.930023932	24.934008317	"4"	505.056680182	492.654923763	1.5	0.1
0.01	1	0.00337009200001148	1	51	NA	29.349086184	0	0.2	0.5	1	25.163650523	25.167020615	"4"	505.056680182	492.654923763	1.5	0.1
0.01	1	0.00345907499996656	1	51	NA	29.349086184	0	0.2	0.5	1	25.397316482	25.400775557	"4"	505.056680182	492.654923763	1.5	0.1
0.01	1	0.00401528800000506	1	51	NA	29.349086184	0	0.2	0.5	1	25.631202457	25.635217745	"4"	505.056680182	492.654923763	1.5	0.1
0.01	1	0.00467004199998655	1	51	NA	29.349086184	0	0.2	0.5	1	25.86487367	25.869543712	"4"	505.056680182	492.654923763	1.5	0.1
0.01	1	0.00381570600001169	1	51	NA	29.349086184	0	0.2	0.5	1	26.098497287	26.102312993	"4"	505.056680182	492.654923763	1.5	0.1
0.01	1	0.00406402900000558	1	51	NA	29.349086184	0	0.2	0.5	1	26.33231056	26.336374589	"4"	505.056680182	492.654923763	1.5	0.1
0.01	1	0.00343166600003997	1	51	NA	29.349086184	0	0.2	0.5	1	26.565966987	26.569398653	"4"	505.056680182	492.654923763	1.5	0.1
0.01	1	0.00380696300004502	1	51	NA	29.349086184	0	0.2	0.5	1	26.79982883	26.803635793	"4"	505.056680182	492.654923763	1.5	0.1
0.01	1	0.00398557099998698	1	51	NA	29.349086184	0	0.2	0.5	1	27.03347089	27.037456461	"4"	505.056680182	492.654923763	1.5	0.1
0.01	1	0.00395280499998307	1	51	NA	29.349086184	0	0.2	0.5	1	27.267189042	27.271141847	"4"	505.056680182	492.654923763	1.5	0.1
0.01	1	0.00398999300000469	1	51	NA	29.349086184	0	0.2	0.5	1	27.50088637	27.504876363	"4"	505.056680182	492.654923763	1.5	0.1
0.01	1	0.00370492999996941	1	51	NA	29.349086184	0	0.2	0.5	1	27.734704625	27.738409555	"4"	505.056680182	492.654923763	1.5	0.1
0.01	1	0.00395259900000156	1	51	NA	29.349086184	0	0.2	0.5	1	27.968428982	27.972381581	"4"	505.056680182	492.654923763	1.5	0.1
0.01	1	0.0040234780000219	1	51	NA	29.349086184	0	0.2	0.5	1	28.202203045	28.206226523	"4"	505.056680182	492.654923763	1.5	0.1
0.01	1	0.00396951999999828	1	51	NA	29.349086184	0	0.2	0.5	1	28.435847827	28.439817347	"4"	505.056680182	492.654923763	1.5	0.1
0.01	1	0.00358084600003394	1	51	NA	29.349086184	0	0.2	0.5	1	28.669555647	28.673136493	"4"	505.056680182	492.654923763	1.5	0.1
0.01	1	0.00388587600002666	1	51	NA	29.349086184	0	0.2	0.5	1	28.903252685	28.907138561	"4"	505.056680182	492.654923763	1.5	0.1
0.01	1	0.210429861999955	2	51	NA	29.349086184	0	0.2	0.5	1	29.136962551	29.347392413	"4"	505.056680182	492.654923763	1.5	0.1
0.01	1	0.396502545000033	1	116	NA	41.573438477	0	0.36	0.86	1	31.390811065	31.78731361	"5"	505.056680182	492.654923763	1.5	0.1
0.01	1	0.00450549800001454	1	116	NA	41.573438477	0	0.36	0.86	1	32.025248027	32.029753525	"5"	505.056680182	492.654923763	1.5	0.1
0.01	1	0.00390714200000275	1	116	NA	41.573438477	0	0.36	0.86	1	32.258902017	32.262809159	"5"	505.056680182	492.654923763	1.5	0.1
0.01	1	0.00406895499997972	1	116	NA	41.573438477	0	0.36	0.86	1	32.4926535	32.496722455	"5"	505.056680182	492.654923763	1.5	0.1
0.01	1	0.00378279000000248	1	116	NA	41.573438477	0	0.36	0.86	1	32.726341095	32.730123885	"5"	505.056680182	492.654923763	1.5	0.1
0.01	1	0.00383540799998627	1	116	NA	41.573438477	0	0.36	0.86	1	32.960091357	32.963926765	"5"	505.056680182	492.654923763	1.5	0.1
0.01	1	0.00396657900000719	1	116	NA	41.573438477	0	0.36	0.86	1	33.193855902	33.197822481	"5"	505.056680182	492.654923763	1.5	0.1
0.01	1	0.00399042099996905	1	116	NA	41.573438477	0	0.36	0.86	1	33.42749326	33.431483681	"5"	505.056680182	492.654923763	1.5	0.1
0.01	1	0.00436758699999018	1	116	NA	41.573438477	0	0.36	0.86	1	33.661240468	33.665608055	"5"	505.056680182	492.654923763	1.5	0.1
0.01	1	0.00376765199996498	1	116	NA	41.573438477	0	0.36	0.86	1	33.895013235	33.898780887	"5"	505.056680182	492.654923763	1.5	0.1
0.01	1	0.00394274699999642	1	116	NA	41.573438477	0	0.36	0.86	1	34.128713182	34.132655929	"5"	505.056680182	492.654923763	1.5	0.1
0.01	1	0.00469548199998826	1	116	NA	41.573438477	0	0.36	0.86	1	34.362553825	34.367249307	"5"	505.056680182	492.654923763	1.5	0.1
0.01	1	0.00373300600000448	1	116	NA	41.573438477	0	0.36	0.86	1	34.596150587	34.599883593	"5"	505.056680182	492.654923763	1.5	0.1
0.01	1	0.00341604999999845	1	116	NA	41.573438477	0	0.36	0.86	1	34.829964059	34.833380109	"5"	505.056680182	492.654923763	1.5	0.1
0.01	1	0.00378502799998159	1	116	NA	41.573438477	0	0.36	0.86	1	35.063659447	35.067444475	"5"	505.056680182	492.654923763	1.5	0.1
0.01	1	0.00365099100002908	1	116	NA	41.573438477	0	0.36	0.86	1	35.297432192	35.301083183	"5"	505.056680182	492.654923763	1.5	0.1
0.01	1	0.00382350300003509	1	116	NA	41.573438477	0	0.36	0.86	1	35.531109492	35.534932995	"5"	505.056680182	492.654923763	1.5	0.1
0.01	1	0.00229920799995398	1	116	NA	41.573438477	0	0.36	0.86	1	35.764888475	35.767187683	"5"	505.056680182	492.654923763	1.5	0.1
0.01	1	0.00468320999999605	1	116	NA	41.573438477	0	0.36	0.86	1	35.998496285	36.003179495	"5"	505.056680182	492.654923763	1.5	0.1
0.01	1	0.00384077699999352	1	116	NA	41.573438477	0	0.36	0.86	1	36.232264542	36.236105319	"5"	505.056680182	492.654923763	1.5	0.1
0.01	1	0.00387578300001223	1	116	NA	41.573438477	0	0.36	0.86	1	36.466081972	36.469957755	"5"	505.056680182	492.654923763	1.5	0.1
0.01	1	0.00457371999999623	1	116	NA	41.573438477	0	0.36	0.86	1	36.699664235	36.704237955	"5"	505.056680182	492.654923763	1.5	0.1
0.01	1	0.00468301699999074	1	116	NA	41.573438477	0	0.36	0.86	1	36.93338251	36.938065527	"5"	505.056680182	492.654923763	1.5	0.1
0.01	1	0.00367583500002411	1	116	NA	41.573438477	0	0.36	0.86	1	37.16716419	37.170840025	"5"	505.056680182	492.654923763	1.5	0.1
0.01	1	0.0044241890000194	1	116	NA	41.573438477	0	0.36	0.86	1	37.400903983	37.405328172	"5"	505.056680182	492.654923763	1.5	0.1
0.01	1	0.00339516799999728	1	116	NA	41.573438477	0	0.36	0.86	1	37.634665807	37.638060975	"5"	505.056680182	492.654923763	1.5	0.1
0.01	1	0.00336515200001486	1	116	NA	41.573438477	0	0.36	0.86	1	37.868354273	37.871719425	"5"	505.056680182	492.654923763	1.5	0.1
0.01	1	0.00397858299999143	1	116	NA	41.573438477	0	0.36	0.86	1	38.10208666	38.106065243	"5"	505.056680182	492.654923763	1.5	0.1
0.01	1	0.00376251600005162	1	116	NA	41.573438477	0	0.36	0.86	1	38.335750795	38.339513311	"5"	505.056680182	492.654923763	1.5	0.1
0.01	1	0.00409441600004357	1	116	NA	41.573438477	0	0.36	0.86	1	38.569550695	38.573645111	"5"	505.056680182	492.654923763	1.5	0.1
0.01	1	0.00398897799999531	1	116	NA	41.573438477	0	0.36	0.86	1	38.803233825	38.807222803	"5"	505.056680182	492.654923763	1.5	0.1
0.01	1	0.00394319700001233	1	116	NA	41.573438477	0	0.36	0.86	1	39.03700983	39.040953027	"5"	505.056680182	492.654923763	1.5	0.1
0.01	1	0.00399047799999153	1	116	NA	41.573438477	0	0.36	0.86	1	39.270829877	39.274820355	"5"	505.056680182	492.654923763	1.5	0.1
0.01	1	0.00338754699998844	1	116	NA	41.573438477	0	0.36	0.86	1	39.50445161	39.507839157	"5"	505.056680182	492.654923763	1.5	0.1
0.01	1	0.0039593579999746	1	116	NA	41.573438477	0	0.36	0.86	1	39.738200435	39.742159793	"5"	505.056680182	492.654923763	1.5	0.1
0.01	1	0.695721929999991	1	116	NA	41.573438477	0	0.36	0.86	1	39.97195855	40.66768048	"5"	505.056680182	492.654923763	1.5	0.1
0.01	1	0.664956002999986	2	116	NA	41.573438477	0	0.36	0.86	1	40.90678936	41.571745363	"5"	505.056680182	492.654923763	1.5	0.1
0.01	1	0.66316314200003	1	118	NA	54.196961192	0	0.41	1.27	1	43.611343821	44.274506963	"6"	505.056680182	492.654923763	1.5	0.1
0.01	1	0.00380453999997599	1	118	NA	54.196961192	0	0.41	1.27	1	44.512893905	44.516698445	"6"	505.056680182	492.654923763	1.5	0.1
0.01	1	0.00391914899995527	1	118	NA	54.196961192	0	0.41	1.27	1	44.746577972	44.750497121	"6"	505.056680182	492.654923763	1.5	0.1
0.01	1	0.00445322499996337	1	118	NA	54.196961192	0	0.41	1.27	1	44.980304987	44.984758212	"6"	505.056680182	492.654923763	1.5	0.1
0.01	1	0.004630719999966	1	118	NA	54.196961192	0	0.41	1.27	1	45.213972285	45.218603005	"6"	505.056680182	492.654923763	1.5	0.1
0.01	1	0.00397627299997794	1	118	NA	54.196961192	0	0.41	1.27	1	45.447776492	45.451752765	"6"	505.056680182	492.654923763	1.5	0.1
0.01	1	0.00395359399999506	1	118	NA	54.196961192	0	0.41	1.27	1	45.681565725	45.685519319	"6"	505.056680182	492.654923763	1.5	0.1
0.01	1	0.00386812100003908	1	118	NA	54.196961192	0	0.41	1.27	1	45.915217722	45.919085843	"6"	505.056680182	492.654923763	1.5	0.1
0.01	1	0.00406166499999472	1	118	NA	54.196961192	0	0.41	1.27	1	46.148995362	46.153057027	"6"	505.056680182	492.654923763	1.5	0.1
0.01	1	0.00342929999999342	1	118	NA	54.196961192	0	0.41	1.27	1	46.382658075	46.386087375	"6"	505.056680182	492.654923763	1.5	0.1
0.01	1	0.00381015700003218	1	118	NA	54.196961192	0	0.41	1.27	1	46.616348412	46.620158569	"6"	505.056680182	492.654923763	1.5	0.1
0.01	1	0.00467849500000739	1	118	NA	54.196961192	0	0.41	1.27	1	46.85005881	46.854737305	"6"	505.056680182	492.654923763	1.5	0.1
0.01	1	0.00378161000003274	1	118	NA	54.196961192	0	0.41	1.27	1	47.083891147	47.087672757	"6"	505.056680182	492.654923763	1.5	0.1
0.01	1	0.00451235399998495	1	118	NA	54.196961192	0	0.41	1.27	1	47.317622588	47.322134942	"6"	505.056680182	492.654923763	1.5	0.1
0.01	1	0.00386269599999878	1	118	NA	54.196961192	0	0.41	1.27	1	47.551324895	47.555187591	"6"	505.056680182	492.654923763	1.5	0.1
0.01	1	0.00471614700001055	1	118	NA	54.196961192	0	0.41	1.27	1	47.785026985	47.789743132	"6"	505.056680182	492.654923763	1.5	0.1
0.01	1	0.00467066999999588	1	118	NA	54.196961192	0	0.41	1.27	1	48.018699755	48.023370425	"6"	505.056680182	492.654923763	1.5	0.1
0.01	1	0.00346593800003347	1	118	NA	54.196961192	0	0.41	1.27	1	48.252460855	48.255926793	"6"	505.056680182	492.654923763	1.5	0.1
0.01	1	0.00391008399998327	1	118	NA	54.196961192	0	0.41	1.27	1	48.486206015	48.490116099	"6"	505.056680182	492.654923763	1.5	0.1
0.01	1	0.00366460699996196	1	118	NA	54.196961192	0	0.41	1.27	1	48.71995555	48.723620157	"6"	505.056680182	492.654923763	1.5	0.1
0.01	1	0.00403312600002437	1	118	NA	54.196961192	0	0.41	1.27	1	48.953662427	48.957695553	"6"	505.056680182	492.654923763	1.5	0.1
0.01	1	0.00394171700003199	1	118	NA	54.196961192	0	0.41	1.27	1	49.18735904	49.191300757	"6"	505.056680182	492.654923763	1.5	0.1
0.01	1	0.00388412300003438	1	118	NA	54.196961192	0	0.41	1.27	1	49.42119674	49.425080863	"6"	505.056680182	492.654923763	1.5	0.1
0.01	1	0.00392261700000063	1	118	NA	54.196961192	0	0.41	1.27	1	49.65488576	49.658808377	"6"	505.056680182	492.654923763	1.5	0.1
0.01	1	0.00385581300002968	1	118	NA	54.196961192	0	0.41	1.27	1	49.888509592	49.892365405	"6"	505.056680182	492.654923763	1.5	0.1
0.01	1	0.00468857999999273	1	118	NA	54.196961192	0	0.41	1.27	1	50.122393145	50.127081725	"6"	505.056680182	492.654923763	1.5	0.1
0.01	1	0.00406683900001781	1	118	NA	54.196961192	0	0.41	1.27	1	50.356034462	50.360101301	"6"	505.056680182	492.654923763	1.5	0.1
0.01	1	0.00400414500001034	1	118	NA	54.196961192	0	0.41	1.27	1	50.5897909	50.593795045	"6"	505.056680182	492.654923763	1.5	0.1
0.01	1	0.00471236499998895	1	118	NA	54.196961192	0	0.41	1.27	1	50.82341981	50.828132175	"6"	505.056680182	492.654923763	1.5	0.1
0.01	1	0.00403154800000038	1	118	NA	54.196961192	0	0.41	1.27	1	51.057113505	51.061145053	"6"	505.056680182	492.654923763	1.5	0.1
0.01	1	0.00399890699998195	1	118	NA	54.196961192	0	0.41	1.27	1	51.29094187	51.294940777	"6"	505.056680182	492.654923763	1.5	0.1
0.01	1	0.00394939099999192	1	118	NA	54.196961192	0	0.41	1.27	1	51.52470093	51.528650321	"6"	505.056680182	492.654923763	1.5	0.1
0.01	1	0.00341420700004846	1	118	NA	54.196961192	0	0.41	1.27	1	51.758302972	51.761717179	"6"	505.056680182	492.654923763	1.5	0.1
0.01	1	0.00378587800003061	1	118	NA	54.196961192	0	0.41	1.27	1	51.992051975	51.995837853	"6"	505.056680182	492.654923763	1.5	0.1
0.01	1	0.00480961499999921	1	118	NA	54.196961192	0	0.41	1.27	1	52.22579431	52.230603925	"6"	505.056680182	492.654923763	1.5	0.1
0.01	1	0.00396784400004435	1	118	NA	54.196961192	0	0.41	1.27	1	52.459523485	52.463491329	"6"	505.056680182	492.654923763	1.5	0.1
0.01	1	0.0046788269999638	1	118	NA	54.196961192	0	0.41	1.27	1	52.693425085	52.698103912	"6"	505.056680182	492.654923763	1.5	0.1
0.01	1	0.00336440399996718	1	118	NA	54.196961192	0	0.41	1.27	1	52.926897155	52.930261559	"6"	505.056680182	492.654923763	1.5	0.1
0.01	1	0.00375413699998717	1	118	NA	54.196961192	0	0.41	1.27	1	53.160806912	53.164561049	"6"	505.056680182	492.654923763	1.5	0.1
0.01	1	0.00402889800000139	1	118	NA	54.196961192	0	0.41	1.27	1	53.394449627	53.398478525	"6"	505.056680182	492.654923763	1.5	0.1
0.01	1	0.00391782799999874	1	118	NA	54.196961192	0	0.41	1.27	1	53.628092347	53.632010175	"6"	505.056680182	492.654923763	1.5	0.1
0.01	1	0.333293534999996	2	118	NA	54.196961192	0	0.41	1.27	1	53.861939375	54.19523291	"6"	505.056680182	492.654923763	1.5	0.1
0.01	1	0.633885169999985	1	87	NA	62.501568857	0	0.24	1.51	1	56.249154569	56.883039739	"7"	505.056680182	492.654923763	1.5	0.1
0.01	1	0.00383814999997867	1	87	NA	62.501568857	0	0.24	1.51	1	57.117333287	57.121171437	"7"	505.056680182	492.654923763	1.5	0.1
0.01	1	0.00393454900000734	1	87	NA	62.501568857	0	0.24	1.51	1	57.35111583	57.355050379	"7"	505.056680182	492.654923763	1.5	0.1
0.01	1	0.00393266199995423	1	87	NA	62.501568857	0	0.24	1.51	1	57.584843835	57.588776497	"7"	505.056680182	492.654923763	1.5	0.1
0.01	1	0.00387697899998329	1	87	NA	62.501568857	0	0.24	1.51	1	57.81859152	57.822468499	"7"	505.056680182	492.654923763	1.5	0.1
0.01	1	0.00386277100000143	1	87	NA	62.501568857	0	0.24	1.51	1	58.052247012	58.056109783	"7"	505.056680182	492.654923763	1.5	0.1
0.01	1	0.00398809699998992	1	87	NA	62.501568857	0	0.24	1.51	1	58.28598052	58.289968617	"7"	505.056680182	492.654923763	1.5	0.1
0.01	1	0.00400149400002192	1	87	NA	62.501568857	0	0.24	1.51	1	58.519757245	58.523758739	"7"	505.056680182	492.654923763	1.5	0.1
0.01	1	0.00469423500004496	1	87	NA	62.501568857	0	0.24	1.51	1	58.75353934	58.758233575	"7"	505.056680182	492.654923763	1.5	0.1
0.01	1	0.00354479100002436	1	87	NA	62.501568857	0	0.24	1.51	1	58.98718023	58.990725021	"7"	505.056680182	492.654923763	1.5	0.1
0.01	1	0.00370031300002438	1	87	NA	62.501568857	0	0.24	1.51	1	59.220967772	59.224668085	"7"	505.056680182	492.654923763	1.5	0.1
0.01	1	0.00408890199997813	1	87	NA	62.501568857	0	0.24	1.51	1	59.454629575	59.458718477	"7"	505.056680182	492.654923763	1.5	0.1
0.01	1	0.00389273999996931	1	87	NA	62.501568857	0	0.24	1.51	1	59.688371045	59.692263785	"7"	505.056680182	492.654923763	1.5	0.1
0.01	1	0.00409154800001943	1	87	NA	62.501568857	0	0.24	1.51	1	59.922123035	59.926214583	"7"	505.056680182	492.654923763	1.5	0.1
0.01	1	0.0036294450000014	1	87	NA	62.501568857	0	0.24	1.51	1	60.155815162	60.159444607	"7"	505.056680182	492.654923763	1.5	0.1
0.01	1	0.00393563599999425	1	87	NA	62.501568857	0	0.24	1.51	1	60.389559497	60.393495133	"7"	505.056680182	492.654923763	1.5	0.1
0.01	1	0.0033748179999975	1	87	NA	62.501568857	0	0.24	1.51	1	60.623201811	60.626576629	"7"	505.056680182	492.654923763	1.5	0.1
0.01	1	0.00337135600000238	1	87	NA	62.501568857	0	0.24	1.51	1	60.857017619	60.860388975	"7"	505.056680182	492.654923763	1.5	0.1
0.01	1	0.00368347800002766	1	87	NA	62.501568857	0	0.24	1.51	1	61.090769375	61.094452853	"7"	505.056680182	492.654923763	1.5	0.1
0.01	1	0.00364595499996767	1	87	NA	62.501568857	0	0.24	1.51	1	61.32453598	61.328181935	"7"	505.056680182	492.654923763	1.5	0.1
0.01	1	0.00385130400002254	1	87	NA	62.501568857	0	0.24	1.51	1	61.558194535	61.562045839	"7"	505.056680182	492.654923763	1.5	0.1
0.01	1	0.00396065500001441	1	87	NA	62.501568857	0	0.24	1.51	1	61.791985702	61.795946357	"7"	505.056680182	492.654923763	1.5	0.1
0.01	1	0.0046251499999812	1	87	NA	62.501568857	0	0.24	1.51	1	62.025679475	62.030304625	"7"	505.056680182	492.654923763	1.5	0.1
0.01	1	0.00467209999999341	1	87	NA	62.501568857	0	0.24	1.51	1	62.25942796	62.26410006	"7"	505.056680182	492.654923763	1.5	0.1
0.01	1	0.00689237500000672	2	87	NA	62.501568857	0	0.24	1.51	1	62.492997103	62.499889478	"7"	505.056680182	492.654923763	1.5	0.1
0.01	1	0.441492842999992	1	6	66.267739386	NA	1	0	1.51	1	64.54650634	64.987999183	"8"	505.056680182	492.654923763	1.5	0.1
0.01	1	0.00390303400001812	1	6	66.267739386	NA	1	0	1.51	1	65.214390985	65.218294019	"8"	505.056680182	492.654923763	1.5	0.1
0.01	1	0.00396319200001471	1	6	66.267739386	NA	1	0	1.51	1	65.447994975	65.451958167	"8"	505.056680182	492.654923763	1.5	0.1
0.01	1	0.00337628200003337	1	6	66.267739386	NA	1	0	1.51	1	65.681744769	65.685121051	"8"	505.056680182	492.654923763	1.5	0.1
0.01	1	0.00386871699998892	1	6	66.267739386	NA	1	0	1.51	1	65.915539802	65.919408519	"8"	505.056680182	492.654923763	1.5	0.1
0.01	1	0.00274206500000673	1	6	66.267739386	NA	1	0	1.51	1	66.149234677	66.151976742	"8"	505.056680182	492.654923763	1.5	0.1
0.01	1	0.49320299499999	1	106	NA	73.619840609	0	0.2	1.71	1	68.302860295	68.79606329	"9"	505.056680182	492.654923763	1.5	0.1
0.01	1	0.00470072199999549	1	106	NA	73.619840609	0	0.2	1.71	1	69.03743518	69.042135902	"9"	505.056680182	492.654923763	1.5	0.1
0.01	1	0.00395888200000627	1	106	NA	73.619840609	0	0.2	1.71	1	69.271162067	69.275120949	"9"	505.056680182	492.654923763	1.5	0.1
0.01	1	0.00394752900001549	1	106	NA	73.619840609	0	0.2	1.71	1	69.50484337	69.508790899	"9"	505.056680182	492.654923763	1.5	0.1
0.01	1	0.00463259500003232	1	106	NA	73.619840609	0	0.2	1.71	1	69.738601735	69.74323433	"9"	505.056680182	492.654923763	1.5	0.1
0.01	1	0.00386299299998427	1	106	NA	73.619840609	0	0.2	1.71	1	69.97229627	69.976159263	"9"	505.056680182	492.654923763	1.5	0.1
0.01	1	0.00467069699999456	1	106	NA	73.619840609	0	0.2	1.71	1	70.20605063	70.210721327	"9"	505.056680182	492.654923763	1.5	0.1
0.01	1	0.00471954700003607	1	106	NA	73.619840609	0	0.2	1.71	1	70.439824485	70.444544032	"9"	505.056680182	492.654923763	1.5	0.1
0.01	1	0.00223797200004583	1	106	NA	73.619840609	0	0.2	1.71	1	70.673505527	70.675743499	"9"	505.056680182	492.654923763	1.5	0.1
0.01	1	0.0034625399999868	1	106	NA	73.619840609	0	0.2	1.71	1	70.907347997	70.910810537	"9"	505.056680182	492.654923763	1.5	0.1
0.01	1	0.0039010500000245	1	106	NA	73.619840609	0	0.2	1.71	1	71.140929495	71.144830545	"9"	505.056680182	492.654923763	1.5	0.1
0.01	1	0.00461534199996549	1	106	NA	73.619840609	0	0.2	1.71	1	71.37466394	71.379279282	"9"	505.056680182	492.654923763	1.5	0.1
0.01	1	0.00399846800002024	1	106	NA	73.619840609	0	0.2	1.71	1	71.608426095	71.612424563	"9"	505.056680182	492.654923763	1.5	0.1
0.01	1	0.00336732800002437	1	106	NA	73.619840609	0	0.2	1.71	1	71.842235363	71.845602691	"9"	505.056680182	492.654923763	1.5	0.1
0.01	1	0.00372893899998417	1	106	NA	73.619840609	0	0.2	1.71	1	72.075787162	72.079516101	"9"	505.056680182	492.654923763	1.5	0.1
0.01	1	0.00463044999997919	1	106	NA	73.619840609	0	0.2	1.71	1	72.309707495	72.314337945	"9"	505.056680182	492.654923763	1.5	0.1
0.01	1	0.00395928200003937	1	106	NA	73.619840609	0	0.2	1.71	1	72.543294535	72.547253817	"9"	505.056680182	492.654923763	1.5	0.1
0.01	1	0.00462469999996529	1	106	NA	73.619840609	0	0.2	1.71	1	72.777235645	72.781860345	"9"	505.056680182	492.654923763	1.5	0.1
0.01	1	0.00351906899999221	1	106	NA	73.619840609	0	0.2	1.71	1	73.01073659	73.014255659	"9"	505.056680182	492.654923763	1.5	0.1
0.01	1	0.00391446900005121	1	106	NA	73.619840609	0	0.2	1.71	1	73.24443545	73.248349919	"9"	505.056680182	492.654923763	1.5	0.1
0.01	1	0.139915460999987	2	106	NA	73.619840609	0	0.2	1.71	1	73.478271501	73.618186962	"9"	505.056680182	492.654923763	1.5	0.1
0.01	1	0.394747089999953	1	21	80.860324205	NA	1	0	1.71	1	75.665216755	76.059963845	"10"	505.056680182	492.654923763	1.5	0.1
0.01	1	0.00393282800001771	1	21	80.860324205	NA	1	0	1.71	1	76.299676385	76.303609213	"10"	505.056680182	492.654923763	1.5	0.1
0.01	1	0.00397968200002197	1	21	80.860324205	NA	1	0	1.71	1	76.533400865	76.537380547	"10"	505.056680182	492.654923763	1.5	0.1
0.01	1	0.00250088799998593	1	21	80.860324205	NA	1	0	1.71	1	76.767082959	76.769583847	"10"	505.056680182	492.654923763	1.5	0.1
0.01	1	0.00398989000001393	1	21	80.860324205	NA	1	0	1.71	1	77.000845165	77.004835055	"10"	505.056680182	492.654923763	1.5	0.1
0.01	1	0.00373445399998218	1	21	80.860324205	NA	1	0	1.71	1	77.234581417	77.238315871	"10"	505.056680182	492.654923763	1.5	0.1
0.01	1	0.00389517899998282	1	21	80.860324205	NA	1	0	1.71	1	77.46833467	77.472229849	"10"	505.056680182	492.654923763	1.5	0.1
0.01	1	0.00359668700002658	1	21	80.860324205	NA	1	0	1.71	1	77.702053182	77.705649869	"10"	505.056680182	492.654923763	1.5	0.1
0.01	1	0.00469483000000537	1	21	80.860324205	NA	1	0	1.71	1	77.935818325	77.940513155	"10"	505.056680182	492.654923763	1.5	0.1
0.01	1	0.00382344500002318	1	21	80.860324205	NA	1	0	1.71	1	78.16948675	78.173310195	"10"	505.056680182	492.654923763	1.5	0.1
0.01	1	0.00410927000001493	1	21	80.860324205	NA	1	0	1.71	1	78.403129505	78.407238775	"10"	505.056680182	492.654923763	1.5	0.1
0.01	1	0.00394600100003117	1	21	80.860324205	NA	1	0	1.71	1	78.63682622	78.640772221	"10"	505.056680182	492.654923763	1.5	0.1
0.01	1	0.00207572900001196	1	21	80.860324205	NA	1	0	1.71	1	78.870600451	78.87267618	"10"	505.056680182	492.654923763	1.5	0.1
0.01	1	0.00469870699998864	1	21	80.860324205	NA	1	0	1.71	1	79.10438784	79.109086547	"10"	505.056680182	492.654923763	1.5	0.1
0.01	1	0.00340029800003094	1	21	80.860324205	NA	1	0	1.71	1	79.338045295	79.341445593	"10"	505.056680182	492.654923763	1.5	0.1
0.01	1	0.00376741699994909	1	21	80.860324205	NA	1	0	1.71	1	79.57181207	79.575579487	"10"	505.056680182	492.654923763	1.5	0.1
0.01	1	0.003934905000051	1	21	80.860324205	NA	1	0	1.71	1	79.8055565	79.809491405	"10"	505.056680182	492.654923763	1.5	0.1
0.01	1	0.00375910299999305	1	21	80.860324205	NA	1	0	1.71	1	80.03926098	80.043020083	"10"	505.056680182	492.654923763	1.5	0.1
0.01	1	0.00465177499995661	1	21	80.860324205	NA	1	0	1.71	1	80.27305688	80.277708655	"10"	505.056680182	492.654923763	1.5	0.1
0.01	1	0.00370166300001529	1	21	80.860324205	NA	1	0	1.71	1	80.50677461	80.510476273	"10"	505.056680182	492.654923763	1.5	0.1
0.01	1	0.0047054599999683	1	21	80.860324205	NA	1	0	1.71	1	80.740528395	80.745233855	"10"	505.056680182	492.654923763	1.5	0.1
0.01	1	0.244665691000023	1	19	NA	86.989710874	0	0.16	1.87	1	82.91073942	83.155405111	"11"	505.056680182	492.654923763	1.5	0.1
0.01	1	0.00382260399999268	1	19	NA	86.989710874	0	0.16	1.87	1	83.394849875	83.398672479	"11"	505.056680182	492.654923763	1.5	0.1
0.01	1	0.00379090699999551	1	19	NA	86.989710874	0	0.16	1.87	1	83.628647102	83.632438009	"11"	505.056680182	492.654923763	1.5	0.1
0.01	1	0.00471828199999891	1	19	NA	86.989710874	0	0.16	1.87	1	83.862425845	83.867144127	"11"	505.056680182	492.654923763	1.5	0.1
0.01	1	0.00464408999999932	1	19	NA	86.989710874	0	0.16	1.87	1	84.096208695	84.100852785	"11"	505.056680182	492.654923763	1.5	0.1
0.01	1	0.00402474499998107	1	19	NA	86.989710874	0	0.16	1.87	1	84.32989354	84.333918285	"11"	505.056680182	492.654923763	1.5	0.1
0.01	1	0.0039002030000006	1	19	NA	86.989710874	0	0.16	1.87	1	84.563625142	84.567525345	"11"	505.056680182	492.654923763	1.5	0.1
0.01	1	0.00376857999998492	1	19	NA	86.989710874	0	0.16	1.87	1	84.797136535	84.800905115	"11"	505.056680182	492.654923763	1.5	0.1
0.01	1	0.00397328900004368	1	19	NA	86.989710874	0	0.16	1.87	1	85.03096062	85.034933909	"11"	505.056680182	492.654923763	1.5	0.1
0.01	1	0.003413863999981	1	19	NA	86.989710874	0	0.16	1.87	1	85.264678537	85.268092401	"11"	505.056680182	492.654923763	1.5	0.1
0.01	1	0.0040056580000396	1	19	NA	86.989710874	0	0.16	1.87	1	85.498589135	85.502594793	"11"	505.056680182	492.654923763	1.5	0.1
0.01	1	0.00459865499999523	1	19	NA	86.989710874	0	0.16	1.87	1	85.732187325	85.73678598	"11"	505.056680182	492.654923763	1.5	0.1
0.01	1	0.00375954300000103	1	19	NA	86.989710874	0	0.16	1.87	1	85.965884752	85.969644295	"11"	505.056680182	492.654923763	1.5	0.1
0.01	1	0.00330729799998153	1	19	NA	86.989710874	0	0.16	1.87	1	86.199630451	86.202937749	"11"	505.056680182	492.654923763	1.5	0.1
0.01	1	0.00334444600002826	1	19	NA	86.989710874	0	0.16	1.87	1	86.433308605	86.436653051	"11"	505.056680182	492.654923763	1.5	0.1
0.01	1	0.00400191400001404	1	19	NA	86.989710874	0	0.16	1.87	1	86.667067095	86.671069009	"11"	505.056680182	492.654923763	1.5	0.1
0.01	1	0.0871480879999922	2	19	NA	86.989710874	0	0.16	1.87	1	86.900809187	86.987957275	"11"	505.056680182	492.654923763	1.5	0.1
0.01	1	0.310110597000005	1	63	NA	94.213191034	0	0.2	2.07	1	89.037749227	89.347859824	"12"	505.056680182	492.654923763	1.5	0.1
0.01	1	0.00406374900001083	1	63	NA	94.213191034	0	0.2	2.07	1	89.58869508	89.592758829	"12"	505.056680182	492.654923763	1.5	0.1
0.01	1	0.00384249799998315	1	63	NA	94.213191034	0	0.2	2.07	1	89.822399307	89.826241805	"12"	505.056680182	492.654923763	1.5	0.1
0.01	1	0.00467122000003428	1	63	NA	94.213191034	0	0.2	2.07	1	90.056082395	90.060753615	"12"	505.056680182	492.654923763	1.5	0.1
0.01	1	0.00365946099998382	1	63	NA	94.213191034	0	0.2	2.07	1	90.28985522	90.293514681	"12"	505.056680182	492.654923763	1.5	0.1
0.01	1	0.00380771500005039	1	63	NA	94.213191034	0	0.2	2.07	1	90.52361187	90.527419585	"12"	505.056680182	492.654923763	1.5	0.1
0.01	1	0.00409847100002025	1	63	NA	94.213191034	0	0.2	2.07	1	90.757289062	90.761387533	"12"	505.056680182	492.654923763	1.5	0.1
0.01	1	0.00403103299998975	1	63	NA	94.213191034	0	0.2	2.07	1	90.991068062	90.995099095	"12"	505.056680182	492.654923763	1.5	0.1
0.01	1	0.00399605899997368	1	63	NA	94.213191034	0	0.2	2.07	1	91.224765542	91.228761601	"12"	505.056680182	492.654923763	1.5	0.1
0.01	1	0.00341222400004426	1	63	NA	94.213191034	0	0.2	2.07	1	91.458511695	91.461923919	"12"	505.056680182	492.654923763	1.5	0.1
0.01	1	0.00365639500000725	1	63	NA	94.213191034	0	0.2	2.07	1	91.69223654	91.695892935	"12"	505.056680182	492.654923763	1.5	0.1
0.01	1	0.00459550799996578	1	63	NA	94.213191034	0	0.2	2.07	1	91.925998037	91.930593545	"12"	505.056680182	492.654923763	1.5	0.1
0.01	1	0.00460454099999197	1	63	NA	94.213191034	0	0.2	2.07	1	92.159650674	92.164255215	"12"	505.056680182	492.654923763	1.5	0.1
0.01	1	0.00468695699998989	1	63	NA	94.213191034	0	0.2	2.07	1	92.39341471	92.398101667	"12"	505.056680182	492.654923763	1.5	0.1
0.01	1	0.00374421800000846	1	63	NA	94.213191034	0	0.2	2.07	1	92.627063287	92.630807505	"12"	505.056680182	492.654923763	1.5	0.1
0.01	1	0.00377060099998516	1	63	NA	94.213191034	0	0.2	2.07	1	92.860798982	92.864569583	"12"	505.056680182	492.654923763	1.5	0.1
0.01	1	0.0036985360000017	1	63	NA	94.213191034	0	0.2	2.07	1	93.094501535	93.098200071	"12"	505.056680182	492.654923763	1.5	0.1
0.01	1	0.00402423000002727	1	63	NA	94.213191034	0	0.2	2.07	1	93.328309587	93.332333817	"12"	505.056680182	492.654923763	1.5	0.1
0.01	1	0.00338049999999157	1	63	NA	94.213191034	0	0.2	2.07	1	93.562042339	93.565422839	"12"	505.056680182	492.654923763	1.5	0.1
0.01	1	0.00395359899999903	1	63	NA	94.213191034	0	0.2	2.07	1	93.795795662	93.799749261	"12"	505.056680182	492.654923763	1.5	0.1
0.01	1	0.182004457000005	2	63	NA	94.213191034	0	0.2	2.07	1	94.02950902	94.211513477	"12"	505.056680182	492.654923763	1.5	0.1
0.01	1	0.440804413000023	1	54	NA	101.228175486	0	0.19	2.26	1	96.266589072	96.707393485	"13"	505.056680182	492.654923763	1.5	0.1
0.01	1	0.00217448600000125	1	54	NA	101.228175486	0	0.19	2.26	1	96.934372485	96.936546971	"13"	505.056680182	492.654923763	1.5	0.1
0.01	1	0.00387325099995905	1	54	NA	101.228175486	0	0.19	2.26	1	97.16811079	97.171984041	"13"	505.056680182	492.654923763	1.5	0.1
0.01	1	0.00352568799996789	1	54	NA	101.228175486	0	0.19	2.26	1	97.401758055	97.405283743	"13"	505.056680182	492.654923763	1.5	0.1
0.01	1	0.00333647200000087	1	54	NA	101.228175486	0	0.19	2.26	1	97.635542765	97.638879237	"13"	505.056680182	492.654923763	1.5	0.1
0.01	1	0.00393859100000782	1	54	NA	101.228175486	0	0.19	2.26	1	97.869332382	97.873270973	"13"	505.056680182	492.654923763	1.5	0.1
0.01	1	0.00397205599995232	1	54	NA	101.228175486	0	0.19	2.26	1	98.102996285	98.106968341	"13"	505.056680182	492.654923763	1.5	0.1
0.01	1	0.00463165000002164	1	54	NA	101.228175486	0	0.19	2.26	1	98.3367467	98.34137835	"13"	505.056680182	492.654923763	1.5	0.1
0.01	1	0.00334573800000726	1	54	NA	101.228175486	0	0.19	2.26	1	98.570507721	98.573853459	"13"	505.056680182	492.654923763	1.5	0.1
0.01	1	0.00327929999997423	1	54	NA	101.228175486	0	0.19	2.26	1	98.804102687	98.807381987	"13"	505.056680182	492.654923763	1.5	0.1
0.01	1	0.00391540900000109	1	54	NA	101.228175486	0	0.19	2.26	1	99.037893082	99.041808491	"13"	505.056680182	492.654923763	1.5	0.1
0.01	1	0.00464046500002269	1	54	NA	101.228175486	0	0.19	2.26	1	99.27157702	99.276217485	"13"	505.056680182	492.654923763	1.5	0.1
0.01	1	0.00394740199999433	1	54	NA	101.228175486	0	0.19	2.26	1	99.505276635	99.509224037	"13"	505.056680182	492.654923763	1.5	0.1
0.01	1	0.00359214600001678	1	54	NA	101.228175486	0	0.19	2.26	1	99.739045295	99.742637441	"13"	505.056680182	492.654923763	1.5	0.1
0.01	1	0.00408743299999514	1	54	NA	101.228175486	0	0.19	2.26	1	99.972731042	99.976818475	"13"	505.056680182	492.654923763	1.5	0.1
0.01	1	0.00432019800001626	1	54	NA	101.228175486	0	0.19	2.26	1	100.206519187	100.210839385	"13"	505.056680182	492.654923763	1.5	0.1
0.01	1	0.0033938000000262	1	54	NA	101.228175486	0	0.19	2.26	1	100.440186989	100.443580789	"13"	505.056680182	492.654923763	1.5	0.1
0.01	1	0.00333657999999559	1	54	NA	101.228175486	0	0.19	2.26	1	100.673995273	100.677331853	"13"	505.056680182	492.654923763	1.5	0.1
0.01	1	0.00388323099997478	1	54	NA	101.228175486	0	0.19	2.26	1	100.90764301	100.911526241	"13"	505.056680182	492.654923763	1.5	0.1
0.01	1	0.0850893239999664	2	54	NA	101.228175486	0	0.19	2.26	1	101.141405172	101.226494496	"13"	505.056680182	492.654923763	1.5	0.1
0.01	1	0.421908205000022	1	103	NA	109.580668627	0	0.2	2.46	1	103.261658465	103.68356667	"14"	505.056680182	492.654923763	1.5	0.1
0.01	1	0.00469347699998934	1	103	NA	109.580668627	0	0.2	2.46	1	103.912859885	103.917553362	"14"	505.056680182	492.654923763	1.5	0.1
0.01	1	0.00390170800000078	1	103	NA	109.580668627	0	0.2	2.46	1	104.146473245	104.150374953	"14"	505.056680182	492.654923763	1.5	0.1
0.01	1	0.00461677199996302	1	103	NA	109.580668627	0	0.2	2.46	1	104.38027847	104.384895242	"14"	505.056680182	492.654923763	1.5	0.1
0.01	1	0.00381186600003502	1	103	NA	109.580668627	0	0.2	2.46	1	104.613858765	104.617670631	"14"	505.056680182	492.654923763	1.5	0.1
0.01	1	0.00408107199996266	1	103	NA	109.580668627	0	0.2	2.46	1	104.847574515	104.851655587	"14"	505.056680182	492.654923763	1.5	0.1
0.01	1	0.00398078799997847	1	103	NA	109.580668627	0	0.2	2.46	1	105.081335787	105.085316575	"14"	505.056680182	492.654923763	1.5	0.1
0.01	1	0.00469699199999241	1	103	NA	109.580668627	0	0.2	2.46	1	105.31510749	105.319804482	"14"	505.056680182	492.654923763	1.5	0.1
0.01	1	0.00339864300002546	1	103	NA	109.580668627	0	0.2	2.46	1	105.54879313	105.552191773	"14"	505.056680182	492.654923763	1.5	0.1
0.01	1	0.00354413500002693	1	103	NA	109.580668627	0	0.2	2.46	1	105.78259696	105.786141095	"14"	505.056680182	492.654923763	1.5	0.1
0.01	1	0.00402626400000372	1	103	NA	109.580668627	0	0.2	2.46	1	106.016317265	106.020343529	"14"	505.056680182	492.654923763	1.5	0.1
0.01	1	0.0039478200000076	1	103	NA	109.580668627	0	0.2	2.46	1	106.250127935	106.254075755	"14"	505.056680182	492.654923763	1.5	0.1
0.01	1	0.00371583700001565	1	103	NA	109.580668627	0	0.2	2.46	1	106.48375671	106.487472547	"14"	505.056680182	492.654923763	1.5	0.1
0.01	1	0.00356493099997124	1	103	NA	109.580668627	0	0.2	2.46	1	106.71748873	106.721053661	"14"	505.056680182	492.654923763	1.5	0.1
0.01	1	0.0036820230000103	1	103	NA	109.580668627	0	0.2	2.46	1	106.951244552	106.954926575	"14"	505.056680182	492.654923763	1.5	0.1
0.01	1	0.00391009300000178	1	103	NA	109.580668627	0	0.2	2.46	1	107.18489845	107.188808543	"14"	505.056680182	492.654923763	1.5	0.1
0.01	1	0.00349005499998611	1	103	NA	109.580668627	0	0.2	2.46	1	107.41864468	107.422134735	"14"	505.056680182	492.654923763	1.5	0.1
0.01	1	0.00386442500001749	1	103	NA	109.580668627	0	0.2	2.46	1	107.65231287	107.656177295	"14"	505.056680182	492.654923763	1.5	0.1
0.01	1	0.00353985899999998	1	103	NA	109.580668627	0	0.2	2.46	1	107.88603837	107.889578229	"14"	505.056680182	492.654923763	1.5	0.1
0.01	1	0.00360009600001376	1	103	NA	109.580668627	0	0.2	2.46	1	108.119797325	108.123397421	"14"	505.056680182	492.654923763	1.5	0.1
0.01	1	1.22541693699998	2	103	NA	109.580668627	0	0.2	2.46	1	108.35356036	109.578977297	"14"	505.056680182	492.654923763	1.5	0.1
0.01	1	1.960397414	1	120	NA	122.875406692	0	0.28	2.74	1	111.625704037	113.586101451	"15"	505.056680182	492.654923763	1.5	0.1
0.01	1	0.0841535860000135	1	120	NA	122.875406692	0	0.28	2.74	1	113.812711092	113.896864678	"15"	505.056680182	492.654923763	1.5	0.1
0.01	1	0.103600484999959	1	120	NA	122.875406692	0	0.28	2.74	1	114.13001492	114.233615405	"15"	505.056680182	492.654923763	1.5	0.1
0.01	1	0.0493212430000085	1	120	NA	122.875406692	0	0.28	2.74	1	114.463758947	114.51308019	"15"	505.056680182	492.654923763	1.5	0.1
0.01	1	0.0781957289999582	1	120	NA	122.875406692	0	0.28	2.74	1	114.747830495	114.826026224	"15"	505.056680182	492.654923763	1.5	0.1
0.01	1	0.0738038279999955	1	120	NA	122.875406692	0	0.28	2.74	1	115.048057127	115.121860955	"15"	505.056680182	492.654923763	1.5	0.1
0.01	1	0.0521613320000256	1	120	NA	122.875406692	0	0.28	2.74	1	115.348661755	115.400823087	"15"	505.056680182	492.654923763	1.5	0.1
0.01	1	0.0409546379999597	1	120	NA	122.875406692	0	0.28	2.74	1	115.63243146	115.673386098	"15"	505.056680182	492.654923763	1.5	0.1
0.01	1	0.150565874999984	1	120	NA	122.875406692	0	0.28	2.74	1	115.899640755	116.05020663	"15"	505.056680182	492.654923763	1.5	0.1
0.01	1	0.326610650000021	1	120	NA	122.875406692	0	0.28	2.74	1	116.283581665	116.610192315	"15"	505.056680182	492.654923763	1.5	0.1
0.01	1	0.0874002709999786	1	120	NA	122.875406692	0	0.28	2.74	1	116.83436932	116.921769591	"15"	505.056680182	492.654923763	1.5	0.1
0.01	1	0.00467095999999856	1	120	NA	122.875406692	0	0.28	2.74	1	117.15168028	117.15635124	"15"	505.056680182	492.654923763	1.5	0.1
0.01	1	0.00385246799999095	1	120	NA	122.875406692	0	0.28	2.74	1	117.385412477	117.389264945	"15"	505.056680182	492.654923763	1.5	0.1
0.01	1	0.00458927699997957	1	120	NA	122.875406692	0	0.28	2.74	1	117.619285665	117.623874942	"15"	505.056680182	492.654923763	1.5	0.1
0.01	1	0.00395207799999753	1	120	NA	122.875406692	0	0.28	2.74	1	117.852921685	117.856873763	"15"	505.056680182	492.654923763	1.5	0.1
0.01	1	0.00400445499997204	1	120	NA	122.875406692	0	0.28	2.74	1	118.086696962	118.090701417	"15"	505.056680182	492.654923763	1.5	0.1
0.01	1	0.00324642399999675	1	120	NA	122.875406692	0	0.28	2.74	1	118.320298065	118.323544489	"15"	505.056680182	492.654923763	1.5	0.1
0.01	1	0.0039921879999838	1	120	NA	122.875406692	0	0.28	2.74	1	118.554071937	118.558064125	"15"	505.056680182	492.654923763	1.5	0.1
0.01	1	0.00392966099997238	1	120	NA	122.875406692	0	0.28	2.74	1	118.78775072	118.791680381	"15"	505.056680182	492.654923763	1.5	0.1
0.01	1	0.00400481799999852	1	120	NA	122.875406692	0	0.28	2.74	1	119.021550915	119.025555733	"15"	505.056680182	492.654923763	1.5	0.1
0.01	1	0.410701747999951	1	120	NA	122.875406692	0	0.28	2.74	1	119.255246525	119.665948273	"15"	505.056680182	492.654923763	1.5	0.1
0.01	1	0.120895026000028	1	120	NA	122.875406692	0	0.28	2.74	1	119.889527507	120.010422533	"15"	505.056680182	492.654923763	1.5	0.1
0.01	1	0.0819542809999803	1	120	NA	122.875406692	0	0.28	2.74	1	120.24029187	120.322246151	"15"	505.056680182	492.654923763	1.5	0.1
0.01	1	0.0362032669999621	1	120	NA	122.875406692	0	0.28	2.74	1	120.557352675	120.593555942	"15"	505.056680182	492.654923763	1.5	0.1
0.01	1	0.0111747269999682	1	120	NA	122.875406692	0	0.28	2.74	1	120.8246459	120.835820627	"15"	505.056680182	492.654923763	1.5	0.1
0.01	1	0.00375799800002596	1	120	NA	122.875406692	0	0.28	2.74	1	121.058258725	121.062016723	"15"	505.056680182	492.654923763	1.5	0.1
0.01	1	0.00365614700001515	1	120	NA	122.875406692	0	0.28	2.74	1	121.291941202	121.295597349	"15"	505.056680182	492.654923763	1.5	0.1
0.01	1	0.572652188000006	1	120	NA	122.875406692	0	0.28	2.74	1	121.525751735	122.098403923	"15"	505.056680182	492.654923763	1.5	0.1
0.01	1	0.546610857000019	2	120	NA	122.875406692	0	0.28	2.74	1	122.327102403	122.87371326	"15"	505.056680182	492.654923763	1.5	0.1
0.01	1	0.0536991270000158	1	109	NA	134.042906924	0	0.36	3.1	1	124.91477473	124.968473857	"16"	505.056680182	492.654923763	1.5	0.1
0.01	1	0.00335575999997673	1	109	NA	134.042906924	0	0.36	3.1	1	125.198563563	125.201919323	"16"	505.056680182	492.654923763	1.5	0.1
0.01	1	0.0037582239999665	1	109	NA	134.042906924	0	0.36	3.1	1	125.432193955	125.435952179	"16"	505.056680182	492.654923763	1.5	0.1
0.01	1	0.0039950009999643	1	109	NA	134.042906924	0	0.36	3.1	1	125.665925892	125.669920893	"16"	505.056680182	492.654923763	1.5	0.1
0.01	1	0.00326653000001897	1	109	NA	134.042906924	0	0.36	3.1	1	125.899662193	125.902928723	"16"	505.056680182	492.654923763	1.5	0.1
0.01	1	0.00376241500003971	1	109	NA	134.042906924	0	0.36	3.1	1	126.133501042	126.137263457	"16"	505.056680182	492.654923763	1.5	0.1
0.01	1	0.00373178500001359	1	109	NA	134.042906924	0	0.36	3.1	1	126.367246692	126.370978477	"16"	505.056680182	492.654923763	1.5	0.1
0.01	1	0.00458996800000477	1	109	NA	134.042906924	0	0.36	3.1	1	126.600961397	126.605551365	"16"	505.056680182	492.654923763	1.5	0.1
0.01	1	0.00351575400003412	1	109	NA	134.042906924	0	0.36	3.1	1	126.834703065	126.838218819	"16"	505.056680182	492.654923763	1.5	0.1
0.01	1	0.00272293799997669	1	109	NA	134.042906924	0	0.36	3.1	1	127.068330499	127.071053437	"16"	505.056680182	492.654923763	1.5	0.1
0.01	1	0.00282815999997865	1	109	NA	134.042906924	0	0.36	3.1	1	127.302070867	127.304899027	"16"	505.056680182	492.654923763	1.5	0.1
0.01	1	0.00447925299999952	1	109	NA	134.042906924	0	0.36	3.1	1	127.535872934	127.540352187	"16"	505.056680182	492.654923763	1.5	0.1
0.01	1	0.00452409999996917	1	109	NA	134.042906924	0	0.36	3.1	1	127.76956507	127.77408917	"16"	505.056680182	492.654923763	1.5	0.1
0.01	1	0.0046466070000406	1	109	NA	134.042906924	0	0.36	3.1	1	128.003309605	128.007956212	"16"	505.056680182	492.654923763	1.5	0.1
0.01	1	0.0036639499999751	1	109	NA	134.042906924	0	0.36	3.1	1	128.236984015	128.240647965	"16"	505.056680182	492.654923763	1.5	0.1
0.01	1	0.00382071100000303	1	109	NA	134.042906924	0	0.36	3.1	1	128.47061536	128.474436071	"16"	505.056680182	492.654923763	1.5	0.1
0.01	1	0.00407130899998265	1	109	NA	134.042906924	0	0.36	3.1	1	128.704408612	128.708479921	"16"	505.056680182	492.654923763	1.5	0.1
0.01	1	0.00205567299997256	1	109	NA	134.042906924	0	0.36	3.1	1	128.938171883	128.940227556	"16"	505.056680182	492.654923763	1.5	0.1
0.01	1	0.00465993199998138	1	109	NA	134.042906924	0	0.36	3.1	1	129.1718313	129.176491232	"16"	505.056680182	492.654923763	1.5	0.1
0.01	1	0.00381766100002778	1	109	NA	134.042906924	0	0.36	3.1	1	129.4055825	129.409400161	"16"	505.056680182	492.654923763	1.5	0.1
0.01	1	0.00387313400000266	1	109	NA	134.042906924	0	0.36	3.1	1	129.639418195	129.643291329	"16"	505.056680182	492.654923763	1.5	0.1
0.01	1	0.00336031399996273	1	109	NA	134.042906924	0	0.36	3.1	1	129.873106881	129.876467195	"16"	505.056680182	492.654923763	1.5	0.1
0.01	1	0.00337057400003005	1	109	NA	134.042906924	0	0.36	3.1	1	130.106762083	130.110132657	"16"	505.056680182	492.654923763	1.5	0.1
0.01	1	0.00463168699997141	1	109	NA	134.042906924	0	0.36	3.1	1	130.34056098	130.345192667	"16"	505.056680182	492.654923763	1.5	0.1
0.01	1	0.00379871699999512	1	109	NA	134.042906924	0	0.36	3.1	1	130.574241032	130.578039749	"16"	505.056680182	492.654923763	1.5	0.1
0.01	1	0.00469357699995498	1	109	NA	134.042906924	0	0.36	3.1	1	130.80807341	130.812766987	"16"	505.056680182	492.654923763	1.5	0.1
0.01	1	0.00472545700000637	1	109	NA	134.042906924	0	0.36	3.1	1	131.041753605	131.046479062	"16"	505.056680182	492.654923763	1.5	0.1
0.01	1	0.00467849999995451	1	109	NA	134.042906924	0	0.36	3.1	1	131.275440085	131.280118585	"16"	505.056680182	492.654923763	1.5	0.1
0.01	1	0.00369739399997115	1	109	NA	134.042906924	0	0.36	3.1	1	131.509140665	131.512838059	"16"	505.056680182	492.654923763	1.5	0.1
0.01	1	0.00467722199999798	1	109	NA	134.042906924	0	0.36	3.1	1	131.742971705	131.747648927	"16"	505.056680182	492.654923763	1.5	0.1
0.01	1	0.00460754499999894	1	109	NA	134.042906924	0	0.36	3.1	1	131.97663023	131.981237775	"16"	505.056680182	492.654923763	1.5	0.1
0.01	1	0.00399748600000294	1	109	NA	134.042906924	0	0.36	3.1	1	132.210306157	132.214303643	"16"	505.056680182	492.654923763	1.5	0.1
0.01	1	0.00462922700000945	1	109	NA	134.042906924	0	0.36	3.1	1	132.444038075	132.448667302	"16"	505.056680182	492.654923763	1.5	0.1
0.01	1	0.00383970999996563	1	109	NA	134.042906924	0	0.36	3.1	1	132.677791365	132.681631075	"16"	505.056680182	492.654923763	1.5	0.1
0.01	1	0.00412863099995775	1	109	NA	134.042906924	0	0.36	3.1	1	132.911503664	132.915632295	"16"	505.056680182	492.654923763	1.5	0.1
0.01	1	0.00462313200000608	1	109	NA	134.042906924	0	0.36	3.1	1	133.14518586	133.149808992	"16"	505.056680182	492.654923763	1.5	0.1
0.01	1	0.662304990000052	2	109	NA	134.042906924	0	0.36	3.1	1	133.37890972	134.04121471	"16"	505.056680182	492.654923763	1.5	0.1
0.01	1	0.36621459600002	1	71	NA	144.258596712	0	0.33	3.43	1	136.083474857	136.449689453	"17"	505.056680182	492.654923763	1.5	0.1
0.01	1	0.00365373700003602	1	71	NA	144.258596712	0	0.33	3.43	1	136.684523492	136.688177229	"17"	505.056680182	492.654923763	1.5	0.1
0.01	1	0.00403949399998282	1	71	NA	144.258596712	0	0.33	3.43	1	136.918214755	136.922254249	"17"	505.056680182	492.654923763	1.5	0.1
0.01	1	0.00400765199998432	1	71	NA	144.258596712	0	0.33	3.43	1	137.151983535	137.155991187	"17"	505.056680182	492.654923763	1.5	0.1
0.01	1	0.00371450899996262	1	71	NA	144.258596712	0	0.33	3.43	1	137.38561497	137.389329479	"17"	505.056680182	492.654923763	1.5	0.1
0.01	1	0.00396975500001417	1	71	NA	144.258596712	0	0.33	3.43	1	137.61936037	137.623330125	"17"	505.056680182	492.654923763	1.5	0.1
0.01	1	0.00392090299999381	1	71	NA	144.258596712	0	0.33	3.43	1	137.85312732	137.857048223	"17"	505.056680182	492.654923763	1.5	0.1
0.01	1	0.00385495100005073	1	71	NA	144.258596712	0	0.33	3.43	1	138.08693491	138.090789861	"17"	505.056680182	492.654923763	1.5	0.1
0.01	1	0.00349380799997334	1	71	NA	144.258596712	0	0.33	3.43	1	138.320650767	138.324144575	"17"	505.056680182	492.654923763	1.5	0.1
0.01	1	0.00382223500002965	1	71	NA	144.258596712	0	0.33	3.43	1	138.554266392	138.558088627	"17"	505.056680182	492.654923763	1.5	0.1
0.01	1	0.00408577299998569	1	71	NA	144.258596712	0	0.33	3.43	1	138.788109222	138.792194995	"17"	505.056680182	492.654923763	1.5	0.1
0.01	1	0.00443311800000856	1	71	NA	144.258596712	0	0.33	3.43	1	139.021850704	139.026283822	"17"	505.056680182	492.654923763	1.5	0.1
0.01	1	0.00395390799997131	1	71	NA	144.258596712	0	0.33	3.43	1	139.255415605	139.259369513	"17"	505.056680182	492.654923763	1.5	0.1
0.01	1	0.00356558999999379	1	71	NA	144.258596712	0	0.33	3.43	1	139.489244447	139.492810037	"17"	505.056680182	492.654923763	1.5	0.1
0.01	1	0.00361425599999166	1	71	NA	144.258596712	0	0.33	3.43	1	139.722941505	139.726555761	"17"	505.056680182	492.654923763	1.5	0.1
0.01	1	0.00379239199997983	1	71	NA	144.258596712	0	0.33	3.43	1	139.956627267	139.960419659	"17"	505.056680182	492.654923763	1.5	0.1
0.01	1	0.00399892999996609	1	71	NA	144.258596712	0	0.33	3.43	1	140.190449595	140.194448525	"17"	505.056680182	492.654923763	1.5	0.1
0.01	1	0.00328524799999741	1	71	NA	144.258596712	0	0.33	3.43	1	140.424125063	140.427410311	"17"	505.056680182	492.654923763	1.5	0.1
0.01	1	0.00404704100003528	1	71	NA	144.258596712	0	0.33	3.43	1	140.657829582	140.661876623	"17"	505.056680182	492.654923763	1.5	0.1
0.01	1	0.00367069599997194	1	71	NA	144.258596712	0	0.33	3.43	1	140.891569565	140.895240261	"17"	505.056680182	492.654923763	1.5	0.1
0.01	1	0.00473761200004219	1	71	NA	144.258596712	0	0.33	3.43	1	141.12527483	141.130012442	"17"	505.056680182	492.654923763	1.5	0.1
0.01	1	0.00467382499999758	1	71	NA	144.258596712	0	0.33	3.43	1	141.35913676	141.363810585	"17"	505.056680182	492.654923763	1.5	0.1
0.01	1	0.00466279999994867	1	71	NA	144.258596712	0	0.33	3.43	1	141.592869585	141.597532385	"17"	505.056680182	492.654923763	1.5	0.1
0.01	1	0.00371148000004951	1	71	NA	144.258596712	0	0.33	3.43	1	141.826438755	141.830150235	"17"	505.056680182	492.654923763	1.5	0.1
0.01	1	0.00407230600001185	1	71	NA	144.258596712	0	0.33	3.43	1	142.060182587	142.064254893	"17"	505.056680182	492.654923763	1.5	0.1
0.01	1	0.00467798200003244	1	71	NA	144.258596712	0	0.33	3.43	1	142.294025445	142.298703427	"17"	505.056680182	492.654923763	1.5	0.1
0.01	1	0.00392416800002593	1	71	NA	144.258596712	0	0.33	3.43	1	142.527728375	142.531652543	"17"	505.056680182	492.654923763	1.5	0.1
0.01	1	0.00465425999999525	1	71	NA	144.258596712	0	0.33	3.43	1	142.761545865	142.766200125	"17"	505.056680182	492.654923763	1.5	0.1
0.01	1	0.00377317300001323	1	71	NA	144.258596712	0	0.33	3.43	1	142.99511182	142.998884993	"17"	505.056680182	492.654923763	1.5	0.1
0.01	1	0.00470461500003694	1	71	NA	144.258596712	0	0.33	3.43	1	143.228906335	143.23361095	"17"	505.056680182	492.654923763	1.5	0.1
0.01	1	0.00330090599999266	1	71	NA	144.258596712	0	0.33	3.43	1	143.462643627	143.465944533	"17"	505.056680182	492.654923763	1.5	0.1
0.01	1	0.00390361499995606	1	71	NA	144.258596712	0	0.33	3.43	1	143.69629765	143.700201265	"17"	505.056680182	492.654923763	1.5	0.1
0.01	1	0.00343463499996233	1	71	NA	144.258596712	0	0.33	3.43	1	143.93005791	143.933492545	"17"	505.056680182	492.654923763	1.5	0.1
0.01	1	0.0930333509999741	2	71	NA	144.258596712	0	0.33	3.43	1	144.163870825	144.256904176	"17"	505.056680182	492.654923763	1.5	0.1
0.01	1	0.549477695999997	1	96	NA	152.466067555	0	0.24	3.67	1	146.300719795	146.850197491	"18"	505.056680182	492.654923763	1.5	0.1
0.01	1	0.00367537500000026	1	96	NA	152.466067555	0	0.24	3.67	1	147.0852371	147.088912475	"18"	505.056680182	492.654923763	1.5	0.1
0.01	1	0.00385922899999969	1	96	NA	152.466067555	0	0.24	3.67	1	147.319132512	147.322991741	"18"	505.056680182	492.654923763	1.5	0.1
0.01	1	0.00476274699997248	1	96	NA	152.466067555	0	0.24	3.67	1	147.552864665	147.557627412	"18"	505.056680182	492.654923763	1.5	0.1
0.01	1	0.0036791460000245	1	96	NA	152.466067555	0	0.24	3.67	1	147.786509767	147.790188913	"18"	505.056680182	492.654923763	1.5	0.1
0.01	1	0.00404372899998862	1	96	NA	152.466067555	0	0.24	3.67	1	148.020161872	148.024205601	"18"	505.056680182	492.654923763	1.5	0.1
0.01	1	0.00398232899999584	1	96	NA	152.466067555	0	0.24	3.67	1	148.254030682	148.258013011	"18"	505.056680182	492.654923763	1.5	0.1
0.01	1	0.00452762300000131	1	96	NA	152.466067555	0	0.24	3.67	1	148.487700417	148.49222804	"18"	505.056680182	492.654923763	1.5	0.1
0.01	1	0.0040403250000054	1	96	NA	152.466067555	0	0.24	3.67	1	148.72151093	148.725551255	"18"	505.056680182	492.654923763	1.5	0.1
0.01	1	0.00384789299999966	1	96	NA	152.466067555	0	0.24	3.67	1	148.95508109	148.958928983	"18"	505.056680182	492.654923763	1.5	0.1
0.01	1	0.0042413610000267	1	96	NA	152.466067555	0	0.24	3.67	1	149.188862654	149.193104015	"18"	505.056680182	492.654923763	1.5	0.1
0.01	1	0.00436568300000317	1	96	NA	152.466067555	0	0.24	3.67	1	149.422576617	149.4269423	"18"	505.056680182	492.654923763	1.5	0.1
0.01	1	0.00388288199997078	1	96	NA	152.466067555	0	0.24	3.67	1	149.656404875	149.660287757	"18"	505.056680182	492.654923763	1.5	0.1
0.01	1	0.00468733200000315	1	96	NA	152.466067555	0	0.24	3.67	1	149.890121095	149.894808427	"18"	505.056680182	492.654923763	1.5	0.1
0.01	1	0.00386626800002432	1	96	NA	152.466067555	0	0.24	3.67	1	150.123777815	150.127644083	"18"	505.056680182	492.654923763	1.5	0.1
0.01	1	0.00385440799999515	1	96	NA	152.466067555	0	0.24	3.67	1	150.357472835	150.361327243	"18"	505.056680182	492.654923763	1.5	0.1
0.01	1	0.0037038240000129	1	96	NA	152.466067555	0	0.24	3.67	1	150.591216185	150.594920009	"18"	505.056680182	492.654923763	1.5	0.1
0.01	1	0.00336609400000043	1	96	NA	152.466067555	0	0.24	3.67	1	150.824928731	150.828294825	"18"	505.056680182	492.654923763	1.5	0.1
0.01	1	0.00462055499997405	1	96	NA	152.466067555	0	0.24	3.67	1	151.058641705	151.06326226	"18"	505.056680182	492.654923763	1.5	0.1
0.01	1	0.00396821900000077	1	96	NA	152.466067555	0	0.24	3.67	1	151.292391422	151.296359641	"18"	505.056680182	492.654923763	1.5	0.1
0.01	1	0.00385722600003646	1	96	NA	152.466067555	0	0.24	3.67	1	151.526213285	151.530070511	"18"	505.056680182	492.654923763	1.5	0.1
0.01	1	0.00442426000000751	1	96	NA	152.466067555	0	0.24	3.67	1	151.75981188	151.76423614	"18"	505.056680182	492.654923763	1.5	0.1
0.01	1	0.00395135900004107	1	96	NA	152.466067555	0	0.24	3.67	1	151.993555902	151.997507261	"18"	505.056680182	492.654923763	1.5	0.1
0.01	1	0.00362620099997457	1	96	NA	152.466067555	0	0.24	3.67	1	152.227316002	152.230942203	"18"	505.056680182	492.654923763	1.5	0.1
0.01	1	0.00343226800004004	2	96	NA	152.466067555	0	0.24	3.67	1	152.461042263	152.464474531	"18"	505.056680182	492.654923763	1.5	0.1
0.01	1	0.374930657999982	1	91	NA	157.940033299	0	0.13	3.8	1	154.5145553	154.889485958	"19"	505.056680182	492.654923763	1.5	0.1
0.01	1	0.00394575399997166	1	91	NA	157.940033299	0	0.13	3.8	1	155.115502567	155.119448321	"19"	505.056680182	492.654923763	1.5	0.1
0.01	1	0.00457914900005107	1	91	NA	157.940033299	0	0.13	3.8	1	155.349185178	155.353764327	"19"	505.056680182	492.654923763	1.5	0.1
0.01	1	0.00340018200000713	1	91	NA	157.940033299	0	0.13	3.8	1	155.582876771	155.586276953	"19"	505.056680182	492.654923763	1.5	0.1
0.01	1	0.00350575900000649	1	91	NA	157.940033299	0	0.13	3.8	1	155.81659492	155.820100679	"19"	505.056680182	492.654923763	1.5	0.1
0.01	1	0.0046530469999766	1	91	NA	157.940033299	0	0.13	3.8	1	156.0505139	156.055166947	"19"	505.056680182	492.654923763	1.5	0.1
0.01	1	0.0039271459999668	1	91	NA	157.940033299	0	0.13	3.8	1	156.284054335	156.287981481	"19"	505.056680182	492.654923763	1.5	0.1
0.01	1	0.00395664100000204	1	91	NA	157.940033299	0	0.13	3.8	1	156.517868772	156.521825413	"19"	505.056680182	492.654923763	1.5	0.1
0.01	1	0.00381550599996672	1	91	NA	157.940033299	0	0.13	3.8	1	156.751516835	156.755332341	"19"	505.056680182	492.654923763	1.5	0.1
0.01	1	0.00386278600001333	1	91	NA	157.940033299	0	0.13	3.8	1	156.985322007	156.989184793	"19"	505.056680182	492.654923763	1.5	0.1
0.01	1	0.00398841599997013	1	91	NA	157.940033299	0	0.13	3.8	1	157.219070385	157.223058801	"19"	505.056680182	492.654923763	1.5	0.1
0.01	1	0.00405578900000592	1	91	NA	157.940033299	0	0.13	3.8	1	157.452738574	157.456794363	"19"	505.056680182	492.654923763	1.5	0.1
0.01	1	0.00214815399999679	1	91	NA	157.940033299	0	0.13	3.8	1	157.686519693	157.688667847	"19"	505.056680182	492.654923763	1.5	0.1
0.01	1	0.0182990139999788	2	91	NA	157.940033299	0	0.13	3.8	1	157.920207043	157.938506057	"19"	505.056680182	492.654923763	1.5	0.1
0.01	1	0.290738250000004	1	5	161.328818107	NA	1	0	3.8	1	159.99032786	160.28106611	"20"	505.056680182	492.654923763	1.5	0.1
0.01	1	0.00472032199996875	1	5	161.328818107	NA	1	0	3.8	1	160.50795225	160.512672572	"20"	505.056680182	492.654923763	1.5	0.1
0.01	1	0.00469123199997057	1	5	161.328818107	NA	1	0	3.8	1	160.74161657	160.746307802	"20"	505.056680182	492.654923763	1.5	0.1
0.01	1	0.00352594499997849	1	5	161.328818107	NA	1	0	3.8	1	160.97535061	160.978876555	"20"	505.056680182	492.654923763	1.5	0.1
0.01	1	0.00395283300002802	1	5	161.328818107	NA	1	0	3.8	1	161.208999912	161.212952745	"20"	505.056680182	492.654923763	1.5	0.1
0.01	1	0.413942872999996	1	123	NA	167.571326159	0	0.15	3.95	1	163.36271967	163.776662543	"21"	505.056680182	492.654923763	1.5	0.1
0.01	1	0.00365855799998371	1	123	NA	167.571326159	0	0.15	3.95	1	164.013827035	164.017485593	"21"	505.056680182	492.654923763	1.5	0.1
0.01	1	0.00465632700002061	1	123	NA	167.571326159	0	0.15	3.95	1	164.247485435	164.252141762	"21"	505.056680182	492.654923763	1.5	0.1
0.01	1	0.00385580299996491	1	123	NA	167.571326159	0	0.15	3.95	1	164.481199762	164.485055565	"21"	505.056680182	492.654923763	1.5	0.1
0.01	1	0.00399182199998904	1	123	NA	167.571326159	0	0.15	3.95	1	164.714956847	164.718948669	"21"	505.056680182	492.654923763	1.5	0.1
0.01	1	0.00458557599995402	1	123	NA	167.571326159	0	0.15	3.95	1	164.948725791	164.953311367	"21"	505.056680182	492.654923763	1.5	0.1
0.01	1	0.00390649199999871	1	123	NA	167.571326159	0	0.15	3.95	1	165.182492015	165.186398507	"21"	505.056680182	492.654923763	1.5	0.1
0.01	1	0.00379301100002749	1	123	NA	167.571326159	0	0.15	3.95	1	165.416105422	165.419898433	"21"	505.056680182	492.654923763	1.5	0.1
0.01	1	0.003395802	1	123	NA	167.571326159	0	0.15	3.95	1	165.649946123	165.653341925	"21"	505.056680182	492.654923763	1.5	0.1
0.01	1	0.00387461000002531	1	123	NA	167.571326159	0	0.15	3.95	1	165.883662875	165.887537485	"21"	505.056680182	492.654923763	1.5	0.1
0.01	1	0.00473949700000276	1	123	NA	167.571326159	0	0.15	3.95	1	166.117294195	166.122033692	"21"	505.056680182	492.654923763	1.5	0.1
0.01	1	0.00465130700001737	1	123	NA	167.571326159	0	0.15	3.95	1	166.351136055	166.355787362	"21"	505.056680182	492.654923763	1.5	0.1
0.01	1	0.00391717100001188	1	123	NA	167.571326159	0	0.15	3.95	1	166.58486286	166.588780031	"21"	505.056680182	492.654923763	1.5	0.1
0.01	1	0.00466697499996371	1	123	NA	167.571326159	0	0.15	3.95	1	166.818539535	166.82320651	"21"	505.056680182	492.654923763	1.5	0.1
0.01	1	0.0037754520000135	1	123	NA	167.571326159	0	0.15	3.95	1	167.052169947	167.055945399	"21"	505.056680182	492.654923763	1.5	0.1
0.01	1	0.283671001000016	2	123	NA	167.571326159	0	0.15	3.95	1	167.285971895	167.569642896	"21"	505.056680182	492.654923763	1.5	0.1
0.01	1	0.386951553000017	1	81	NA	172.643214889	0	0.11	4.06	1	169.623263735	170.010215288	"22"	505.056680182	492.654923763	1.5	0.1
0.01	1	0.00400940800000171	1	81	NA	172.643214889	0	0.11	4.06	1	170.241006755	170.245016163	"22"	505.056680182	492.654923763	1.5	0.1
0.01	1	0.0033460820000073	1	81	NA	172.643214889	0	0.11	4.06	1	170.474613513	170.477959595	"22"	505.056680182	492.654923763	1.5	0.1
0.01	1	0.0039370329999997	1	81	NA	172.643214889	0	0.11	4.06	1	170.708324622	170.712261655	"22"	505.056680182	492.654923763	1.5	0.1
0.01	1	0.00360261500003389	1	81	NA	172.643214889	0	0.11	4.06	1	170.94215	170.945752615	"22"	505.056680182	492.654923763	1.5	0.1
0.01	1	0.00443527200002336	1	81	NA	172.643214889	0	0.11	4.06	1	171.175840403	171.180275675	"22"	505.056680182	492.654923763	1.5	0.1
0.01	1	0.00465244999998049	1	81	NA	172.643214889	0	0.11	4.06	1	171.409593965	171.414246415	"22"	505.056680182	492.654923763	1.5	0.1
0.01	1	0.00376483200000166	1	81	NA	172.643214889	0	0.11	4.06	1	171.643357715	171.647122547	"22"	505.056680182	492.654923763	1.5	0.1
0.01	1	0.00337419200002387	1	81	NA	172.643214889	0	0.11	4.06	1	171.876994521	171.880368713	"22"	505.056680182	492.654923763	1.5	0.1
0.01	1	0.00347415099997761	1	81	NA	172.643214889	0	0.11	4.06	1	172.110682592	172.114156743	"22"	505.056680182	492.654923763	1.5	0.1
0.01	1	0.00393281700002035	1	81	NA	172.643214889	0	0.11	4.06	1	172.34442643	172.348359247	"22"	505.056680182	492.654923763	1.5	0.1
0.01	1	0.0634657550000384	2	81	NA	172.643214889	0	0.11	4.06	1	172.578225215	172.64169097	"22"	505.056680182	492.654923763	1.5	0.1
0.01	1	0.55958311400002	1	117	NA	177.88293326	0	0.11	4.17	1	174.698421833	175.258004947	"23"	505.056680182	492.654923763	1.5	0.1
0.01	1	0.0046291069999711	1	117	NA	177.88293326	0	0.11	4.17	1	175.48309314	175.487722247	"23"	505.056680182	492.654923763	1.5	0.1
0.01	1	0.00382202400004417	1	117	NA	177.88293326	0	0.11	4.17	1	175.716793185	175.720615209	"23"	505.056680182	492.654923763	1.5	0.1
0.01	1	0.00338336600003686	1	117	NA	177.88293326	0	0.11	4.17	1	175.950487239	175.953870605	"23"	505.056680182	492.654923763	1.5	0.1
0.01	1	0.00377900399996633	1	117	NA	177.88293326	0	0.11	4.17	1	176.184219115	176.187998119	"23"	505.056680182	492.654923763	1.5	0.1
0.01	1	0.00399507299999868	1	117	NA	177.88293326	0	0.11	4.17	1	176.41796011	176.421955183	"23"	505.056680182	492.654923763	1.5	0.1
0.01	1	0.00471442499997465	1	117	NA	177.88293326	0	0.11	4.17	1	176.65167164	176.656386065	"23"	505.056680182	492.654923763	1.5	0.1
0.01	1	0.00399180899995599	1	117	NA	177.88293326	0	0.11	4.17	1	176.88552434	176.889516149	"23"	505.056680182	492.654923763	1.5	0.1
0.01	1	0.00374402099998861	1	117	NA	177.88293326	0	0.11	4.17	1	177.11911643	177.122860451	"23"	505.056680182	492.654923763	1.5	0.1
0.01	1	0.0044786619999968	1	117	NA	177.88293326	0	0.11	4.17	1	177.352870235	177.357348897	"23"	505.056680182	492.654923763	1.5	0.1
0.01	1	0.00394233899999108	1	117	NA	177.88293326	0	0.11	4.17	1	177.586664882	177.590607221	"23"	505.056680182	492.654923763	1.5	0.1
0.01	1	0.0609143930000187	2	117	NA	177.88293326	0	0.11	4.17	1	177.820374787	177.88128918	"23"	505.056680182	492.654923763	1.5	0.1
0.01	1	0.422062955000001	1	84	NA	182.684081535	0	0.1	4.27	1	179.92387503	180.345937985	"24"	505.056680182	492.654923763	1.5	0.1
0.01	1	0.00466920700000628	1	84	NA	182.684081535	0	0.1	4.27	1	180.57507818	180.579747387	"24"	505.056680182	492.654923763	1.5	0.1
0.01	1	0.00386339900001076	1	84	NA	182.684081535	0	0.1	4.27	1	180.808741542	180.812604941	"24"	505.056680182	492.654923763	1.5	0.1
0.01	1	0.00346679199998334	1	84	NA	182.684081535	0	0.1	4.27	1	181.042420455	181.045887247	"24"	505.056680182	492.654923763	1.5	0.1
0.01	1	0.00369934399998328	1	84	NA	182.684081535	0	0.1	4.27	1	181.276124695	181.279824039	"24"	505.056680182	492.654923763	1.5	0.1
0.01	1	0.00395451100001765	1	84	NA	182.684081535	0	0.1	4.27	1	181.509875712	181.513830223	"24"	505.056680182	492.654923763	1.5	0.1
0.01	1	0.00389561599996568	1	84	NA	182.684081535	0	0.1	4.27	1	181.743622447	181.747518063	"24"	505.056680182	492.654923763	1.5	0.1
0.01	1	0.00467238200002384	1	84	NA	182.684081535	0	0.1	4.27	1	181.97743274	181.982105122	"24"	505.056680182	492.654923763	1.5	0.1
0.01	1	0.00384545299999672	1	84	NA	182.684081535	0	0.1	4.27	1	182.211078422	182.214923875	"24"	505.056680182	492.654923763	1.5	0.1
0.01	1	0.00381263299999546	1	84	NA	182.684081535	0	0.1	4.27	1	182.44477914	182.448591773	"24"	505.056680182	492.654923763	1.5	0.1
0.01	1	0.00389420999999857	2	84	NA	182.684081535	0	0.1	4.27	1	182.678602117	182.682496327	"24"	505.056680182	492.654923763	1.5	0.1
0.01	1	0.310323491999952	1	22	NA	188.560775589	0	0.15	4.42	1	184.732017115	185.042340607	"25"	505.056680182	492.654923763	1.5	0.1
0.01	1	0.00401140999997551	1	22	NA	188.560775589	0	0.15	4.42	1	185.282877155	185.286888565	"25"	505.056680182	492.654923763	1.5	0.1
0.01	1	0.00403336699997681	1	22	NA	188.560775589	0	0.15	4.42	1	185.516599612	185.520632979	"25"	505.056680182	492.654923763	1.5	0.1
0.01	1	0.00381112399998074	1	22	NA	188.560775589	0	0.15	4.42	1	185.750361267	185.754172391	"25"	505.056680182	492.654923763	1.5	0.1
0.01	1	0.00353228900002023	1	22	NA	188.560775589	0	0.15	4.42	1	185.98411106	185.987643349	"25"	505.056680182	492.654923763	1.5	0.1
0.01	1	0.00357768300000316	1	22	NA	188.560775589	0	0.15	4.42	1	186.21782366	186.221401343	"25"	505.056680182	492.654923763	1.5	0.1
0.01	1	0.00400776200001474	1	22	NA	188.560775589	0	0.15	4.42	1	186.451508655	186.455516417	"25"	505.056680182	492.654923763	1.5	0.1
0.01	1	0.0038863009999659	1	22	NA	188.560775589	0	0.15	4.42	1	186.685137042	186.689023343	"25"	505.056680182	492.654923763	1.5	0.1
0.01	1	0.00402024300001358	1	22	NA	188.560775589	0	0.15	4.42	1	186.91890734	186.922927583	"25"	505.056680182	492.654923763	1.5	0.1
0.01	1	0.00360380999995868	1	22	NA	188.560775589	0	0.15	4.42	1	187.152698497	187.156302307	"25"	505.056680182	492.654923763	1.5	0.1
0.01	1	0.00388601599996719	1	22	NA	188.560775589	0	0.15	4.42	1	187.386446625	187.390332641	"25"	505.056680182	492.654923763	1.5	0.1
0.01	1	0.00459255500004474	1	22	NA	188.560775589	0	0.15	4.42	1	187.62024645	187.624839005	"25"	505.056680182	492.654923763	1.5	0.1
0.01	1	0.00374755999996523	1	22	NA	188.560775589	0	0.15	4.42	1	187.853890395	187.857637955	"25"	505.056680182	492.654923763	1.5	0.1
0.01	1	0.00343979499996294	1	22	NA	188.560775589	0	0.15	4.42	1	188.08762271	188.091062505	"25"	505.056680182	492.654923763	1.5	0.1
0.01	1	0.00224947899999961	1	22	NA	188.560775589	0	0.15	4.42	1	188.321351737	188.323601216	"25"	505.056680182	492.654923763	1.5	0.1
0.01	1	0.00388375099998939	2	22	NA	188.560775589	0	0.15	4.42	1	188.55507385	188.558957601	"25"	505.056680182	492.654923763	1.5	0.1
0.01	1	0.536730311999975	1	36	NA	194.90686518	0	0.16	4.58	1	190.591740462	191.128470774	"26"	505.056680182	492.654923763	1.5	0.1
0.01	1	0.00463269199997285	1	36	NA	194.90686518	0	0.16	4.58	1	191.35980858	191.364441272	"26"	505.056680182	492.654923763	1.5	0.1
0.01	1	0.00463352500003111	1	36	NA	194.90686518	0	0.16	4.58	1	191.593613695	191.59824722	"26"	505.056680182	492.654923763	1.5	0.1
0.01	1	0.00458737500002826	1	36	NA	194.90686518	0	0.16	4.58	1	191.827264047	191.831851422	"26"	505.056680182	492.654923763	1.5	0.1
0.01	1	0.00377820400001383	1	36	NA	194.90686518	0	0.16	4.58	1	192.060955895	192.064734099	"26"	505.056680182	492.654923763	1.5	0.1
0.01	1	0.00402102000003879	1	36	NA	194.90686518	0	0.16	4.58	1	192.294664465	192.298685485	"26"	505.056680182	492.654923763	1.5	0.1
0.01	1	0.0037272680000342	1	36	NA	194.90686518	0	0.16	4.58	1	192.528397645	192.532124913	"26"	505.056680182	492.654923763	1.5	0.1
0.01	1	0.00467919700002994	1	36	NA	194.90686518	0	0.16	4.58	1	192.762189345	192.766868542	"26"	505.056680182	492.654923763	1.5	0.1
0.01	1	0.00343440199998213	1	36	NA	194.90686518	0	0.16	4.58	1	192.995841787	192.999276189	"26"	505.056680182	492.654923763	1.5	0.1
0.01	1	0.00342887599998676	1	36	NA	194.90686518	0	0.16	4.58	1	193.229633387	193.233062263	"26"	505.056680182	492.654923763	1.5	0.1
0.01	1	0.00392915800000537	1	36	NA	194.90686518	0	0.16	4.58	1	193.463290867	193.467220025	"26"	505.056680182	492.654923763	1.5	0.1
0.01	1	0.00408866899999794	1	36	NA	194.90686518	0	0.16	4.58	1	193.697151322	193.701239991	"26"	505.056680182	492.654923763	1.5	0.1
0.01	1	0.00403251500000579	1	36	NA	194.90686518	0	0.16	4.58	1	193.93085984	193.934892355	"26"	505.056680182	492.654923763	1.5	0.1
0.01	1	0.00385432499996341	1	36	NA	194.90686518	0	0.16	4.58	1	194.164537832	194.168392157	"26"	505.056680182	492.654923763	1.5	0.1
0.01	1	0.00369660699999486	1	36	NA	194.90686518	0	0.16	4.58	1	194.398166972	194.401863579	"26"	505.056680182	492.654923763	1.5	0.1
0.01	1	0.00384787300004064	1	36	NA	194.90686518	0	0.16	4.58	1	194.63191735	194.635765223	"26"	505.056680182	492.654923763	1.5	0.1
0.01	1	0.0396114049999596	2	36	NA	194.90686518	0	0.16	4.58	1	194.865644685	194.90525609	"26"	505.056680182	492.654923763	1.5	0.1
0.01	1	0.401120466000009	1	124	NA	200.034864945	0	0.11	4.69	1	196.935735185	197.336855651	"27"	505.056680182	492.654923763	1.5	0.1
0.01	1	0.0038628830000107	1	124	NA	200.034864945	0	0.11	4.69	1	197.57018367	197.574046553	"27"	505.056680182	492.654923763	1.5	0.1
0.01	1	0.00375258600001871	1	124	NA	200.034864945	0	0.11	4.69	1	197.803919755	197.807672341	"27"	505.056680182	492.654923763	1.5	0.1
0.01	1	0.00336388799996712	1	124	NA	200.034864945	0	0.11	4.69	1	198.037668983	198.041032871	"27"	505.056680182	492.654923763	1.5	0.1
0.01	1	0.00367808499999001	1	124	NA	200.034864945	0	0.11	4.69	1	198.271388572	198.275066657	"27"	505.056680182	492.654923763	1.5	0.1
0.01	1	0.00455183000002535	1	124	NA	200.034864945	0	0.11	4.69	1	198.505197195	198.509749025	"27"	505.056680182	492.654923763	1.5	0.1
0.01	1	0.00382363900001792	1	124	NA	200.034864945	0	0.11	4.69	1	198.738831502	198.742655141	"27"	505.056680182	492.654923763	1.5	0.1
0.01	1	0.0047098449999794	1	124	NA	200.034864945	0	0.11	4.69	1	198.972612245	198.97732209	"27"	505.056680182	492.654923763	1.5	0.1
0.01	1	0.00349800099996855	1	124	NA	200.034864945	0	0.11	4.69	1	199.206278122	199.209776123	"27"	505.056680182	492.654923763	1.5	0.1
0.01	1	0.00359888499997396	1	124	NA	200.034864945	0	0.11	4.69	1	199.44002582	199.443624705	"27"	505.056680182	492.654923763	1.5	0.1
0.01	1	0.00378373699999202	1	124	NA	200.034864945	0	0.11	4.69	1	199.67375885	199.677542587	"27"	505.056680182	492.654923763	1.5	0.1
0.01	1	0.125732277999987	2	124	NA	200.034864945	0	0.11	4.69	1	199.907528905	200.033261183	"27"	505.056680182	492.654923763	1.5	0.1
0.01	1	0.332474565999973	1	13	NA	204.754825219	0	0.1	4.79	1	202.077824007	202.410298573	"28"	505.056680182	492.654923763	1.5	0.1
0.01	1	0.00397904599998355	1	13	NA	204.754825219	0	0.1	4.79	1	202.645415567	202.649394613	"28"	505.056680182	492.654923763	1.5	0.1
0.01	1	0.00408879000002571	1	13	NA	204.754825219	0	0.1	4.79	1	202.879142555	202.883231345	"28"	505.056680182	492.654923763	1.5	0.1
0.01	1	0.00377622799999244	1	13	NA	204.754825219	0	0.1	4.79	1	203.112928625	203.116704853	"28"	505.056680182	492.654923763	1.5	0.1
0.01	1	0.00462261500001659	1	13	NA	204.754825219	0	0.1	4.79	1	203.34664407	203.351266685	"28"	505.056680182	492.654923763	1.5	0.1
0.01	1	0.00378036000000748	1	13	NA	204.754825219	0	0.1	4.79	1	203.580328595	203.584108955	"28"	505.056680182	492.654923763	1.5	0.1
0.01	1	0.0039572339999836	1	13	NA	204.754825219	0	0.1	4.79	1	203.814019137	203.817976371	"28"	505.056680182	492.654923763	1.5	0.1
0.01	1	0.00395255000000816	1	13	NA	204.754825219	0	0.1	4.79	1	204.047709807	204.051662357	"28"	505.056680182	492.654923763	1.5	0.1
0.01	1	0.00397366099997498	1	13	NA	204.754825219	0	0.1	4.79	1	204.28154136	204.285515021	"28"	505.056680182	492.654923763	1.5	0.1
0.01	1	0.00384258299999374	1	13	NA	204.754825219	0	0.1	4.79	1	204.51523656	204.519079143	"28"	505.056680182	492.654923763	1.5	0.1
0.01	1	0.00405598800000462	2	13	NA	204.754825219	0	0.1	4.79	1	204.748895685	204.752951673	"28"	505.056680182	492.654923763	1.5	0.1
0.01	1	0.278980296999976	1	125	NA	209.662258069	0	0.11	4.9	1	206.80244914	207.081429437	"29"	505.056680182	492.654923763	1.5	0.1
0.01	1	0.00402091199998722	1	125	NA	209.662258069	0	0.11	4.9	1	207.319984165	207.324005077	"29"	505.056680182	492.654923763	1.5	0.1
0.01	1	0.00395496200002299	1	125	NA	209.662258069	0	0.11	4.9	1	207.553714955	207.557669917	"29"	505.056680182	492.654923763	1.5	0.1
0.01	1	0.00467708200000061	1	125	NA	209.662258069	0	0.11	4.9	1	207.787514745	207.792191827	"29"	505.056680182	492.654923763	1.5	0.1
0.01	1	0.00377273300000525	1	125	NA	209.662258069	0	0.11	4.9	1	208.02105322	208.024825953	"29"	505.056680182	492.654923763	1.5	0.1
0.01	1	0.00396726899998612	1	125	NA	209.662258069	0	0.11	4.9	1	208.254860742	208.258828011	"29"	505.056680182	492.654923763	1.5	0.1
0.01	1	0.00400679300003048	1	125	NA	209.662258069	0	0.11	4.9	1	208.48850893	208.492515723	"29"	505.056680182	492.654923763	1.5	0.1
0.01	1	0.00396866899995985	1	125	NA	209.662258069	0	0.11	4.9	1	208.72227313	208.726241799	"29"	505.056680182	492.654923763	1.5	0.1
0.01	1	0.00390205700000479	1	125	NA	209.662258069	0	0.11	4.9	1	208.956113942	208.960015999	"29"	505.056680182	492.654923763	1.5	0.1
0.01	1	0.00383227899999383	1	125	NA	209.662258069	0	0.11	4.9	1	209.189738922	209.193571201	"29"	505.056680182	492.654923763	1.5	0.1
0.01	1	0.00407648899999913	1	125	NA	209.662258069	0	0.11	4.9	1	209.423481252	209.427557741	"29"	505.056680182	492.654923763	1.5	0.1
0.01	1	0.00336201799996161	2	125	NA	209.662258069	0	0.11	4.9	1	209.657125043	209.660487061	"29"	505.056680182	492.654923763	1.5	0.1
0.01	1	0.514192728000012	1	105	NA	221.49885984	0	0.35	5.25	1	211.710668952	212.22486168	"30"	505.056680182	492.654923763	1.5	0.1
0.01	1	0.00403512000002593	1	105	NA	221.49885984	0	0.35	5.25	1	212.461984785	212.466019905	"30"	505.056680182	492.654923763	1.5	0.1
0.01	1	0.00375869299995202	1	105	NA	221.49885984	0	0.35	5.25	1	212.695618522	212.699377215	"30"	505.056680182	492.654923763	1.5	0.1
0.01	1	0.00433748800003286	1	105	NA	221.49885984	0	0.35	5.25	1	212.929419884	212.933757372	"30"	505.056680182	492.654923763	1.5	0.1
0.01	1	0.00464070999998967	1	105	NA	221.49885984	0	0.35	5.25	1	213.163149655	213.167790365	"30"	505.056680182	492.654923763	1.5	0.1
0.01	1	0.00410589299997355	1	105	NA	221.49885984	0	0.35	5.25	1	213.39680497	213.400910863	"30"	505.056680182	492.654923763	1.5	0.1
0.01	1	0.00437712199999396	1	105	NA	221.49885984	0	0.35	5.25	1	213.63053755	213.634914672	"30"	505.056680182	492.654923763	1.5	0.1
0.01	1	0.00391979800002673	1	105	NA	221.49885984	0	0.35	5.25	1	213.864353215	213.868273013	"30"	505.056680182	492.654923763	1.5	0.1
0.01	1	0.00374637699997038	1	105	NA	221.49885984	0	0.35	5.25	1	214.09808304	214.101829417	"30"	505.056680182	492.654923763	1.5	0.1
0.01	1	0.00374088499995651	1	105	NA	221.49885984	0	0.35	5.25	1	214.33169792	214.335438805	"30"	505.056680182	492.654923763	1.5	0.1
0.01	1	0.00414641999998366	1	105	NA	221.49885984	0	0.35	5.25	1	214.565573557	214.569719977	"30"	505.056680182	492.654923763	1.5	0.1
0.01	1	0.00405256400000553	1	105	NA	221.49885984	0	0.35	5.25	1	214.799243787	214.803296351	"30"	505.056680182	492.654923763	1.5	0.1
0.01	1	0.00451657500002511	1	105	NA	221.49885984	0	0.35	5.25	1	215.032942887	215.037459462	"30"	505.056680182	492.654923763	1.5	0.1
0.01	1	0.00408863500001644	1	105	NA	221.49885984	0	0.35	5.25	1	215.266781342	215.270869977	"30"	505.056680182	492.654923763	1.5	0.1
0.01	1	0.00327831000004153	1	105	NA	221.49885984	0	0.35	5.25	1	215.500282215	215.503560525	"30"	505.056680182	492.654923763	1.5	0.1
0.01	1	0.00395508299999392	1	105	NA	221.49885984	0	0.35	5.25	1	215.73408877	215.738043853	"30"	505.056680182	492.654923763	1.5	0.1
0.01	1	0.00399776000000429	1	105	NA	221.49885984	0	0.35	5.25	1	215.967845065	215.971842825	"30"	505.056680182	492.654923763	1.5	0.1
0.01	1	0.00410927700005459	1	105	NA	221.49885984	0	0.35	5.25	1	216.2015582	216.205667477	"30"	505.056680182	492.654923763	1.5	0.1
0.01	1	0.00344690000002856	1	105	NA	221.49885984	0	0.35	5.25	1	216.435290375	216.438737275	"30"	505.056680182	492.654923763	1.5	0.1
0.01	1	0.0035120609999808	1	105	NA	221.49885984	0	0.35	5.25	1	216.669008152	216.672520213	"30"	505.056680182	492.654923763	1.5	0.1
0.01	1	0.411280252999973	1	105	NA	221.49885984	0	0.35	5.25	1	216.902740552	217.314020805	"30"	505.056680182	492.654923763	1.5	0.1
0.01	1	0.648377444999994	1	105	NA	221.49885984	0	0.35	5.25	1	217.537114305	218.18549175	"30"	505.056680182	492.654923763	1.5	0.1
0.01	1	0.00389945300003092	1	105	NA	221.49885984	0	0.35	5.25	1	218.42198517	218.425884623	"30"	505.056680182	492.654923763	1.5	0.1
0.01	1	0.00386772000001656	1	105	NA	221.49885984	0	0.35	5.25	1	218.655722285	218.659590005	"30"	505.056680182	492.654923763	1.5	0.1
0.01	1	0.00224910699995462	1	105	NA	221.49885984	0	0.35	5.25	1	218.889451676	218.891700783	"30"	505.056680182	492.654923763	1.5	0.1
0.01	1	0.00332908000001453	1	105	NA	221.49885984	0	0.35	5.25	1	219.123138595	219.126467675	"30"	505.056680182	492.654923763	1.5	0.1
0.01	1	0.00409376499999325	1	105	NA	221.49885984	0	0.35	5.25	1	219.35684675	219.360940515	"30"	505.056680182	492.654923763	1.5	0.1
0.01	1	0.00388850799998863	1	105	NA	221.49885984	0	0.35	5.25	1	219.590600605	219.594489113	"30"	505.056680182	492.654923763	1.5	0.1
0.01	1	0.00397371100001465	1	105	NA	221.49885984	0	0.35	5.25	1	219.82432916	219.828302871	"30"	505.056680182	492.654923763	1.5	0.1
0.01	1	0.00389154700002337	1	105	NA	221.49885984	0	0.35	5.25	1	220.05801088	220.061902427	"30"	505.056680182	492.654923763	1.5	0.1
0.01	1	0.00365571599996883	1	105	NA	221.49885984	0	0.35	5.25	1	220.291669447	220.295325163	"30"	505.056680182	492.654923763	1.5	0.1
0.01	1	0.0047077489999765	1	105	NA	221.49885984	0	0.35	5.25	1	220.525585143	220.530292892	"30"	505.056680182	492.654923763	1.5	0.1
0.01	1	0.0039892920000284	1	105	NA	221.49885984	0	0.35	5.25	1	220.759252627	220.763241919	"30"	505.056680182	492.654923763	1.5	0.1
0.01	1	0.00398356099998409	1	105	NA	221.49885984	0	0.35	5.25	1	220.992912402	220.996895963	"30"	505.056680182	492.654923763	1.5	0.1
0.01	1	0.00460966499997539	1	105	NA	221.49885984	0	0.35	5.25	1	221.22674143	221.231351095	"30"	505.056680182	492.654923763	1.5	0.1
0.01	1	0.0367913769999859	2	105	NA	221.49885984	0	0.35	5.25	1	221.460355	221.497146377	"30"	505.056680182	492.654923763	1.5	0.1
