"payoff.level"	"balloon"	"rt"	"resp"	"explode.trial"	"explode.time"	"finish.time"	"exploded"	"trial.total"	"cumulative.total"	"finished"	"trial.start"	"trial.end"	"trial.num"	"secs"	"start.time"	"iti"	"isi"
0.01	1	4.14060111400067	1	64	NA	15.0651434459996	0	0.46	0.46	1	0.0102484219987673	4.15084953599944	"1"	14401.83013618	14365.852927213	1.5	0.1
0.01	1	0.00327425500108802	1	64	NA	15.0651434459996	0	0.46	0.46	1	4.45116746899839	4.45444172399948	"1"	14401.83013618	14365.852927213	1.5	0.1
0.01	1	0.00303332900148234	1	64	NA	15.0651434459996	0	0.46	0.46	1	4.68490704399846	4.68794037299995	"1"	14401.83013618	14365.852927213	1.5	0.1
0.01	1	0.00335661799908848	1	64	NA	15.0651434459996	0	0.46	0.46	1	4.91859848999957	4.92195510799866	"1"	14401.83013618	14365.852927213	1.5	0.1
0.01	1	0.00340332400082843	1	64	NA	15.0651434459996	0	0.46	0.46	1	5.15223772999889	5.15564105399972	"1"	14401.83013618	14365.852927213	1.5	0.1
0.01	1	0.00388355100039917	1	64	NA	15.0651434459996	0	0.46	0.46	1	5.38607916499859	5.38996271599899	"1"	14401.83013618	14365.852927213	1.5	0.1
0.01	1	0.00396855300095922	1	64	NA	15.0651434459996	0	0.46	0.46	1	5.61974191299851	5.62371046599947	"1"	14401.83013618	14365.852927213	1.5	0.1
0.01	1	0.00461302700023225	1	64	NA	15.0651434459996	0	0.46	0.46	1	5.85351249799896	5.8581255249992	"1"	14401.83013618	14365.852927213	1.5	0.1
0.01	1	0.00378386800002772	1	64	NA	15.0651434459996	0	0.46	0.46	1	6.08711373000006	6.09089759800008	"1"	14401.83013618	14365.852927213	1.5	0.1
0.01	1	0.00386418500056607	1	64	NA	15.0651434459996	0	0.46	0.46	1	6.32093509299921	6.32479927799977	"1"	14401.83013618	14365.852927213	1.5	0.1
0.01	1	0.00370356100029312	1	64	NA	15.0651434459996	0	0.46	0.46	1	6.55471234499964	6.55841590599994	"1"	14401.83013618	14365.852927213	1.5	0.1
0.01	1	0.00389940400054911	1	64	NA	15.0651434459996	0	0.46	0.46	1	6.78838062799878	6.79228003199933	"1"	14401.83013618	14365.852927213	1.5	0.1
0.01	1	0.00352953000037814	1	64	NA	15.0651434459996	0	0.46	0.46	1	7.02212929799862	7.025658827999	"1"	14401.83013618	14365.852927213	1.5	0.1
0.01	1	0.00368045499999425	1	64	NA	15.0651434459996	0	0.46	0.46	1	7.25586853499954	7.25954898999953	"1"	14401.83013618	14365.852927213	1.5	0.1
0.01	1	0.00391858300099557	1	64	NA	15.0651434459996	0	0.46	0.46	1	7.48957327299831	7.49349185599931	"1"	14401.83013618	14365.852927213	1.5	0.1
0.01	1	0.00336440399951243	1	64	NA	15.0651434459996	0	0.46	0.46	1	7.72332361799999	7.72668802199951	"1"	14401.83013618	14365.852927213	1.5	0.1
0.01	1	0.0046428850000666	1	64	NA	15.0651434459996	0	0.46	0.46	1	7.95700109299833	7.96164397799839	"1"	14401.83013618	14365.852927213	1.5	0.1
0.01	1	0.0033333359988319	1	64	NA	15.0651434459996	0	0.46	0.46	1	8.19067175599957	8.19400509199841	"1"	14401.83013618	14365.852927213	1.5	0.1
0.01	1	0.00410006799938856	1	64	NA	15.0651434459996	0	0.46	0.46	1	8.42443990799984	8.42853997599923	"1"	14401.83013618	14365.852927213	1.5	0.1
0.01	1	0.00374841300072148	1	64	NA	15.0651434459996	0	0.46	0.46	1	8.65816499499851	8.66191340799924	"1"	14401.83013618	14365.852927213	1.5	0.1
0.01	1	0.00394780699934927	1	64	NA	15.0651434459996	0	0.46	0.46	1	8.89196167299997	8.89590947999932	"1"	14401.83013618	14365.852927213	1.5	0.1
0.01	1	0.00403487699986727	1	64	NA	15.0651434459996	0	0.46	0.46	1	9.12559369299925	9.12962856999911	"1"	14401.83013618	14365.852927213	1.5	0.1
0.01	1	0.0036141629989288	1	64	NA	15.0651434459996	0	0.46	0.46	1	9.35930982299942	9.36292398599835	"1"	14401.83013618	14365.852927213	1.5	0.1
0.01	1	0.00427364000097441	1	64	NA	15.0651434459996	0	0.46	0.46	1	9.59306563299833	9.59733927299931	"1"	14401.83013618	14365.852927213	1.5	0.1
0.01	1	0.00402095400022517	1	64	NA	15.0651434459996	0	0.46	0.46	1	9.82685094999943	9.83087190399965	"1"	14401.83013618	14365.852927213	1.5	0.1
0.01	1	0.00405919700097002	1	64	NA	15.0651434459996	0	0.46	0.46	1	10.0605469829989	10.0646061799998	"1"	14401.83013618	14365.852927213	1.5	0.1
0.01	1	0.00356173900036083	1	64	NA	15.0651434459996	0	0.46	0.46	1	10.2942701129996	10.2978318519999	"1"	14401.83013618	14365.852927213	1.5	0.1
0.01	1	0.00376108299860789	1	64	NA	15.0651434459996	0	0.46	0.46	1	10.527929885	10.5316909679987	"1"	14401.83013618	14365.852927213	1.5	0.1
0.01	1	0.00399957000081486	1	64	NA	15.0651434459996	0	0.46	0.46	1	10.761711277999	10.7657108479998	"1"	14401.83013618	14365.852927213	1.5	0.1
0.01	1	0.00389015100154211	1	64	NA	15.0651434459996	0	0.46	0.46	1	10.9954924629983	10.9993826139998	"1"	14401.83013618	14365.852927213	1.5	0.1
0.01	1	0.00390335600059188	1	64	NA	15.0651434459996	0	0.46	0.46	1	11.2291885879986	11.2330919439992	"1"	14401.83013618	14365.852927213	1.5	0.1
0.01	1	0.00333648000014364	1	64	NA	15.0651434459996	0	0.46	0.46	1	11.4629630139989	11.466299493999	"1"	14401.83013618	14365.852927213	1.5	0.1
0.01	1	0.0038400930006901	1	64	NA	15.0651434459996	0	0.46	0.46	1	11.6966513929983	11.700491485999	"1"	14401.83013618	14365.852927213	1.5	0.1
0.01	1	0.0039168069997686	1	64	NA	15.0651434459996	0	0.46	0.46	1	11.9303738829985	11.9342906899983	"1"	14401.83013618	14365.852927213	1.5	0.1
0.01	1	0.00405015899923455	1	64	NA	15.0651434459996	0	0.46	0.46	1	12.1640635029999	12.1681136619991	"1"	14401.83013618	14365.852927213	1.5	0.1
0.01	1	0.00328513599924918	1	64	NA	15.0651434459996	0	0.46	0.46	1	12.3978156079993	12.4011007439985	"1"	14401.83013618	14365.852927213	1.5	0.1
0.01	1	0.00274683600036951	1	64	NA	15.0651434459996	0	0.46	0.46	1	12.6314223079989	12.6341691439993	"1"	14401.83013618	14365.852927213	1.5	0.1
0.01	1	0.00393705599890382	1	64	NA	15.0651434459996	0	0.46	0.46	1	12.8652373479999	12.8691744039988	"1"	14401.83013618	14365.852927213	1.5	0.1
0.01	1	0.00378246000036597	1	64	NA	15.0651434459996	0	0.46	0.46	1	13.0989792379987	13.1027616979991	"1"	14401.83013618	14365.852927213	1.5	0.1
0.01	1	0.00211168200075917	1	64	NA	15.0651434459996	0	0.46	0.46	1	13.3326158629989	13.3347275449996	"1"	14401.83013618	14365.852927213	1.5	0.1
0.01	1	0.00383586899988586	1	64	NA	15.0651434459996	0	0.46	0.46	1	13.5663716929994	13.5702075619993	"1"	14401.83013618	14365.852927213	1.5	0.1
0.01	1	0.00363088900121511	1	64	NA	15.0651434459996	0	0.46	0.46	1	13.8001817329987	13.8038126219999	"1"	14401.83013618	14365.852927213	1.5	0.1
0.01	1	0.00386617200092587	1	64	NA	15.0651434459996	0	0.46	0.46	1	14.0339166879985	14.0377828599994	"1"	14401.83013618	14365.852927213	1.5	0.1
0.01	1	0.00437784300083877	1	64	NA	15.0651434459996	0	0.46	0.46	1	14.2676575499991	14.2720353929999	"1"	14401.83013618	14365.852927213	1.5	0.1
0.01	1	0.00464215700048953	1	64	NA	15.0651434459996	0	0.46	0.46	1	14.5014308129994	14.5060729699999	"1"	14401.83013618	14365.852927213	1.5	0.1
0.01	1	0.0040602819990454	1	64	NA	15.0651434459996	0	0.46	0.46	1	14.7350930779994	14.7391533599985	"1"	14401.83013618	14365.852927213	1.5	0.1
0.01	1	0.0947430390006048	2	64	NA	15.0651434459996	0	0.46	0.46	1	14.9688316979991	15.0635747369997	"1"	14401.83013618	14365.852927213	1.5	0.1
0.01	1	0.0038874889996805	1	102	NA	26.8577269319994	0	0.4	0.86	1	17.1056923329998	17.1095798219994	"2"	14401.83013618	14365.852927213	1.5	0.1
0.01	1	0.00460547000147926	1	102	NA	26.8577269319994	0	0.4	0.86	1	17.3395391429985	17.344144613	"2"	14401.83013618	14365.852927213	1.5	0.1
0.01	1	0.00469593500019982	1	102	NA	26.8577269319994	0	0.4	0.86	1	17.5732133129986	17.5779092479988	"2"	14401.83013618	14365.852927213	1.5	0.1
0.01	1	0.00331126000128279	1	102	NA	26.8577269319994	0	0.4	0.86	1	17.8069689039985	17.8102801639998	"2"	14401.83013618	14365.852927213	1.5	0.1
0.01	1	0.00458962499942572	1	102	NA	26.8577269319994	0	0.4	0.86	1	18.0405809280001	18.0451705529995	"2"	14401.83013618	14365.852927213	1.5	0.1
0.01	1	0.00446827300038422	1	102	NA	26.8577269319994	0	0.4	0.86	1	18.2744797599989	18.2789480329993	"2"	14401.83013618	14365.852927213	1.5	0.1
0.01	1	0.00389871100014716	1	102	NA	26.8577269319994	0	0.4	0.86	1	18.5080285029999	18.511927214	"2"	14401.83013618	14365.852927213	1.5	0.1
0.01	1	0.00392974500027776	1	102	NA	26.8577269319994	0	0.4	0.86	1	18.7417352329994	18.7456649779997	"2"	14401.83013618	14365.852927213	1.5	0.1
0.01	1	0.00403235899830179	1	102	NA	26.8577269319994	0	0.4	0.86	1	18.9754727330001	18.9795050919984	"2"	14401.83013618	14365.852927213	1.5	0.1
0.01	1	0.00352875099997618	1	102	NA	26.8577269319994	0	0.4	0.86	1	19.2092029949999	19.2127317459999	"2"	14401.83013618	14365.852927213	1.5	0.1
0.01	1	0.00375678199998219	1	102	NA	26.8577269319994	0	0.4	0.86	1	19.4429920699986	19.4467488519986	"2"	14401.83013618	14365.852927213	1.5	0.1
0.01	1	0.00394585899994127	1	102	NA	26.8577269319994	0	0.4	0.86	1	19.6767356349992	19.6806814939991	"2"	14401.83013618	14365.852927213	1.5	0.1
0.01	1	0.0032808579999255	1	102	NA	26.8577269319994	0	0.4	0.86	1	19.9104497279986	19.9137305859986	"2"	14401.83013618	14365.852927213	1.5	0.1
0.01	1	0.00354329299989331	1	102	NA	26.8577269319994	0	0.4	0.86	1	20.1441558529987	20.1476991459986	"2"	14401.83013618	14365.852927213	1.5	0.1
0.01	1	0.00373811800091062	1	102	NA	26.8577269319994	0	0.4	0.86	1	20.3779274599983	20.3816655779992	"2"	14401.83013618	14365.852927213	1.5	0.1
0.01	1	0.00395873700108496	1	102	NA	26.8577269319994	0	0.4	0.86	1	20.6116353949983	20.6155941319994	"2"	14401.83013618	14365.852927213	1.5	0.1
0.01	1	0.00397984999835899	1	102	NA	26.8577269319994	0	0.4	0.86	1	20.84528159	20.8492614399984	"2"	14401.83013618	14365.852927213	1.5	0.1
0.01	1	0.00463410500015016	1	102	NA	26.8577269319994	0	0.4	0.86	1	21.0791060279989	21.0837401329991	"2"	14401.83013618	14365.852927213	1.5	0.1
0.01	1	0.00387197800046124	1	102	NA	26.8577269319994	0	0.4	0.86	1	21.3128221479983	21.3166941259988	"2"	14401.83013618	14365.852927213	1.5	0.1
0.01	1	0.0039696929998172	1	102	NA	26.8577269319994	0	0.4	0.86	1	21.5465132249992	21.550482917999	"2"	14401.83013618	14365.852927213	1.5	0.1
0.01	1	0.00388607400054752	1	102	NA	26.8577269319994	0	0.4	0.86	1	21.7801874379984	21.7840735119989	"2"	14401.83013618	14365.852927213	1.5	0.1
0.01	1	0.00212636600008409	1	102	NA	26.8577269319994	0	0.4	0.86	1	22.013913757999	22.0160401239991	"2"	14401.83013618	14365.852927213	1.5	0.1
0.01	1	0.00222389100053988	1	102	NA	26.8577269319994	0	0.4	0.86	1	22.2477294869987	22.2499533779992	"2"	14401.83013618	14365.852927213	1.5	0.1
0.01	1	0.00397392900049454	1	102	NA	26.8577269319994	0	0.4	0.86	1	22.4814251249991	22.4853990539996	"2"	14401.83013618	14365.852927213	1.5	0.1
0.01	1	0.00396631500007061	1	102	NA	26.8577269319994	0	0.4	0.86	1	22.7151904449984	22.7191567599984	"2"	14401.83013618	14365.852927213	1.5	0.1
0.01	1	0.00378978300068411	1	102	NA	26.8577269319994	0	0.4	0.86	1	22.9488709849993	22.952660768	"2"	14401.83013618	14365.852927213	1.5	0.1
0.01	1	0.00386399700073525	1	102	NA	26.8577269319994	0	0.4	0.86	1	23.1825769049992	23.186440902	"2"	14401.83013618	14365.852927213	1.5	0.1
0.01	1	0.00465844999962428	1	102	NA	26.8577269319994	0	0.4	0.86	1	23.4163706979998	23.4210291479994	"2"	14401.83013618	14365.852927213	1.5	0.1
0.01	1	0.00364357299986295	1	102	NA	26.8577269319994	0	0.4	0.86	1	23.6500108849996	23.6536544579994	"2"	14401.83013618	14365.852927213	1.5	0.1
0.01	1	0.00398281900015718	1	102	NA	26.8577269319994	0	0.4	0.86	1	23.8838646229997	23.8878474419998	"2"	14401.83013618	14365.852927213	1.5	0.1
0.01	1	0.00468093999916164	1	102	NA	26.8577269319994	0	0.4	0.86	1	24.1176933829993	24.1223743229984	"2"	14401.83013618	14365.852927213	1.5	0.1
0.01	1	0.00401396000052046	1	102	NA	26.8577269319994	0	0.4	0.86	1	24.3512067699994	24.3552207299999	"2"	14401.83013618	14365.852927213	1.5	0.1
0.01	1	0.00386122500094643	1	102	NA	26.8577269319994	0	0.4	0.86	1	24.5848883949984	24.5887496199994	"2"	14401.83013618	14365.852927213	1.5	0.1
0.01	1	0.00405895900075848	1	102	NA	26.8577269319994	0	0.4	0.86	1	24.8186754129983	24.8227343719991	"2"	14401.83013618	14365.852927213	1.5	0.1
0.01	1	0.0039806229997339	1	102	NA	26.8577269319994	0	0.4	0.86	1	25.0523808629987	25.0563614859984	"2"	14401.83013618	14365.852927213	1.5	0.1
0.01	1	0.00393943099879834	1	102	NA	26.8577269319994	0	0.4	0.86	1	25.2861413049995	25.2900807359983	"2"	14401.83013618	14365.852927213	1.5	0.1
0.01	1	0.00338144800116424	1	102	NA	26.8577269319994	0	0.4	0.86	1	25.5198188759987	25.5232003239998	"2"	14401.83013618	14365.852927213	1.5	0.1
0.01	1	0.00383350900119694	1	102	NA	26.8577269319994	0	0.4	0.86	1	25.7535987349984	25.7574322439996	"2"	14401.83013618	14365.852927213	1.5	0.1
0.01	1	0.00435207400005311	1	102	NA	26.8577269319994	0	0.4	0.86	1	25.9872945139996	25.9916465879996	"2"	14401.83013618	14365.852927213	1.5	0.1
0.01	1	0.00361245299973234	1	102	NA	26.8577269319994	0	0.4	0.86	1	26.2210006629994	26.2246131159991	"2"	14401.83013618	14365.852927213	1.5	0.1
0.01	1	0.401342663999458	2	102	NA	26.8577269319994	0	0.4	0.86	1	26.4548128229999	26.8561554869993	"2"	14401.83013618	14365.852927213	1.5	0.1
0.01	1	0.0039785729986761	1	97	NA	39.544205537999	0	0.44	1.3	1	28.8922370729997	28.8962156459984	"3"	14401.83013618	14365.852927213	1.5	0.1
0.01	1	0.00384644099904108	1	97	NA	39.544205537999	0	0.44	1.3	1	29.1259380949996	29.1297845359986	"3"	14401.83013618	14365.852927213	1.5	0.1
0.01	1	0.00352521300010267	1	97	NA	39.544205537999	0	0.44	1.3	1	29.3596771749999	29.363202388	"3"	14401.83013618	14365.852927213	1.5	0.1
0.01	1	0.00382402399918647	1	97	NA	39.544205537999	0	0.44	1.3	1	29.5935360179992	29.5973600419984	"3"	14401.83013618	14365.852927213	1.5	0.1
0.01	1	0.00370844800090708	1	97	NA	39.544205537999	0	0.44	1.3	1	29.8271351299991	29.830843578	"3"	14401.83013618	14365.852927213	1.5	0.1
0.01	1	0.003565848001017	1	97	NA	39.544205537999	0	0.44	1.3	1	30.0608187179987	30.0643845659997	"3"	14401.83013618	14365.852927213	1.5	0.1
0.01	1	0.00375670699941111	1	97	NA	39.544205537999	0	0.44	1.3	1	30.2945485849996	30.298305291999	"3"	14401.83013618	14365.852927213	1.5	0.1
0.01	1	0.00403739600005792	1	97	NA	39.544205537999	0	0.44	1.3	1	30.5282552899989	30.532292685999	"3"	14401.83013618	14365.852927213	1.5	0.1
0.01	1	0.00385260700022627	1	97	NA	39.544205537999	0	0.44	1.3	1	30.761998472999	30.7658510799993	"3"	14401.83013618	14365.852927213	1.5	0.1
0.01	1	0.00376219499958097	1	97	NA	39.544205537999	0	0.44	1.3	1	30.995696213	30.9994584079996	"3"	14401.83013618	14365.852927213	1.5	0.1
0.01	1	0.00382417299988447	1	97	NA	39.544205537999	0	0.44	1.3	1	31.2293976029996	31.2332217759995	"3"	14401.83013618	14365.852927213	1.5	0.1
0.01	1	0.00386702499963576	1	97	NA	39.544205537999	0	0.44	1.3	1	31.4632266549997	31.4670936799994	"3"	14401.83013618	14365.852927213	1.5	0.1
0.01	1	0.00376143699941167	1	97	NA	39.544205537999	0	0.44	1.3	1	31.6969431729995	31.7007046099989	"3"	14401.83013618	14365.852927213	1.5	0.1
0.01	1	0.00446479699894553	1	97	NA	39.544205537999	0	0.44	1.3	1	31.9306060859999	31.9350708829988	"3"	14401.83013618	14365.852927213	1.5	0.1
0.01	1	0.00396109000030265	1	97	NA	39.544205537999	0	0.44	1.3	1	32.1644277299984	32.1683888199987	"3"	14401.83013618	14365.852927213	1.5	0.1
0.01	1	0.00353109600109747	1	97	NA	39.544205537999	0	0.44	1.3	1	32.398154307999	32.4016854040001	"3"	14401.83013618	14365.852927213	1.5	0.1
0.01	1	0.00367759299842874	1	97	NA	39.544205537999	0	0.44	1.3	1	32.6318953549999	32.6355729479983	"3"	14401.83013618	14365.852927213	1.5	0.1
0.01	1	0.00402201099859667	1	97	NA	39.544205537999	0	0.44	1.3	1	32.865588875	32.8696108859986	"3"	14401.83013618	14365.852927213	1.5	0.1
0.01	1	0.00373450400002184	1	97	NA	39.544205537999	0	0.44	1.3	1	33.0991838779992	33.1029183819992	"3"	14401.83013618	14365.852927213	1.5	0.1
0.01	1	0.00403529200048069	1	97	NA	39.544205537999	0	0.44	1.3	1	33.3330459599983	33.3370812519988	"3"	14401.83013618	14365.852927213	1.5	0.1
0.01	1	0.00392418199953681	1	97	NA	39.544205537999	0	0.44	1.3	1	33.5667469279997	33.5706711099992	"3"	14401.83013618	14365.852927213	1.5	0.1
0.01	1	0.0037666199987143	1	97	NA	39.544205537999	0	0.44	1.3	1	33.8004341579999	33.8042007779986	"3"	14401.83013618	14365.852927213	1.5	0.1
0.01	1	0.00464008500057389	1	97	NA	39.544205537999	0	0.44	1.3	1	34.0342800129984	34.0389200979989	"3"	14401.83013618	14365.852927213	1.5	0.1
0.01	1	0.00463297000169405	1	97	NA	39.544205537999	0	0.44	1.3	1	34.2678746779984	34.2725076480001	"3"	14401.83013618	14365.852927213	1.5	0.1
0.01	1	0.00459688000046299	1	97	NA	39.544205537999	0	0.44	1.3	1	34.5016668629996	34.5062637430001	"3"	14401.83013618	14365.852927213	1.5	0.1
0.01	1	0.00465256700044847	1	97	NA	39.544205537999	0	0.44	1.3	1	34.7354401229986	34.7400926899991	"3"	14401.83013618	14365.852927213	1.5	0.1
0.01	1	0.00417304199982027	1	97	NA	39.544205537999	0	0.44	1.3	1	34.9692212829996	34.9733943249994	"3"	14401.83013618	14365.852927213	1.5	0.1
0.01	1	0.00380107599994517	1	97	NA	39.544205537999	0	0.44	1.3	1	35.2027743179988	35.2065753939987	"3"	14401.83013618	14365.852927213	1.5	0.1
0.01	1	0.00386696500027028	1	97	NA	39.544205537999	0	0.44	1.3	1	35.4365571629987	35.440424127999	"3"	14401.83013618	14365.852927213	1.5	0.1
0.01	1	0.00386243000139075	1	97	NA	39.544205537999	0	0.44	1.3	1	35.6702258279984	35.6740882579998	"3"	14401.83013618	14365.852927213	1.5	0.1
0.01	1	0.00365022500045598	1	97	NA	39.544205537999	0	0.44	1.3	1	35.9039028829993	35.9075531079998	"3"	14401.83013618	14365.852927213	1.5	0.1
0.01	1	0.00386442099988926	1	97	NA	39.544205537999	0	0.44	1.3	1	36.1376648549995	36.1415292759993	"3"	14401.83013618	14365.852927213	1.5	0.1
0.01	1	0.00423864799995499	1	97	NA	39.544205537999	0	0.44	1.3	1	36.3714857569994	36.3757244049993	"3"	14401.83013618	14365.852927213	1.5	0.1
0.01	1	0.00392907600144099	1	97	NA	39.544205537999	0	0.44	1.3	1	36.6051069279983	36.6090360039998	"3"	14401.83013618	14365.852927213	1.5	0.1
0.01	1	0.00349083299988706	1	97	NA	39.544205537999	0	0.44	1.3	1	36.8389132749999	36.8424041079998	"3"	14401.83013618	14365.852927213	1.5	0.1
0.01	1	0.0038880230003997	1	97	NA	39.544205537999	0	0.44	1.3	1	37.0725874049986	37.076475427999	"3"	14401.83013618	14365.852927213	1.5	0.1
0.01	1	0.00381259499954467	1	97	NA	39.544205537999	0	0.44	1.3	1	37.3063836929996	37.3101962879991	"3"	14401.83013618	14365.852927213	1.5	0.1
0.01	1	0.00402579000001424	1	97	NA	39.544205537999	0	0.44	1.3	1	37.5401059699998	37.5441317599998	"3"	14401.83013618	14365.852927213	1.5	0.1
0.01	1	0.00468286500108661	1	97	NA	39.544205537999	0	0.44	1.3	1	37.7738293779985	37.7785122429996	"3"	14401.83013618	14365.852927213	1.5	0.1
0.01	1	0.00349217300026794	1	97	NA	39.544205537999	0	0.44	1.3	1	38.0075234629985	38.0110156359988	"3"	14401.83013618	14365.852927213	1.5	0.1
0.01	1	0.00378756299869565	1	97	NA	39.544205537999	0	0.44	1.3	1	38.2412763949997	38.2450639579984	"3"	14401.83013618	14365.852927213	1.5	0.1
0.01	1	0.00393493699993996	1	97	NA	39.544205537999	0	0.44	1.3	1	38.4750653529991	38.479000289999	"3"	14401.83013618	14365.852927213	1.5	0.1
0.01	1	0.00464572999953816	1	97	NA	39.544205537999	0	0.44	1.3	1	38.7086587829999	38.7133045129995	"3"	14401.83013618	14365.852927213	1.5	0.1
0.01	1	0.00380394000058004	1	97	NA	39.544205537999	0	0.44	1.3	1	38.9424548279985	38.9462587679991	"3"	14401.83013618	14365.852927213	1.5	0.1
0.01	1	0.366497769999114	2	97	NA	39.544205537999	0	0.44	1.3	1	39.17610977	39.5426075399992	"3"	14401.83013618	14365.852927213	1.5	0.1
0.01	1	0.178256668999893	1	51	NA	53.6332890429985	0	0.49	1.79	1	41.5968254129984	41.7750820819983	"4"	14401.83013618	14365.852927213	1.5	0.1
0.01	1	0.00397894700108736	1	51	NA	53.6332890429985	0	0.49	1.79	1	42.014221604999	42.0182005520001	"4"	14401.83013618	14365.852927213	1.5	0.1
0.01	1	0.00374150200150325	1	51	NA	53.6332890429985	0	0.49	1.79	1	42.2479713099983	42.2517128119998	"4"	14401.83013618	14365.852927213	1.5	0.1
0.01	1	0.00465387999975064	1	51	NA	53.6332890429985	0	0.49	1.79	1	42.4818237379986	42.4864776179984	"4"	14401.83013618	14365.852927213	1.5	0.1
0.01	1	0.00461826500031748	1	51	NA	53.6332890429985	0	0.49	1.79	1	42.7155001329993	42.7201183979996	"4"	14401.83013618	14365.852927213	1.5	0.1
0.01	1	0.00380754599973443	1	51	NA	53.6332890429985	0	0.49	1.79	1	42.9492138779988	42.9530214239985	"4"	14401.83013618	14365.852927213	1.5	0.1
0.01	1	0.00463605199911399	1	51	NA	53.6332890429985	0	0.49	1.79	1	43.1829277779998	43.1875638299989	"4"	14401.83013618	14365.852927213	1.5	0.1
0.01	1	0.004614434999894	1	51	NA	53.6332890429985	0	0.49	1.79	1	43.416644338	43.4212587729999	"4"	14401.83013618	14365.852927213	1.5	0.1
0.01	1	0.00466142699951888	1	51	NA	53.6332890429985	0	0.49	1.79	1	43.6503040879998	43.6549655149993	"4"	14401.83013618	14365.852927213	1.5	0.1
0.01	1	0.00349598699904163	1	51	NA	53.6332890429985	0	0.49	1.79	1	43.8840319129995	43.8875278999985	"4"	14401.83013618	14365.852927213	1.5	0.1
0.01	1	0.00351530800071487	1	51	NA	53.6332890429985	0	0.49	1.79	1	44.1177458699985	44.1212611779993	"4"	14401.83013618	14365.852927213	1.5	0.1
0.01	1	0.00405886099906638	1	51	NA	53.6332890429985	0	0.49	1.79	1	44.351647423	44.3557062839991	"4"	14401.83013618	14365.852927213	1.5	0.1
0.01	1	0.00387712699921394	1	51	NA	53.6332890429985	0	0.49	1.79	1	44.5852360829995	44.5891132099987	"4"	14401.83013618	14365.852927213	1.5	0.1
0.01	1	0.00330092000149307	1	51	NA	53.6332890429985	0	0.49	1.79	1	44.8189124659984	44.8222133859999	"4"	14401.83013618	14365.852927213	1.5	0.1
0.01	1	0.00360436399932951	1	51	NA	53.6332890429985	0	0.49	1.79	1	45.0526472080001	45.0562515719994	"4"	14401.83013618	14365.852927213	1.5	0.1
0.01	1	0.00403091200132621	1	51	NA	53.6332890429985	0	0.49	1.79	1	45.2864287879984	45.2904596999997	"4"	14401.83013618	14365.852927213	1.5	0.1
0.01	1	0.00386768200041843	1	51	NA	53.6332890429985	0	0.49	1.79	1	45.520168097999	45.5240357799994	"4"	14401.83013618	14365.852927213	1.5	0.1
0.01	1	0.0046539249997295	1	51	NA	53.6332890429985	0	0.49	1.79	1	45.7539208879989	45.7585748129986	"4"	14401.83013618	14365.852927213	1.5	0.1
0.01	1	0.00391932099955739	1	51	NA	53.6332890429985	0	0.49	1.79	1	45.9876845229992	45.9916038439987	"4"	14401.83013618	14365.852927213	1.5	0.1
0.01	1	0.00327950999962923	1	51	NA	53.6332890429985	0	0.49	1.79	1	46.221294003999	46.2245735139986	"4"	14401.83013618	14365.852927213	1.5	0.1
0.01	1	0.00384185599978082	1	51	NA	53.6332890429985	0	0.49	1.79	1	46.4550373279999	46.4588791839997	"4"	14401.83013618	14365.852927213	1.5	0.1
0.01	1	0.00380866600062291	1	51	NA	53.6332890429985	0	0.49	1.79	1	46.6888259779989	46.6926346439996	"4"	14401.83013618	14365.852927213	1.5	0.1
0.01	1	0.00442517900046369	1	51	NA	53.6332890429985	0	0.49	1.79	1	46.9226122459986	46.9270374249991	"4"	14401.83013618	14365.852927213	1.5	0.1
0.01	1	0.00395731299977342	1	51	NA	53.6332890429985	0	0.49	1.79	1	47.1562445829986	47.1602018959984	"4"	14401.83013618	14365.852927213	1.5	0.1
0.01	1	0.00380081600087578	1	51	NA	53.6332890429985	0	0.49	1.79	1	47.3899281479989	47.3937289639998	"4"	14401.83013618	14365.852927213	1.5	0.1
0.01	1	0.00398763200064423	1	51	NA	53.6332890429985	0	0.49	1.79	1	47.6237610979988	47.6277487299994	"4"	14401.83013618	14365.852927213	1.5	0.1
0.01	1	0.0039775670011295	1	51	NA	53.6332890429985	0	0.49	1.79	1	47.8573726549985	47.8613502219996	"4"	14401.83013618	14365.852927213	1.5	0.1
0.01	1	0.00389343300048495	1	51	NA	53.6332890429985	0	0.49	1.79	1	48.091236844999	48.0951302779995	"4"	14401.83013618	14365.852927213	1.5	0.1
0.01	1	0.00469492699994589	1	51	NA	53.6332890429985	0	0.49	1.79	1	48.3248591479987	48.3295540749987	"4"	14401.83013618	14365.852927213	1.5	0.1
0.01	1	0.00392918000034115	1	51	NA	53.6332890429985	0	0.49	1.79	1	48.5586552779987	48.562584457999	"4"	14401.83013618	14365.852927213	1.5	0.1
0.01	1	0.00399699400077225	1	51	NA	53.6332890429985	0	0.49	1.79	1	48.7923008299986	48.7962978239993	"4"	14401.83013618	14365.852927213	1.5	0.1
0.01	1	0.00326135000068462	1	51	NA	53.6332890429985	0	0.49	1.79	1	49.026100957999	49.0293623079997	"4"	14401.83013618	14365.852927213	1.5	0.1
0.01	1	0.00324553000064043	1	51	NA	53.6332890429985	0	0.49	1.79	1	49.2598235079986	49.2630690379992	"4"	14401.83013618	14365.852927213	1.5	0.1
0.01	1	0.00355133300035959	1	51	NA	53.6332890429985	0	0.49	1.79	1	49.4935539149992	49.4971052479996	"4"	14401.83013618	14365.852927213	1.5	0.1
0.01	1	0.00392240299879631	1	51	NA	53.6332890429985	0	0.49	1.79	1	49.7272305549996	49.7311529579983	"4"	14401.83013618	14365.852927213	1.5	0.1
0.01	1	0.00379961600083334	1	51	NA	53.6332890429985	0	0.49	1.79	1	49.9610307179992	49.964830334	"4"	14401.83013618	14365.852927213	1.5	0.1
0.01	1	0.00385977099904267	1	51	NA	53.6332890429985	0	0.49	1.79	1	50.1947368229994	50.1985965939984	"4"	14401.83013618	14365.852927213	1.5	0.1
0.01	1	0.00352005400054622	1	51	NA	53.6332890429985	0	0.49	1.79	1	50.4284740779985	50.4319941319991	"4"	14401.83013618	14365.852927213	1.5	0.1
0.01	1	0.00350537300073483	1	51	NA	53.6332890429985	0	0.49	1.79	1	50.6622058929988	50.6657112659996	"4"	14401.83013618	14365.852927213	1.5	0.1
0.01	1	0.00394225299896789	1	51	NA	53.6332890429985	0	0.49	1.79	1	50.8958069529999	50.8997492059989	"4"	14401.83013618	14365.852927213	1.5	0.1
0.01	1	0.00389441100014665	1	51	NA	53.6332890429985	0	0.49	1.79	1	51.129533592999	51.1334280039991	"4"	14401.83013618	14365.852927213	1.5	0.1
0.01	1	0.00383269600024505	1	51	NA	53.6332890429985	0	0.49	1.79	1	51.3633555899996	51.3671882859999	"4"	14401.83013618	14365.852927213	1.5	0.1
0.01	1	0.00392704300065816	1	51	NA	53.6332890429985	0	0.49	1.79	1	51.5970463649992	51.6009734079998	"4"	14401.83013618	14365.852927213	1.5	0.1
0.01	1	0.00367239600018365	1	51	NA	53.6332890429985	0	0.49	1.79	1	51.8307428399985	51.8344152359987	"4"	14401.83013618	14365.852927213	1.5	0.1
0.01	1	0.00392928699875483	1	51	NA	53.6332890429985	0	0.49	1.79	1	52.064558475	52.0684877619988	"4"	14401.83013618	14365.852927213	1.5	0.1
0.01	1	0.00401140500071051	1	51	NA	53.6332890429985	0	0.49	1.79	1	52.2981699529992	52.3021813579999	"4"	14401.83013618	14365.852927213	1.5	0.1
0.01	1	0.00311862799935625	1	51	NA	53.6332890429985	0	0.49	1.79	1	52.5319629799997	52.535081607999	"4"	14401.83013618	14365.852927213	1.5	0.1
0.01	1	0.00206917300056375	1	51	NA	53.6332890429985	0	0.49	1.79	1	52.7656861879987	52.7677553609992	"4"	14401.83013618	14365.852927213	1.5	0.1
0.01	1	0.0040111540001817	1	51	NA	53.6332890429985	0	0.49	1.79	1	52.9994276479993	53.0034388019994	"4"	14401.83013618	14365.852927213	1.5	0.1
0.01	1	0.398479869001676	2	51	NA	53.6332890429985	0	0.49	1.79	1	53.2331222509983	53.63160212	"4"	14401.83013618	14365.852927213	1.5	0.1
0.01	1	0.215881987998728	1	116	NA	62.5039292279998	0	0.27	2.06	1	55.6871611480001	55.9030431359988	"5"	14401.83013618	14365.852927213	1.5	0.1
0.01	1	0.00461273200016876	1	116	NA	62.5039292279998	0	0.27	2.06	1	56.1379622129989	56.1425749449991	"5"	14401.83013618	14365.852927213	1.5	0.1
0.01	1	0.0043918390001636	1	116	NA	62.5039292279998	0	0.27	2.06	1	56.3717129839988	56.376104822999	"5"	14401.83013618	14365.852927213	1.5	0.1
0.01	1	0.00380670000049577	1	116	NA	62.5039292279998	0	0.27	2.06	1	56.6055509499984	56.6093576499989	"5"	14401.83013618	14365.852927213	1.5	0.1
0.01	1	0.00361899100062146	1	116	NA	62.5039292279998	0	0.27	2.06	1	56.839137302999	56.8427562939996	"5"	14401.83013618	14365.852927213	1.5	0.1
0.01	1	0.00435862599988468	1	116	NA	62.5039292279998	0	0.27	2.06	1	57.0729055739994	57.0772641999993	"5"	14401.83013618	14365.852927213	1.5	0.1
0.01	1	0.00375519099907251	1	116	NA	62.5039292279998	0	0.27	2.06	1	57.3066311149996	57.3103863059987	"5"	14401.83013618	14365.852927213	1.5	0.1
0.01	1	0.00384690099963336	1	116	NA	62.5039292279998	0	0.27	2.06	1	57.5402846249999	57.5441315259995	"5"	14401.83013618	14365.852927213	1.5	0.1
0.01	1	0.00405033999959414	1	116	NA	62.5039292279998	0	0.27	2.06	1	57.7740719079993	57.7781222479989	"5"	14401.83013618	14365.852927213	1.5	0.1
0.01	1	0.00462737700036087	1	116	NA	62.5039292279998	0	0.27	2.06	1	58.0078216329985	58.0124490099988	"5"	14401.83013618	14365.852927213	1.5	0.1
0.01	1	0.00376844999846071	1	116	NA	62.5039292279998	0	0.27	2.06	1	58.24151738	58.2452858299985	"5"	14401.83013618	14365.852927213	1.5	0.1
0.01	1	0.00401643899931514	1	116	NA	62.5039292279998	0	0.27	2.06	1	58.475212325	58.4792287639993	"5"	14401.83013618	14365.852927213	1.5	0.1
0.01	1	0.0044259249989409	1	116	NA	62.5039292279998	0	0.27	2.06	1	58.7090970099998	58.7135229349988	"5"	14401.83013618	14365.852927213	1.5	0.1
0.01	1	0.00388059400029306	1	116	NA	62.5039292279998	0	0.27	2.06	1	58.9428110579993	58.9466916519996	"5"	14401.83013618	14365.852927213	1.5	0.1
0.01	1	0.00460431200008315	1	116	NA	62.5039292279998	0	0.27	2.06	1	59.1764899029986	59.1810942149987	"5"	14401.83013618	14365.852927213	1.5	0.1
0.01	1	0.00378462799926638	1	116	NA	62.5039292279998	0	0.27	2.06	1	59.4102230499993	59.4140076779986	"5"	14401.83013618	14365.852927213	1.5	0.1
0.01	1	0.00390980100019078	1	116	NA	62.5039292279998	0	0.27	2.06	1	59.6439577129986	59.6478675139988	"5"	14401.83013618	14365.852927213	1.5	0.1
0.01	1	0.00401168699863774	1	116	NA	62.5039292279998	0	0.27	2.06	1	59.8776523329998	59.8816640199984	"5"	14401.83013618	14365.852927213	1.5	0.1
0.01	1	0.00354459799928009	1	116	NA	62.5039292279998	0	0.27	2.06	1	60.1113928779996	60.1149374759989	"5"	14401.83013618	14365.852927213	1.5	0.1
0.01	1	0.00369281100029184	1	116	NA	62.5039292279998	0	0.27	2.06	1	60.3450614329995	60.3487542439998	"5"	14401.83013618	14365.852927213	1.5	0.1
0.01	1	0.00382155500119552	1	116	NA	62.5039292279998	0	0.27	2.06	1	60.5788210149985	60.5826425699997	"5"	14401.83013618	14365.852927213	1.5	0.1
0.01	1	0.00449185199977364	1	116	NA	62.5039292279998	0	0.27	2.06	1	60.8125292309996	60.8170210829994	"5"	14401.83013618	14365.852927213	1.5	0.1
0.01	1	0.00470452700028545	1	116	NA	62.5039292279998	0	0.27	2.06	1	61.0462668229993	61.0509713499996	"5"	14401.83013618	14365.852927213	1.5	0.1
0.01	1	0.00354899000012665	1	116	NA	62.5039292279998	0	0.27	2.06	1	61.2799573379998	61.2835063279999	"5"	14401.83013618	14365.852927213	1.5	0.1
0.01	1	0.00397659899863356	1	116	NA	62.5039292279998	0	0.27	2.06	1	61.513636185	61.5176127839986	"5"	14401.83013618	14365.852927213	1.5	0.1
0.01	1	0.00386405999961426	1	116	NA	62.5039292279998	0	0.27	2.06	1	61.7475136180001	61.7513776779997	"5"	14401.83013618	14365.852927213	1.5	0.1
0.01	1	0.00393034400076431	1	116	NA	62.5039292279998	0	0.27	2.06	1	61.9812464779989	61.9851768219996	"5"	14401.83013618	14365.852927213	1.5	0.1
0.01	1	0.287494813999729	2	116	NA	62.5039292279998	0	0.27	2.06	1	62.2149076109999	62.5024024249997	"5"	14401.83013618	14365.852927213	1.5	0.1
0.01	1	1.71928427300008	1	118	NA	74.9361414219984	0	0.36	2.42	1	64.5521713369999	66.27145561	"6"	14401.83013618	14365.852927213	1.5	0.1
0.01	1	0.00411855399943306	1	118	NA	74.9361414219984	0	0.36	2.42	1	66.5053710859993	66.5094896399987	"6"	14401.83013618	14365.852927213	1.5	0.1
0.01	1	0.00396616100078973	1	118	NA	74.9361414219984	0	0.36	2.42	1	66.7391366349984	66.7431027959992	"6"	14401.83013618	14365.852927213	1.5	0.1
0.01	1	0.00403471100071329	1	118	NA	74.9361414219984	0	0.36	2.42	1	66.9728296149988	66.9768643259995	"6"	14401.83013618	14365.852927213	1.5	0.1
0.01	1	0.00456945699988864	1	118	NA	74.9361414219984	0	0.36	2.42	1	67.2066137530001	67.2111832099999	"6"	14401.83013618	14365.852927213	1.5	0.1
0.01	1	0.00400048899973626	1	118	NA	74.9361414219984	0	0.36	2.42	1	67.4403561449999	67.4443566339996	"6"	14401.83013618	14365.852927213	1.5	0.1
0.01	1	0.0045648400009668	1	118	NA	74.9361414219984	0	0.36	2.42	1	67.6741498529991	67.6787146930001	"6"	14401.83013618	14365.852927213	1.5	0.1
0.01	1	0.00393525800063799	1	118	NA	74.9361414219984	0	0.36	2.42	1	67.9077929179984	67.9117281759991	"6"	14401.83013618	14365.852927213	1.5	0.1
0.01	1	0.0042901159995381	1	118	NA	74.9361414219984	0	0.36	2.42	1	68.1415841099988	68.1458742259983	"6"	14401.83013618	14365.852927213	1.5	0.1
0.01	1	0.00380004699945857	1	118	NA	74.9361414219984	0	0.36	2.42	1	68.3751887229992	68.3789887699986	"6"	14401.83013618	14365.852927213	1.5	0.1
0.01	1	0.00406210300025123	1	118	NA	74.9361414219984	0	0.36	2.42	1	68.6089823549992	68.6130444579994	"6"	14401.83013618	14365.852927213	1.5	0.1
0.01	1	0.0039592890007043	1	118	NA	74.9361414219984	0	0.36	2.42	1	68.8427825049985	68.8467417939992	"6"	14401.83013618	14365.852927213	1.5	0.1
0.01	1	0.00434924100045464	1	118	NA	74.9361414219984	0	0.36	2.42	1	69.0764867769994	69.0808360179999	"6"	14401.83013618	14365.852927213	1.5	0.1
0.01	1	0.00371447500037903	1	118	NA	74.9361414219984	0	0.36	2.42	1	69.3101943029997	69.313908778	"6"	14401.83013618	14365.852927213	1.5	0.1
0.01	1	0.00368560300012177	1	118	NA	74.9361414219984	0	0.36	2.42	1	69.5438967849987	69.5475823879988	"6"	14401.83013618	14365.852927213	1.5	0.1
0.01	1	0.00454166300005454	1	118	NA	74.9361414219984	0	0.36	2.42	1	69.7775371999996	69.7820788629997	"6"	14401.83013618	14365.852927213	1.5	0.1
0.01	1	0.00398385699918435	1	118	NA	74.9361414219984	0	0.36	2.42	1	70.0114069430001	70.0153907999993	"6"	14401.83013618	14365.852927213	1.5	0.1
0.01	1	0.00379804600015632	1	118	NA	74.9361414219984	0	0.36	2.42	1	70.2451108279984	70.2489088739985	"6"	14401.83013618	14365.852927213	1.5	0.1
0.01	1	0.00372177500139514	1	118	NA	74.9361414219984	0	0.36	2.42	1	70.4787462649983	70.4824680399997	"6"	14401.83013618	14365.852927213	1.5	0.1
0.01	1	0.0039469809998991	1	118	NA	74.9361414219984	0	0.36	2.42	1	70.7125210149989	70.7164679959988	"6"	14401.83013618	14365.852927213	1.5	0.1
0.01	1	0.00465857699964545	1	118	NA	74.9361414219984	0	0.36	2.42	1	70.9462983579997	70.9509569349993	"6"	14401.83013618	14365.852927213	1.5	0.1
0.01	1	0.00391512499845703	1	118	NA	74.9361414219984	0	0.36	2.42	1	71.1799246629998	71.1838397879983	"6"	14401.83013618	14365.852927213	1.5	0.1
0.01	1	0.00348048300111259	1	118	NA	74.9361414219984	0	0.36	2.42	1	71.4136507129988	71.4171311959999	"6"	14401.83013618	14365.852927213	1.5	0.1
0.01	1	0.00381021100110956	1	118	NA	74.9361414219984	0	0.36	2.42	1	71.6474433449985	71.6512535559996	"6"	14401.83013618	14365.852927213	1.5	0.1
0.01	1	0.00378114799968898	1	118	NA	74.9361414219984	0	0.36	2.42	1	71.8811090179988	71.8848901659985	"6"	14401.83013618	14365.852927213	1.5	0.1
0.01	1	0.00377832099911757	1	118	NA	74.9361414219984	0	0.36	2.42	1	72.114966485	72.1187448059991	"6"	14401.83013618	14365.852927213	1.5	0.1
0.01	1	0.00384596500043699	1	118	NA	74.9361414219984	0	0.36	2.42	1	72.3486796049983	72.3525255699988	"6"	14401.83013618	14365.852927213	1.5	0.1
0.01	1	0.00331857600031071	1	118	NA	74.9361414219984	0	0.36	2.42	1	72.5823112019989	72.5856297779992	"6"	14401.83013618	14365.852927213	1.5	0.1
0.01	1	0.00376848700034316	1	118	NA	74.9361414219984	0	0.36	2.42	1	72.8161188929989	72.8198873799993	"6"	14401.83013618	14365.852927213	1.5	0.1
0.01	1	0.00392941099926247	1	118	NA	74.9361414219984	0	0.36	2.42	1	73.0497947929998	73.0537242039991	"6"	14401.83013618	14365.852927213	1.5	0.1
0.01	1	0.00409137799942982	1	118	NA	74.9361414219984	0	0.36	2.42	1	73.2834372479992	73.2875286259987	"6"	14401.83013618	14365.852927213	1.5	0.1
0.01	1	0.00380375199893024	1	118	NA	74.9361414219984	0	0.36	2.42	1	73.5171518099996	73.5209555619986	"6"	14401.83013618	14365.852927213	1.5	0.1
0.01	1	0.00391320599919709	1	118	NA	74.9361414219984	0	0.36	2.42	1	73.7509501299992	73.7548633359984	"6"	14401.83013618	14365.852927213	1.5	0.1
0.01	1	0.00369688899991161	1	118	NA	74.9361414219984	0	0.36	2.42	1	73.9847496549992	73.9884465439991	"6"	14401.83013618	14365.852927213	1.5	0.1
0.01	1	0.00400055499994778	1	118	NA	74.9361414219984	0	0.36	2.42	1	74.2184255749999	74.2224261299998	"6"	14401.83013618	14365.852927213	1.5	0.1
0.01	1	0.00387123399923439	1	118	NA	74.9361414219984	0	0.36	2.42	1	74.4521271779995	74.4559984119987	"6"	14401.83013618	14365.852927213	1.5	0.1
0.01	1	0.248629216999689	2	118	NA	74.9361414219984	0	0.36	2.42	1	74.6858172529992	74.9344464699989	"6"	14401.83013618	14365.852927213	1.5	0.1
0.01	1	0.00398200599920528	1	87	NA	86.7854305169985	0	0.41	2.83	1	76.9897164979993	76.9936985039985	"7"	14401.83013618	14365.852927213	1.5	0.1
0.01	1	0.00382918099967355	1	87	NA	86.7854305169985	0	0.41	2.83	1	77.2234974129988	77.2273265939984	"7"	14401.83013618	14365.852927213	1.5	0.1
0.01	1	0.00385755400020571	1	87	NA	86.7854305169985	0	0.41	2.83	1	77.4571726079994	77.4610301619996	"7"	14401.83013618	14365.852927213	1.5	0.1
0.01	1	0.00406267099970137	1	87	NA	86.7854305169985	0	0.41	2.83	1	77.6909961029996	77.6950587739993	"7"	14401.83013618	14365.852927213	1.5	0.1
0.01	1	0.00346886900115351	1	87	NA	86.7854305169985	0	0.41	2.83	1	77.9246571449985	77.9281260139996	"7"	14401.83013618	14365.852927213	1.5	0.1
0.01	1	0.00398677100019995	1	87	NA	86.7854305169985	0	0.41	2.83	1	78.1583986249989	78.1623853959991	"7"	14401.83013618	14365.852927213	1.5	0.1
0.01	1	0.00398891500117315	1	87	NA	86.7854305169985	0	0.41	2.83	1	78.3921810029988	78.3961699179999	"7"	14401.83013618	14365.852927213	1.5	0.1
0.01	1	0.00384497699997155	1	87	NA	86.7854305169985	0	0.41	2.83	1	78.6257922629993	78.6296372399993	"7"	14401.83013618	14365.852927213	1.5	0.1
0.01	1	0.00335879799968097	1	87	NA	86.7854305169985	0	0.41	2.83	1	78.8594667779998	78.8628255759995	"7"	14401.83013618	14365.852927213	1.5	0.1
0.01	1	0.00363332900087698	1	87	NA	86.7854305169985	0	0.41	2.83	1	79.0932316949984	79.0968650239993	"7"	14401.83013618	14365.852927213	1.5	0.1
0.01	1	0.00373287399997935	1	87	NA	86.7854305169985	0	0.41	2.83	1	79.3269394239996	79.3306722979996	"7"	14401.83013618	14365.852927213	1.5	0.1
0.01	1	0.00376533300004667	1	87	NA	86.7854305169985	0	0.41	2.83	1	79.5607295549999	79.5644948879999	"7"	14401.83013618	14365.852927213	1.5	0.1
0.01	1	0.0038758520004194	1	87	NA	86.7854305169985	0	0.41	2.83	1	79.7944807079984	79.7983565599989	"7"	14401.83013618	14365.852927213	1.5	0.1
0.01	1	0.00361454100129777	1	87	NA	86.7854305169985	0	0.41	2.83	1	80.0282389449985	80.0318534859998	"7"	14401.83013618	14365.852927213	1.5	0.1
0.01	1	0.00381765000020096	1	87	NA	86.7854305169985	0	0.41	2.83	1	80.2619001579988	80.265717807999	"7"	14401.83013618	14365.852927213	1.5	0.1
0.01	1	0.00396663799983799	1	87	NA	86.7854305169985	0	0.41	2.83	1	80.4956216899991	80.4995883279989	"7"	14401.83013618	14365.852927213	1.5	0.1
0.01	1	0.00388220300010289	1	87	NA	86.7854305169985	0	0.41	2.83	1	80.729317244999	80.7331994479991	"7"	14401.83013618	14365.852927213	1.5	0.1
0.01	1	0.00381004799965012	1	87	NA	86.7854305169985	0	0.41	2.83	1	80.9630946979996	80.9669047459993	"7"	14401.83013618	14365.852927213	1.5	0.1
0.01	1	0.00464324499989743	1	87	NA	86.7854305169985	0	0.41	2.83	1	81.1968023729987	81.2014456179986	"7"	14401.83013618	14365.852927213	1.5	0.1
0.01	1	0.00414810300026147	1	87	NA	86.7854305169985	0	0.41	2.83	1	81.4305252949998	81.4346733980001	"7"	14401.83013618	14365.852927213	1.5	0.1
0.01	1	0.00389421399995626	1	87	NA	86.7854305169985	0	0.41	2.83	1	81.6643289299991	81.6682231439991	"7"	14401.83013618	14365.852927213	1.5	0.1
0.01	1	0.00379491899911955	1	87	NA	86.7854305169985	0	0.41	2.83	1	81.8979932849998	81.9017882039989	"7"	14401.83013618	14365.852927213	1.5	0.1
0.01	1	0.00388184299845307	1	87	NA	86.7854305169985	0	0.41	2.83	1	82.131727725	82.1356095679985	"7"	14401.83013618	14365.852927213	1.5	0.1
0.01	1	0.00352326299980632	1	87	NA	86.7854305169985	0	0.41	2.83	1	82.3655021049999	82.3690253679997	"7"	14401.83013618	14365.852927213	1.5	0.1
0.01	1	0.0039053190012055	1	87	NA	86.7854305169985	0	0.41	2.83	1	82.5992413249987	82.6031466439999	"7"	14401.83013618	14365.852927213	1.5	0.1
0.01	1	0.00310754199927032	1	87	NA	86.7854305169985	0	0.41	2.83	1	82.8328588519998	82.8359663939991	"7"	14401.83013618	14365.852927213	1.5	0.1
0.01	1	0.00332415400043828	1	87	NA	86.7854305169985	0	0.41	2.83	1	83.0666325859984	83.0699567399988	"7"	14401.83013618	14365.852927213	1.5	0.1
0.01	1	0.00333181799942395	1	87	NA	86.7854305169985	0	0.41	2.83	1	83.3004431919999	83.3037750099993	"7"	14401.83013618	14365.852927213	1.5	0.1
0.01	1	0.00370736699915142	1	87	NA	86.7854305169985	0	0.41	2.83	1	83.5341143149999	83.537821681999	"7"	14401.83013618	14365.852927213	1.5	0.1
0.01	1	0.00401247899935697	1	87	NA	86.7854305169985	0	0.41	2.83	1	83.767757865	83.7717703439994	"7"	14401.83013618	14365.852927213	1.5	0.1
0.01	1	0.00434372000017902	1	87	NA	86.7854305169985	0	0.41	2.83	1	84.0015642979997	84.0059080179999	"7"	14401.83013618	14365.852927213	1.5	0.1
0.01	1	0.00363861999903747	1	87	NA	86.7854305169985	0	0.41	2.83	1	84.2353226499999	84.238961269999	"7"	14401.83013618	14365.852927213	1.5	0.1
0.01	1	0.00348031800058379	1	87	NA	86.7854305169985	0	0.41	2.83	1	84.4689856299992	84.4724659479998	"7"	14401.83013618	14365.852927213	1.5	0.1
0.01	1	0.00331897199976083	1	87	NA	86.7854305169985	0	0.41	2.83	1	84.7026459319986	84.7059649039984	"7"	14401.83013618	14365.852927213	1.5	0.1
0.01	1	0.00387780999881215	1	87	NA	86.7854305169985	0	0.41	2.83	1	84.9364361179996	84.9403139279984	"7"	14401.83013618	14365.852927213	1.5	0.1
0.01	1	0.00379050199990161	1	87	NA	86.7854305169985	0	0.41	2.83	1	85.1701775379988	85.1739680399987	"7"	14401.83013618	14365.852927213	1.5	0.1
0.01	1	0.00427873199987516	1	87	NA	86.7854305169985	0	0.41	2.83	1	85.4038684829993	85.4081472149992	"7"	14401.83013618	14365.852927213	1.5	0.1
0.01	1	0.00352164099967922	1	87	NA	86.7854305169985	0	0.41	2.83	1	85.6376590929995	85.6411807339991	"7"	14401.83013618	14365.852927213	1.5	0.1
0.01	1	0.00387032300022838	1	87	NA	86.7854305169985	0	0.41	2.83	1	85.8713703329995	85.8752406559997	"7"	14401.83013618	14365.852927213	1.5	0.1
0.01	1	0.00395537400072499	1	87	NA	86.7854305169985	0	0.41	2.83	1	86.1050258479991	86.1089812219998	"7"	14401.83013618	14365.852927213	1.5	0.1
0.01	1	0.00404566200086265	1	87	NA	86.7854305169985	0	0.41	2.83	1	86.3388133079989	86.3428589699997	"7"	14401.83013618	14365.852927213	1.5	0.1
0.01	1	0.211109814999872	2	87	NA	86.7854305169985	0	0.41	2.83	1	86.5726308529993	86.7837406679992	"7"	14401.83013618	14365.852927213	1.5	0.1
0.01	1	0.0046222700002545	1	6	90.1148980049984	NA	1	0	2.83	1	88.8262613379993	88.8308836079996	"8"	14401.83013618	14365.852927213	1.5	0.1
0.01	1	0.00467755800127634	1	6	90.1148980049984	NA	1	0	2.83	1	89.0601326669985	89.0648102249997	"8"	14401.83013618	14365.852927213	1.5	0.1
0.01	1	0.00389089999953285	1	6	90.1148980049984	NA	1	0	2.83	1	89.2937453579998	89.2976362579993	"8"	14401.83013618	14365.852927213	1.5	0.1
0.01	1	0.00395041800038598	1	6	90.1148980049984	NA	1	0	2.83	1	89.5275021279995	89.5314525459999	"8"	14401.83013618	14365.852927213	1.5	0.1
0.01	1	0.00368971299940313	1	6	90.1148980049984	NA	1	0	2.83	1	89.7611684749991	89.7648581879985	"8"	14401.83013618	14365.852927213	1.5	0.1
0.01	1	0.0042877519990725	1	6	90.1148980049984	NA	1	0	2.83	1	89.9949991079993	89.9992868599984	"8"	14401.83013618	14365.852927213	1.5	0.1
0.01	1	0.387362534000204	1	106	NA	96.4410319929993	0	0.16	2.99	1	92.1486118029989	92.5359743369991	"9"	14401.83013618	14365.852927213	1.5	0.1
0.01	1	0.00374607699995977	1	106	NA	96.4410319929993	0	0.16	2.99	1	92.7662991749985	92.7700452519985	"9"	14401.83013618	14365.852927213	1.5	0.1
0.01	1	0.00411201499991876	1	106	NA	96.4410319929993	0	0.16	2.99	1	92.9999906429985	93.0041026579984	"9"	14401.83013618	14365.852927213	1.5	0.1
0.01	1	0.00360871200064139	1	106	NA	96.4410319929993	0	0.16	2.99	1	93.2337697999992	93.2373785119999	"9"	14401.83013618	14365.852927213	1.5	0.1
0.01	1	0.00388285799999721	1	106	NA	96.4410319929993	0	0.16	2.99	1	93.4674788699995	93.4713617279995	"9"	14401.83013618	14365.852927213	1.5	0.1
0.01	1	0.00442977500097186	1	106	NA	96.4410319929993	0	0.16	2.99	1	93.7012623679984	93.7056921429994	"9"	14401.83013618	14365.852927213	1.5	0.1
0.01	1	0.00389677600105642	1	106	NA	96.4410319929993	0	0.16	2.99	1	93.934873627999	93.938770404	"9"	14401.83013618	14365.852927213	1.5	0.1
0.01	1	0.00383532199884939	1	106	NA	96.4410319929993	0	0.16	2.99	1	94.1686003699997	94.1724356919985	"9"	14401.83013618	14365.852927213	1.5	0.1
0.01	1	0.0033453300002293	1	106	NA	96.4410319929993	0	0.16	2.99	1	94.4023563819992	94.4057017119994	"9"	14401.83013618	14365.852927213	1.5	0.1
0.01	1	0.00336104800044268	1	106	NA	96.4410319929993	0	0.16	2.99	1	94.6360616419988	94.6394226899993	"9"	14401.83013618	14365.852927213	1.5	0.1
0.01	1	0.00397767100002966	1	106	NA	96.4410319929993	0	0.16	2.99	1	94.8697951249997	94.8737727959997	"9"	14401.83013618	14365.852927213	1.5	0.1
0.01	1	0.00456865399974049	1	106	NA	96.4410319929993	0	0.16	2.99	1	95.1035914439999	95.1081600979996	"9"	14401.83013618	14365.852927213	1.5	0.1
0.01	1	0.0034939420002047	1	106	NA	96.4410319929993	0	0.16	2.99	1	95.3373805479987	95.3408744899989	"9"	14401.83013618	14365.852927213	1.5	0.1
0.01	1	0.00403021499914757	1	106	NA	96.4410319929993	0	0.16	2.99	1	95.5710067149994	95.5750369299985	"9"	14401.83013618	14365.852927213	1.5	0.1
0.01	1	0.00361314300062077	1	106	NA	96.4410319929993	0	0.16	2.99	1	95.804787482999	95.8084006259996	"9"	14401.83013618	14365.852927213	1.5	0.1
0.01	1	0.00389197099866578	1	106	NA	96.4410319929993	0	0.16	2.99	1	96.0384305549996	96.0423225259983	"9"	14401.83013618	14365.852927213	1.5	0.1
0.01	1	0.167164903999947	2	106	NA	96.4410319929993	0	0.16	2.99	1	96.2722032279999	96.4393681319998	"9"	14401.83013618	14365.852927213	1.5	0.1
0.01	1	0.0045066559996485	1	21	NA	100.736832041999	0	0.09	3.08	1	98.4758133939995	98.4803200499991	"10"	14401.83013618	14365.852927213	1.5	0.1
0.01	1	0.00370996800120338	1	21	NA	100.736832041999	0	0.09	3.08	1	98.7096243299984	98.7133342979996	"10"	14401.83013618	14365.852927213	1.5	0.1
0.01	1	0.00355361100082519	1	21	NA	100.736832041999	0	0.09	3.08	1	98.9433422829989	98.9468958939997	"10"	14401.83013618	14365.852927213	1.5	0.1
0.01	1	0.00373873699936667	1	21	NA	100.736832041999	0	0.09	3.08	1	99.1769859849992	99.1807247219986	"10"	14401.83013618	14365.852927213	1.5	0.1
0.01	1	0.0039285809998546	1	21	NA	100.736832041999	0	0.09	3.08	1	99.4107755629993	99.4147041439992	"10"	14401.83013618	14365.852927213	1.5	0.1
0.01	1	0.00392131000080553	1	21	NA	100.736832041999	0	0.09	3.08	1	99.6445199279988	99.6484412379996	"10"	14401.83013618	14365.852927213	1.5	0.1
0.01	1	0.003832964999674	1	21	NA	100.736832041999	0	0.09	3.08	1	99.8782010249997	99.8820339899994	"10"	14401.83013618	14365.852927213	1.5	0.1
0.01	1	0.00381598600142752	1	21	NA	100.736832041999	0	0.09	3.08	1	100.111895057998	100.115711044	"10"	14401.83013618	14365.852927213	1.5	0.1
0.01	1	0.00335417200039956	1	21	NA	100.736832041999	0	0.09	3.08	1	100.345699023999	100.349053196	"10"	14401.83013618	14365.852927213	1.5	0.1
0.01	1	0.155764962000831	2	21	NA	100.736832041999	0	0.09	3.08	1	100.579410914999	100.735175877	"10"	14401.83013618	14365.852927213	1.5	0.1
0.01	1	0.00390245700145897	1	19	NA	106.496000892999	0	0.15	3.23	1	102.783061884998	102.786964342	"11"	14401.83013618	14365.852927213	1.5	0.1
0.01	1	0.00341935699907481	1	19	NA	106.496000892999	0	0.15	3.23	1	103.016864063	103.020283419999	"11"	14401.83013618	14365.852927213	1.5	0.1
0.01	1	0.00455583899929479	1	19	NA	106.496000892999	0	0.15	3.23	1	103.250533603999	103.255089442999	"11"	14401.83013618	14365.852927213	1.5	0.1
0.01	1	0.00397392000013497	1	19	NA	106.496000892999	0	0.15	3.23	1	103.484248277999	103.488222197999	"11"	14401.83013618	14365.852927213	1.5	0.1
0.01	1	0.0038100330002635	1	19	NA	106.496000892999	0	0.15	3.23	1	103.718069814999	103.721879847999	"11"	14401.83013618	14365.852927213	1.5	0.1
0.01	1	0.00351269000020693	1	19	NA	106.496000892999	0	0.15	3.23	1	103.951703687999	103.955216377999	"11"	14401.83013618	14365.852927213	1.5	0.1
0.01	1	0.00407313800133124	1	19	NA	106.496000892999	0	0.15	3.23	1	104.185429309999	104.189502448	"11"	14401.83013618	14365.852927213	1.5	0.1
0.01	1	0.00446460199964349	1	19	NA	106.496000892999	0	0.15	3.23	1	104.419283521	104.423748122999	"11"	14401.83013618	14365.852927213	1.5	0.1
0.01	1	0.00454859199999191	1	19	NA	106.496000892999	0	0.15	3.23	1	104.652936928	104.65748552	"11"	14401.83013618	14365.852927213	1.5	0.1
0.01	1	0.00465694000013173	1	19	NA	106.496000892999	0	0.15	3.23	1	104.886788947999	104.891445887999	"11"	14401.83013618	14365.852927213	1.5	0.1
0.01	1	0.00365057000090019	1	19	NA	106.496000892999	0	0.15	3.23	1	105.120349577999	105.124000148	"11"	14401.83013618	14365.852927213	1.5	0.1
0.01	1	0.00399173099867767	1	19	NA	106.496000892999	0	0.15	3.23	1	105.354063723	105.358055453999	"11"	14401.83013618	14365.852927213	1.5	0.1
0.01	1	0.00437096799942083	1	19	NA	106.496000892999	0	0.15	3.23	1	105.58780838	105.592179347999	"11"	14401.83013618	14365.852927213	1.5	0.1
0.01	1	0.00382928300132335	1	19	NA	106.496000892999	0	0.15	3.23	1	105.821485994999	105.825315278	"11"	14401.83013618	14365.852927213	1.5	0.1
0.01	1	0.0034207080007036	1	19	NA	106.496000892999	0	0.15	3.23	1	106.055327843998	106.058748551999	"11"	14401.83013618	14365.852927213	1.5	0.1
0.01	1	0.205299237000872	2	19	NA	106.496000892999	0	0.15	3.23	1	106.289012362999	106.494311599999	"11"	14401.83013618	14365.852927213	1.5	0.1
0.01	1	0.00461980199906975	1	63	NA	113.305052537	0	0.16	3.39	1	108.526079623	108.530699424999	"12"	14401.83013618	14365.852927213	1.5	0.1
0.01	1	0.00381692399969324	1	63	NA	113.305052537	0	0.16	3.39	1	108.759753498	108.763570421999	"12"	14401.83013618	14365.852927213	1.5	0.1
0.01	1	0.0033410020005249	1	63	NA	113.305052537	0	0.16	3.39	1	108.993587035999	108.996928037999	"12"	14401.83013618	14365.852927213	1.5	0.1
0.01	1	0.00357609200000297	1	63	NA	113.305052537	0	0.16	3.39	1	109.227232398	109.23080849	"12"	14401.83013618	14365.852927213	1.5	0.1
0.01	1	0.0041246009986935	1	63	NA	113.305052537	0	0.16	3.39	1	109.460981675	109.465106275999	"12"	14401.83013618	14365.852927213	1.5	0.1
0.01	1	0.00413567699979467	1	63	NA	113.305052537	0	0.16	3.39	1	109.694699514999	109.698835191999	"12"	14401.83013618	14365.852927213	1.5	0.1
0.01	1	0.00390928799970425	1	63	NA	113.305052537	0	0.16	3.39	1	109.928495747999	109.932405035999	"12"	14401.83013618	14365.852927213	1.5	0.1
0.01	1	0.00471953200030839	1	63	NA	113.305052537	0	0.16	3.39	1	110.162279337999	110.16699887	"12"	14401.83013618	14365.852927213	1.5	0.1
0.01	1	0.00389735099997779	1	63	NA	113.305052537	0	0.16	3.39	1	110.395881544999	110.399778895999	"12"	14401.83013618	14365.852927213	1.5	0.1
0.01	1	0.00389528300001984	1	63	NA	113.305052537	0	0.16	3.39	1	110.629672192999	110.633567475999	"12"	14401.83013618	14365.852927213	1.5	0.1
0.01	1	0.00396358200123359	1	63	NA	113.305052537	0	0.16	3.39	1	110.863332117999	110.8672957	"12"	14401.83013618	14365.852927213	1.5	0.1
0.01	1	0.00380850500005181	1	63	NA	113.305052537	0	0.16	3.39	1	111.097173073	111.100981578	"12"	14401.83013618	14365.852927213	1.5	0.1
0.01	1	0.00345210600062273	1	63	NA	113.305052537	0	0.16	3.39	1	111.330831277999	111.334283384	"12"	14401.83013618	14365.852927213	1.5	0.1
0.01	1	0.0037498850015254	1	63	NA	113.305052537	0	0.16	3.39	1	111.564593882998	111.568343768	"12"	14401.83013618	14365.852927213	1.5	0.1
0.01	1	0.00395208800000546	1	63	NA	113.305052537	0	0.16	3.39	1	111.798226487999	111.802178575999	"12"	14401.83013618	14365.852927213	1.5	0.1
0.01	1	0.00457184399965627	1	63	NA	113.305052537	0	0.16	3.39	1	112.032050111	112.036621955	"12"	14401.83013618	14365.852927213	1.5	0.1
0.01	1	1.0375753870012	2	63	NA	113.305052537	0	0.16	3.39	1	112.265824589998	113.303399977	"12"	14401.83013618	14365.852927213	1.5	0.1
0.01	1	0.724960735999048	1	54	NA	120.912531939999	0	0.2	3.59	1	115.337546803999	116.062507539998	"13"	14401.83013618	14365.852927213	1.5	0.1
0.01	1	0.00384716799999296	1	54	NA	120.912531939999	0	0.2	3.59	1	116.289059577999	116.292906745999	"13"	14401.83013618	14365.852927213	1.5	0.1
0.01	1	0.00404924800022854	1	54	NA	120.912531939999	0	0.2	3.59	1	116.522922197999	116.526971445999	"13"	14401.83013618	14365.852927213	1.5	0.1
0.01	1	0.00471799000115425	1	54	NA	120.912531939999	0	0.2	3.59	1	116.756699927999	116.761417918	"13"	14401.83013618	14365.852927213	1.5	0.1
0.01	1	0.00377185299839766	1	54	NA	120.912531939999	0	0.2	3.59	1	116.990414295	116.994186147998	"13"	14401.83013618	14365.852927213	1.5	0.1
0.01	1	0.00373363200014865	1	54	NA	120.912531939999	0	0.2	3.59	1	117.224018147999	117.227751779999	"13"	14401.83013618	14365.852927213	1.5	0.1
0.01	1	0.00392023799940944	1	54	NA	120.912531939999	0	0.2	3.59	1	117.457701347999	117.461621585999	"13"	14401.83013618	14365.852927213	1.5	0.1
0.01	1	0.00463553499866975	1	54	NA	120.912531939999	0	0.2	3.59	1	117.691511903	117.696147437999	"13"	14401.83013618	14365.852927213	1.5	0.1
0.01	1	0.00401013500049885	1	54	NA	120.912531939999	0	0.2	3.59	1	117.925271692999	117.929281827999	"13"	14401.83013618	14365.852927213	1.5	0.1
0.01	1	0.00389274400004069	1	54	NA	120.912531939999	0	0.2	3.59	1	118.158897288	118.162790032	"13"	14401.83013618	14365.852927213	1.5	0.1
0.01	1	0.00358041099934781	1	54	NA	120.912531939999	0	0.2	3.59	1	118.392751423	118.396331833999	"13"	14401.83013618	14365.852927213	1.5	0.1
0.01	1	0.00390069800050696	1	54	NA	120.912531939999	0	0.2	3.59	1	118.626406007999	118.630306706	"13"	14401.83013618	14365.852927213	1.5	0.1
0.01	1	0.00402332199882949	1	54	NA	120.912531939999	0	0.2	3.59	1	118.860245668	118.864268989999	"13"	14401.83013618	14365.852927213	1.5	0.1
0.01	1	0.00378454500059888	1	54	NA	120.912531939999	0	0.2	3.59	1	119.093801662999	119.097586207999	"13"	14401.83013618	14365.852927213	1.5	0.1
0.01	1	0.00424721799936378	1	54	NA	120.912531939999	0	0.2	3.59	1	119.32757498	119.331822197999	"13"	14401.83013618	14365.852927213	1.5	0.1
0.01	1	0.00394616500125267	1	54	NA	120.912531939999	0	0.2	3.59	1	119.561351982999	119.565298148	"13"	14401.83013618	14365.852927213	1.5	0.1
0.01	1	0.00396991100024024	1	54	NA	120.912531939999	0	0.2	3.59	1	119.794986474999	119.798956385999	"13"	14401.83013618	14365.852927213	1.5	0.1
0.01	1	0.0039757569993526	1	54	NA	120.912531939999	0	0.2	3.59	1	120.028788185	120.032763941999	"13"	14401.83013618	14365.852927213	1.5	0.1
0.01	1	0.00377465499877871	1	54	NA	120.912531939999	0	0.2	3.59	1	120.262481393	120.266256047998	"13"	14401.83013618	14365.852927213	1.5	0.1
0.01	1	0.00467056999877968	1	54	NA	120.912531939999	0	0.2	3.59	1	120.496271778	120.500942347999	"13"	14401.83013618	14365.852927213	1.5	0.1
0.01	1	0.180838095000581	2	54	NA	120.912531939999	0	0.2	3.59	1	120.730000477999	120.910838573	"13"	14401.83013618	14365.852927213	1.5	0.1
0.01	1	0.00392269199983275	1	103	NA	137.560013265998	0	0.62	4.21	1	122.950349867999	122.954272559999	"14"	14401.83013618	14365.852927213	1.5	0.1
0.01	1	0.00443152700063365	1	103	NA	137.560013265998	0	0.62	4.21	1	123.184028117999	123.188459645	"14"	14401.83013618	14365.852927213	1.5	0.1
0.01	1	0.00467756000034569	1	103	NA	137.560013265998	0	0.62	4.21	1	123.417773367999	123.422450927999	"14"	14401.83013618	14365.852927213	1.5	0.1
0.01	1	0.00375607500063779	1	103	NA	137.560013265998	0	0.62	4.21	1	123.651573554998	123.655329629999	"14"	14401.83013618	14365.852927213	1.5	0.1
0.01	1	0.00390015500124719	1	103	NA	137.560013265998	0	0.62	4.21	1	123.885248494998	123.88914865	"14"	14401.83013618	14365.852927213	1.5	0.1
0.01	1	0.00397722900015651	1	103	NA	137.560013265998	0	0.62	4.21	1	124.119053962999	124.123031191999	"14"	14401.83013618	14365.852927213	1.5	0.1
0.01	1	0.00311788799990609	1	103	NA	137.560013265998	0	0.62	4.21	1	124.35268774	124.355805628	"14"	14401.83013618	14365.852927213	1.5	0.1
0.01	1	0.00398723699981929	1	103	NA	137.560013265998	0	0.62	4.21	1	124.586389292999	124.590376529999	"14"	14401.83013618	14365.852927213	1.5	0.1
0.01	1	0.00397098800021922	1	103	NA	137.560013265998	0	0.62	4.21	1	124.820209277999	124.824180266	"14"	14401.83013618	14365.852927213	1.5	0.1
0.01	1	0.00444912899911287	1	103	NA	137.560013265998	0	0.62	4.21	1	125.053883744	125.058332872999	"14"	14401.83013618	14365.852927213	1.5	0.1
0.01	1	0.00403054600064934	1	103	NA	137.560013265998	0	0.62	4.21	1	125.287600067999	125.291630614	"14"	14401.83013618	14365.852927213	1.5	0.1
0.01	1	0.0039827199998399	1	103	NA	137.560013265998	0	0.62	4.21	1	125.521418037999	125.525400757999	"14"	14401.83013618	14365.852927213	1.5	0.1
0.01	1	0.00426075299947115	1	103	NA	137.560013265998	0	0.62	4.21	1	125.755041004999	125.759301757998	"14"	14401.83013618	14365.852927213	1.5	0.1
0.01	1	0.00393633500061696	1	103	NA	137.560013265998	0	0.62	4.21	1	125.988823312999	125.992759647999	"14"	14401.83013618	14365.852927213	1.5	0.1
0.01	1	0.00429921500108321	1	103	NA	137.560013265998	0	0.62	4.21	1	126.222457242999	126.226756458	"14"	14401.83013618	14365.852927213	1.5	0.1
0.01	1	0.00427941199995985	1	103	NA	137.560013265998	0	0.62	4.21	1	126.456294693	126.460574105	"14"	14401.83013618	14365.852927213	1.5	0.1
0.01	1	0.00376019300165353	1	103	NA	137.560013265998	0	0.62	4.21	1	126.689916824998	126.693677018	"14"	14401.83013618	14365.852927213	1.5	0.1
0.01	1	0.00366659799874469	1	103	NA	137.560013265998	0	0.62	4.21	1	126.92378245	126.927449047998	"14"	14401.83013618	14365.852927213	1.5	0.1
0.01	1	0.00412275100097759	1	103	NA	137.560013265998	0	0.62	4.21	1	127.157455044999	127.161577796	"14"	14401.83013618	14365.852927213	1.5	0.1
0.01	1	0.00443908499983081	1	103	NA	137.560013265998	0	0.62	4.21	1	127.3911395	127.395578584999	"14"	14401.83013618	14365.852927213	1.5	0.1
0.01	1	0.0039271630012081	1	103	NA	137.560013265998	0	0.62	4.21	1	127.624899012999	127.628826176	"14"	14401.83013618	14365.852927213	1.5	0.1
0.01	1	0.00335479999921517	1	103	NA	137.560013265998	0	0.62	4.21	1	127.858568758	127.861923557999	"14"	14401.83013618	14365.852927213	1.5	0.1
0.01	1	0.00374754699987534	1	103	NA	137.560013265998	0	0.62	4.21	1	128.092398052999	128.096145599999	"14"	14401.83013618	14365.852927213	1.5	0.1
0.01	1	0.00383668099857459	1	103	NA	137.560013265998	0	0.62	4.21	1	128.326131803	128.329968483999	"14"	14401.83013618	14365.852927213	1.5	0.1
0.01	1	0.00398994899842364	1	103	NA	137.560013265998	0	0.62	4.21	1	128.559850603	128.563840551999	"14"	14401.83013618	14365.852927213	1.5	0.1
0.01	1	0.00355483699968318	1	103	NA	137.560013265998	0	0.62	4.21	1	128.793520142999	128.797074979999	"14"	14401.83013618	14365.852927213	1.5	0.1
0.01	1	0.00363923399891064	1	103	NA	137.560013265998	0	0.62	4.21	1	129.027296728	129.030935961999	"14"	14401.83013618	14365.852927213	1.5	0.1
0.01	1	0.00411311400057457	1	103	NA	137.560013265998	0	0.62	4.21	1	129.260945649999	129.265058764	"14"	14401.83013618	14365.852927213	1.5	0.1
0.01	1	0.00394137700095598	1	103	NA	137.560013265998	0	0.62	4.21	1	129.494703224998	129.498644601999	"14"	14401.83013618	14365.852927213	1.5	0.1
0.01	1	0.0039952129991434	1	103	NA	137.560013265998	0	0.62	4.21	1	129.728468243	129.732463455999	"14"	14401.83013618	14365.852927213	1.5	0.1
0.01	1	0.00345959399965068	1	103	NA	137.560013265998	0	0.62	4.21	1	129.962175885999	129.965635479999	"14"	14401.83013618	14365.852927213	1.5	0.1
0.01	1	0.00363154600017879	1	103	NA	137.560013265998	0	0.62	4.21	1	130.195928047999	130.199559593999	"14"	14401.83013618	14365.852927213	1.5	0.1
0.01	1	0.00332111199895735	1	103	NA	137.560013265998	0	0.62	4.21	1	130.429619486	130.432940597999	"14"	14401.83013618	14365.852927213	1.5	0.1
0.01	1	0.00461147500027437	1	103	NA	137.560013265998	0	0.62	4.21	1	130.663422848	130.668034323	"14"	14401.83013618	14365.852927213	1.5	0.1
0.01	1	0.00390414399953443	1	103	NA	137.560013265998	0	0.62	4.21	1	130.897060538	130.900964682	"14"	14401.83013618	14365.852927213	1.5	0.1
0.01	1	0.00462163500014867	1	103	NA	137.560013265998	0	0.62	4.21	1	131.130875237999	131.135496872999	"14"	14401.83013618	14365.852927213	1.5	0.1
0.01	1	0.00363295699935406	1	103	NA	137.560013265998	0	0.62	4.21	1	131.364468784999	131.368101741999	"14"	14401.83013618	14365.852927213	1.5	0.1
0.01	1	0.00389349999932165	1	103	NA	137.560013265998	0	0.62	4.21	1	131.598236868	131.602130367999	"14"	14401.83013618	14365.852927213	1.5	0.1
0.01	1	0.00406975899932149	1	103	NA	137.560013265998	0	0.62	4.21	1	131.831890322999	131.835960081999	"14"	14401.83013618	14365.852927213	1.5	0.1
0.01	1	0.00341977700009011	1	103	NA	137.560013265998	0	0.62	4.21	1	132.065641902998	132.069061679998	"14"	14401.83013618	14365.852927213	1.5	0.1
0.01	1	0.00345693500094058	1	103	NA	137.560013265998	0	0.62	4.21	1	132.299364642999	132.302821578	"14"	14401.83013618	14365.852927213	1.5	0.1
0.01	1	0.00401955699999235	1	103	NA	137.560013265998	0	0.62	4.21	1	132.533106334999	132.537125891999	"14"	14401.83013618	14365.852927213	1.5	0.1
0.01	1	0.00372875100038073	1	103	NA	137.560013265998	0	0.62	4.21	1	132.766791622998	132.770520373999	"14"	14401.83013618	14365.852927213	1.5	0.1
0.01	1	0.00458128700120142	1	103	NA	137.560013265998	0	0.62	4.21	1	133.000664837999	133.005246125	"14"	14401.83013618	14365.852927213	1.5	0.1
0.01	1	0.00469985699965036	1	103	NA	137.560013265998	0	0.62	4.21	1	133.234364837999	133.239064694999	"14"	14401.83013618	14365.852927213	1.5	0.1
0.01	1	0.0020727370010718	1	103	NA	137.560013265998	0	0.62	4.21	1	133.468049957999	133.470122695	"14"	14401.83013618	14365.852927213	1.5	0.1
0.01	1	0.00381609800024307	1	103	NA	137.560013265998	0	0.62	4.21	1	133.701687397999	133.705503495999	"14"	14401.83013618	14365.852927213	1.5	0.1
0.01	1	0.00388186399868573	1	103	NA	137.560013265998	0	0.62	4.21	1	133.935541588	133.939423451999	"14"	14401.83013618	14365.852927213	1.5	0.1
0.01	1	0.00445964000027743	1	103	NA	137.560013265998	0	0.62	4.21	1	134.169246739999	134.173706379999	"14"	14401.83013618	14365.852927213	1.5	0.1
0.01	1	0.00437791200056381	1	103	NA	137.560013265998	0	0.62	4.21	1	134.402872577999	134.40725049	"14"	14401.83013618	14365.852927213	1.5	0.1
0.01	1	0.00336450800023158	1	103	NA	137.560013265998	0	0.62	4.21	1	134.636642207999	134.640006715999	"14"	14401.83013618	14365.852927213	1.5	0.1
0.01	1	0.00438589900113584	1	103	NA	137.560013265998	0	0.62	4.21	1	134.870450073999	134.874835973	"14"	14401.83013618	14365.852927213	1.5	0.1
0.01	1	0.00468841000110842	1	103	NA	137.560013265998	0	0.62	4.21	1	135.104200352998	135.108888762999	"14"	14401.83013618	14365.852927213	1.5	0.1
0.01	1	0.00325833200076886	1	103	NA	137.560013265998	0	0.62	4.21	1	135.337894619999	135.341152952	"14"	14401.83013618	14365.852927213	1.5	0.1
0.01	1	0.00339717299902986	1	103	NA	137.560013265998	0	0.62	4.21	1	135.571627392999	135.575024565998	"14"	14401.83013618	14365.852927213	1.5	0.1
0.01	1	0.00392060400008631	1	103	NA	137.560013265998	0	0.62	4.21	1	135.805237577999	135.809158181999	"14"	14401.83013618	14365.852927213	1.5	0.1
0.01	1	0.0039112140002544	1	103	NA	137.560013265998	0	0.62	4.21	1	136.03901273	136.042923944	"14"	14401.83013618	14365.852927213	1.5	0.1
0.01	1	0.00399446100163914	1	103	NA	137.560013265998	0	0.62	4.21	1	136.272815474998	136.276809936	"14"	14401.83013618	14365.852927213	1.5	0.1
0.01	1	0.00397038699884433	1	103	NA	137.560013265998	0	0.62	4.21	1	136.506502194999	136.510472581998	"14"	14401.83013618	14365.852927213	1.5	0.1
0.01	1	0.00399221699990449	1	103	NA	137.560013265998	0	0.62	4.21	1	136.740244555	136.744236772	"14"	14401.83013618	14365.852927213	1.5	0.1
0.01	1	0.00369858699923498	1	103	NA	137.560013265998	0	0.62	4.21	1	136.973915222999	136.977613809999	"14"	14401.83013618	14365.852927213	1.5	0.1
0.01	1	0.00482104200091271	1	103	NA	137.560013265998	0	0.62	4.21	1	137.207641990999	137.212463033	"14"	14401.83013618	14365.852927213	1.5	0.1
0.01	1	0.117159737999827	2	103	NA	137.560013265998	0	0.62	4.21	1	137.441334444	137.558494182	"14"	14401.83013618	14365.852927213	1.5	0.1
0.01	1	3.05168001300081	1	120	NA	160.152575132999	0	0.74	4.95	1	139.611656117999	142.663336131	"15"	14401.83013618	14365.852927213	1.5	0.1
0.01	1	0.00393894800072303	1	120	NA	160.152575132999	0	0.74	4.95	1	142.900520539999	142.904459488	"15"	14401.83013618	14365.852927213	1.5	0.1
0.01	1	0.00375917100063816	1	120	NA	160.152575132999	0	0.74	4.95	1	143.134426334998	143.138185505999	"15"	14401.83013618	14365.852927213	1.5	0.1
0.01	1	0.00374981500135618	1	120	NA	160.152575132999	0	0.74	4.95	1	143.368140502998	143.371890318	"15"	14401.83013618	14365.852927213	1.5	0.1
0.01	1	0.00470449199929135	1	120	NA	160.152575132999	0	0.74	4.95	1	143.601805703	143.606510194999	"15"	14401.83013618	14365.852927213	1.5	0.1
0.01	1	0.00237656999888713	1	120	NA	160.152575132999	0	0.74	4.95	1	143.835491856	143.837868425999	"15"	14401.83013618	14365.852927213	1.5	0.1
0.01	1	0.00224766700011969	1	120	NA	160.152575132999	0	0.74	4.95	1	144.069258305999	144.071505972999	"15"	14401.83013618	14365.852927213	1.5	0.1
0.01	1	0.00430446199970902	1	120	NA	160.152575132999	0	0.74	4.95	1	144.302997372999	144.307301834999	"15"	14401.83013618	14365.852927213	1.5	0.1
0.01	1	0.00395363100142276	1	120	NA	160.152575132999	0	0.74	4.95	1	144.536653554998	144.540607186	"15"	14401.83013618	14365.852927213	1.5	0.1
0.01	1	0.0037400550008897	1	120	NA	160.152575132999	0	0.74	4.95	1	144.770401504999	144.774141559999	"15"	14401.83013618	14365.852927213	1.5	0.1
0.01	1	0.00404493099995307	1	120	NA	160.152575132999	0	0.74	4.95	1	145.004107154999	145.008152085999	"15"	14401.83013618	14365.852927213	1.5	0.1
0.01	1	0.0043800530002045	1	120	NA	160.152575132999	0	0.74	4.95	1	145.237880989998	145.242261042999	"15"	14401.83013618	14365.852927213	1.5	0.1
0.01	1	0.00452365100136376	1	120	NA	160.152575132999	0	0.74	4.95	1	145.471621056999	145.476144708	"15"	14401.83013618	14365.852927213	1.5	0.1
0.01	1	0.00343232600062038	1	120	NA	160.152575132999	0	0.74	4.95	1	145.705248537999	145.708680864	"15"	14401.83013618	14365.852927213	1.5	0.1
0.01	1	0.00379899400104478	1	120	NA	160.152575132999	0	0.74	4.95	1	145.939049269999	145.942848264	"15"	14401.83013618	14365.852927213	1.5	0.1
0.01	1	0.00393707100010943	1	120	NA	160.152575132999	0	0.74	4.95	1	146.172675952999	146.176613023999	"15"	14401.83013618	14365.852927213	1.5	0.1
0.01	1	0.00405238999883295	1	120	NA	160.152575132999	0	0.74	4.95	1	146.406465118	146.410517507999	"15"	14401.83013618	14365.852927213	1.5	0.1
0.01	1	0.00389459400139458	1	120	NA	160.152575132999	0	0.74	4.95	1	146.640259807999	146.644154402	"15"	14401.83013618	14365.852927213	1.5	0.1
0.01	1	0.00346386499950313	1	120	NA	160.152575132999	0	0.74	4.95	1	146.874071065	146.877534929999	"15"	14401.83013618	14365.852927213	1.5	0.1
0.01	1	0.00375721099953807	1	120	NA	160.152575132999	0	0.74	4.95	1	147.107605685	147.111362895999	"15"	14401.83013618	14365.852927213	1.5	0.1
0.01	1	0.00379406200045196	1	120	NA	160.152575132999	0	0.74	4.95	1	147.341412227999	147.34520629	"15"	14401.83013618	14365.852927213	1.5	0.1
0.01	1	0.0045729269986623	1	120	NA	160.152575132999	0	0.74	4.95	1	147.575071558	147.579644484998	"15"	14401.83013618	14365.852927213	1.5	0.1
0.01	1	0.00400373499905982	1	120	NA	160.152575132999	0	0.74	4.95	1	147.808775193	147.812778927999	"15"	14401.83013618	14365.852927213	1.5	0.1
0.01	1	0.00455950899959134	1	120	NA	160.152575132999	0	0.74	4.95	1	148.042575695999	148.047135204999	"15"	14401.83013618	14365.852927213	1.5	0.1
0.01	1	0.00453414799994789	1	120	NA	160.152575132999	0	0.74	4.95	1	148.276414006999	148.280948154999	"15"	14401.83013618	14365.852927213	1.5	0.1
0.01	1	0.00396280100176227	1	120	NA	160.152575132999	0	0.74	4.95	1	148.510025422998	148.513988224	"15"	14401.83013618	14365.852927213	1.5	0.1
0.01	1	0.00451351800074917	1	120	NA	160.152575132999	0	0.74	4.95	1	148.743745906999	148.748259425	"15"	14401.83013618	14365.852927213	1.5	0.1
0.01	1	0.00390343899925938	1	120	NA	160.152575132999	0	0.74	4.95	1	148.977463462999	148.981366901999	"15"	14401.83013618	14365.852927213	1.5	0.1
0.01	1	0.00400274200001149	1	120	NA	160.152575132999	0	0.74	4.95	1	149.21117438	149.215177122	"15"	14401.83013618	14365.852927213	1.5	0.1
0.01	1	0.0038442719996965	1	120	NA	160.152575132999	0	0.74	4.95	1	149.444942209999	149.448786481998	"15"	14401.83013618	14365.852927213	1.5	0.1
0.01	1	0.00396743899909779	1	120	NA	160.152575132999	0	0.74	4.95	1	149.678592773	149.682560211999	"15"	14401.83013618	14365.852927213	1.5	0.1
0.01	1	0.00396112599992193	1	120	NA	160.152575132999	0	0.74	4.95	1	149.912393608	149.916354733999	"15"	14401.83013618	14365.852927213	1.5	0.1
0.01	1	0.0045893820006313	1	120	NA	160.152575132999	0	0.74	4.95	1	150.146149462998	150.150738844999	"15"	14401.83013618	14365.852927213	1.5	0.1
0.01	1	0.00354587500078196	1	120	NA	160.152575132999	0	0.74	4.95	1	150.379852112999	150.383397988	"15"	14401.83013618	14365.852927213	1.5	0.1
0.01	1	0.00402024700088077	1	120	NA	160.152575132999	0	0.74	4.95	1	150.613543272999	150.61756352	"15"	14401.83013618	14365.852927213	1.5	0.1
0.01	1	0.00385069399999338	1	120	NA	160.152575132999	0	0.74	4.95	1	150.847250487999	150.851101181999	"15"	14401.83013618	14365.852927213	1.5	0.1
0.01	1	0.00387934299942572	1	120	NA	160.152575132999	0	0.74	4.95	1	151.080932212999	151.084811555998	"15"	14401.83013618	14365.852927213	1.5	0.1
0.01	1	0.00467200999992201	1	120	NA	160.152575132999	0	0.74	4.95	1	151.314924773	151.319596783	"15"	14401.83013618	14365.852927213	1.5	0.1
0.01	1	0.00394415899972955	1	120	NA	160.152575132999	0	0.74	4.95	1	151.548372212999	151.552316371999	"15"	14401.83013618	14365.852927213	1.5	0.1
0.01	1	0.00421964099950856	1	120	NA	160.152575132999	0	0.74	4.95	1	151.782213516999	151.786433157999	"15"	14401.83013618	14365.852927213	1.5	0.1
0.01	1	0.00393726800029981	1	120	NA	160.152575132999	0	0.74	4.95	1	152.015894209999	152.019831477999	"15"	14401.83013618	14365.852927213	1.5	0.1
0.01	1	0.00499189699985436	1	120	NA	160.152575132999	0	0.74	4.95	1	152.249703938	152.254695834999	"15"	14401.83013618	14365.852927213	1.5	0.1
0.01	1	0.00340900799892552	1	120	NA	160.152575132999	0	0.74	4.95	1	152.483296208	152.486705215999	"15"	14401.83013618	14365.852927213	1.5	0.1
0.01	1	0.00410086199917714	1	120	NA	160.152575132999	0	0.74	4.95	1	152.716984647999	152.721085509998	"15"	14401.83013618	14365.852927213	1.5	0.1
0.01	1	0.00382301099853066	1	120	NA	160.152575132999	0	0.74	4.95	1	152.950860563	152.954683573998	"15"	14401.83013618	14365.852927213	1.5	0.1
0.01	1	0.004617419999704	1	120	NA	160.152575132999	0	0.74	4.95	1	153.184626627999	153.189244047999	"15"	14401.83013618	14365.852927213	1.5	0.1
0.01	1	0.00369044500075688	1	120	NA	160.152575132999	0	0.74	4.95	1	153.418244884999	153.42193533	"15"	14401.83013618	14365.852927213	1.5	0.1
0.01	1	0.00357410200012964	1	120	NA	160.152575132999	0	0.74	4.95	1	153.651969049999	153.655543151999	"15"	14401.83013618	14365.852927213	1.5	0.1
0.01	1	0.00387536300149804	1	120	NA	160.152575132999	0	0.74	4.95	1	153.885671364998	153.889546728	"15"	14401.83013618	14365.852927213	1.5	0.1
0.01	1	0.00386576199889532	1	120	NA	160.152575132999	0	0.74	4.95	1	154.119454058	154.123319819999	"15"	14401.83013618	14365.852927213	1.5	0.1
0.01	1	0.00311064199922839	1	120	NA	160.152575132999	0	0.74	4.95	1	154.353204554	154.356315195999	"15"	14401.83013618	14365.852927213	1.5	0.1
0.01	1	0.00371761099995638	1	120	NA	160.152575132999	0	0.74	4.95	1	154.586803624999	154.590521235999	"15"	14401.83013618	14365.852927213	1.5	0.1
0.01	1	0.00395167500028037	1	120	NA	160.152575132999	0	0.74	4.95	1	154.820650402999	154.824602077999	"15"	14401.83013618	14365.852927213	1.5	0.1
0.01	1	0.00403714200001559	1	120	NA	160.152575132999	0	0.74	4.95	1	155.054329807999	155.058366949999	"15"	14401.83013618	14365.852927213	1.5	0.1
0.01	1	0.00403725700016366	1	120	NA	160.152575132999	0	0.74	4.95	1	155.288084882999	155.292122139999	"15"	14401.83013618	14365.852927213	1.5	0.1
0.01	1	0.00479838200044469	1	120	NA	160.152575132999	0	0.74	4.95	1	155.521812702998	155.526611084999	"15"	14401.83013618	14365.852927213	1.5	0.1
0.01	1	0.00393957099913678	1	120	NA	160.152575132999	0	0.74	4.95	1	155.755479365	155.759418935999	"15"	14401.83013618	14365.852927213	1.5	0.1
0.01	1	0.00387702599982731	1	120	NA	160.152575132999	0	0.74	4.95	1	155.989278277999	155.993155303999	"15"	14401.83013618	14365.852927213	1.5	0.1
0.01	1	0.00457825900048192	1	120	NA	160.152575132999	0	0.74	4.95	1	156.222984485999	156.227562745	"15"	14401.83013618	14365.852927213	1.5	0.1
0.01	1	0.00468622500011406	1	120	NA	160.152575132999	0	0.74	4.95	1	156.456741042999	156.461427267999	"15"	14401.83013618	14365.852927213	1.5	0.1
0.01	1	0.0049095499998657	1	120	NA	160.152575132999	0	0.74	4.95	1	156.690478127999	156.695387677999	"15"	14401.83013618	14365.852927213	1.5	0.1
0.01	1	0.00377904699962528	1	120	NA	160.152575132999	0	0.74	4.95	1	156.924144954999	156.927924001999	"15"	14401.83013618	14365.852927213	1.5	0.1
0.01	1	0.00421489200016367	1	120	NA	160.152575132999	0	0.74	4.95	1	157.157927777998	157.162142669999	"15"	14401.83013618	14365.852927213	1.5	0.1
0.01	1	0.0022512129999086	1	120	NA	160.152575132999	0	0.74	4.95	1	157.391552227	157.39380344	"15"	14401.83013618	14365.852927213	1.5	0.1
0.01	1	0.00398199300070701	1	120	NA	160.152575132999	0	0.74	4.95	1	157.625340774999	157.629322768	"15"	14401.83013618	14365.852927213	1.5	0.1
0.01	1	0.00467054000000644	1	120	NA	160.152575132999	0	0.74	4.95	1	157.859118332999	157.863788872999	"15"	14401.83013618	14365.852927213	1.5	0.1
0.01	1	0.00365223700100614	1	120	NA	160.152575132999	0	0.74	4.95	1	158.092748714998	158.096400951999	"15"	14401.83013618	14365.852927213	1.5	0.1
0.01	1	0.00406776700037881	1	120	NA	160.152575132999	0	0.74	4.95	1	158.326503202999	158.33057097	"15"	14401.83013618	14365.852927213	1.5	0.1
0.01	1	0.00417225099954521	1	120	NA	160.152575132999	0	0.74	4.95	1	158.560301424999	158.564473675999	"15"	14401.83013618	14365.852927213	1.5	0.1
0.01	1	0.00389418100166949	1	120	NA	160.152575132999	0	0.74	4.95	1	158.794036824998	158.797931006	"15"	14401.83013618	14365.852927213	1.5	0.1
0.01	1	0.00472164199891267	1	120	NA	160.152575132999	0	0.74	4.95	1	159.027807363	159.032529004999	"15"	14401.83013618	14365.852927213	1.5	0.1
0.01	1	0.00353880600050616	1	120	NA	160.152575132999	0	0.74	4.95	1	159.261421599998	159.264960405999	"15"	14401.83013618	14365.852927213	1.5	0.1
0.01	1	0.00401890200009802	1	120	NA	160.152575132999	0	0.74	4.95	1	159.495207779999	159.499226681999	"15"	14401.83013618	14365.852927213	1.5	0.1
0.01	1	0.00392799099972763	1	120	NA	160.152575132999	0	0.74	4.95	1	159.728868894999	159.732796885999	"15"	14401.83013618	14365.852927213	1.5	0.1
0.01	1	0.188111089999438	2	120	NA	160.152575132999	0	0.74	4.95	1	159.962758098	160.150869187999	"15"	14401.83013618	14365.852927213	1.5	0.1
0.01	1	0.00398024399873975	1	109	NA	170.464203273999	0	0.35	5.3	1	162.19964121	162.203621453998	"16"	14401.83013618	14365.852927213	1.5	0.1
0.01	1	0.00449261200083129	1	109	NA	170.464203273999	0	0.35	5.3	1	162.433439605999	162.437932217999	"16"	14401.83013618	14365.852927213	1.5	0.1
0.01	1	0.00401168499956839	1	109	NA	170.464203273999	0	0.35	5.3	1	162.667225932999	162.671237617998	"16"	14401.83013618	14365.852927213	1.5	0.1
0.01	1	0.003975638999691	1	109	NA	170.464203273999	0	0.35	5.3	1	162.900836465	162.904812104	"16"	14401.83013618	14365.852927213	1.5	0.1
0.01	1	0.0042550719990686	1	109	NA	170.464203273999	0	0.35	5.3	1	163.134679698	163.138934769999	"16"	14401.83013618	14365.852927213	1.5	0.1
0.01	1	0.00371333099974436	1	109	NA	170.464203273999	0	0.35	5.3	1	163.368311065	163.372024396	"16"	14401.83013618	14365.852927213	1.5	0.1
0.01	1	0.00465427500057558	1	109	NA	170.464203273999	0	0.35	5.3	1	163.602060367999	163.606714643	"16"	14401.83013618	14365.852927213	1.5	0.1
0.01	1	0.00396647299930919	1	109	NA	170.464203273999	0	0.35	5.3	1	163.835757043	163.839723515999	"16"	14401.83013618	14365.852927213	1.5	0.1
0.01	1	0.00387939100073709	1	109	NA	170.464203273999	0	0.35	5.3	1	164.069582754999	164.073462146	"16"	14401.83013618	14365.852927213	1.5	0.1
0.01	1	0.00395774900061951	1	109	NA	170.464203273999	0	0.35	5.3	1	164.303187742998	164.307145491999	"16"	14401.83013618	14365.852927213	1.5	0.1
0.01	1	0.00459676200080139	1	109	NA	170.464203273999	0	0.35	5.3	1	164.537056682999	164.541653445	"16"	14401.83013618	14365.852927213	1.5	0.1
0.01	1	0.00385349199859775	1	109	NA	170.464203273999	0	0.35	5.3	1	164.770689878	164.774543369998	"16"	14401.83013618	14365.852927213	1.5	0.1
0.01	1	0.00466227700053423	1	109	NA	170.464203273999	0	0.35	5.3	1	165.004356357998	165.009018634999	"16"	14401.83013618	14365.852927213	1.5	0.1
0.01	1	0.00471484199988481	1	109	NA	170.464203273999	0	0.35	5.3	1	165.238127183	165.242842025	"16"	14401.83013618	14365.852927213	1.5	0.1
0.01	1	0.00396037599966803	1	109	NA	170.464203273999	0	0.35	5.3	1	165.47186351	165.475823885999	"16"	14401.83013618	14365.852927213	1.5	0.1
0.01	1	0.00373010800103657	1	109	NA	170.464203273999	0	0.35	5.3	1	165.705665447998	165.709395555999	"16"	14401.83013618	14365.852927213	1.5	0.1
0.01	1	0.00437888699889299	1	109	NA	170.464203273999	0	0.35	5.3	1	165.939301003	165.943679889999	"16"	14401.83013618	14365.852927213	1.5	0.1
0.01	1	0.00390787699870998	1	109	NA	170.464203273999	0	0.35	5.3	1	166.172944283	166.176852159999	"16"	14401.83013618	14365.852927213	1.5	0.1
0.01	1	0.0033839240004454	1	109	NA	170.464203273999	0	0.35	5.3	1	166.406765387999	166.410149312	"16"	14401.83013618	14365.852927213	1.5	0.1
0.01	1	0.00368326399984653	1	109	NA	170.464203273999	0	0.35	5.3	1	166.640474377999	166.644157641998	"16"	14401.83013618	14365.852927213	1.5	0.1
0.01	1	0.00404942000022857	1	109	NA	170.464203273999	0	0.35	5.3	1	166.874233928	166.878283348	"16"	14401.83013618	14365.852927213	1.5	0.1
0.01	1	0.00471237800047675	1	109	NA	170.464203273999	0	0.35	5.3	1	167.107936916998	167.112649294999	"16"	14401.83013618	14365.852927213	1.5	0.1
0.01	1	0.00436472200090066	1	109	NA	170.464203273999	0	0.35	5.3	1	167.341745222999	167.346109945	"16"	14401.83013618	14365.852927213	1.5	0.1
0.01	1	0.00338222400023369	1	109	NA	170.464203273999	0	0.35	5.3	1	167.575362673999	167.578744897999	"16"	14401.83013618	14365.852927213	1.5	0.1
0.01	1	0.00460427200050617	1	109	NA	170.464203273999	0	0.35	5.3	1	167.809085417999	167.81368969	"16"	14401.83013618	14365.852927213	1.5	0.1
0.01	1	0.00399576599920692	1	109	NA	170.464203273999	0	0.35	5.3	1	168.042834238	168.046830003999	"16"	14401.83013618	14365.852927213	1.5	0.1
0.01	1	0.0040319220006495	1	109	NA	170.464203273999	0	0.35	5.3	1	168.276570807999	168.280602729999	"16"	14401.83013618	14365.852927213	1.5	0.1
0.01	1	0.0046135669999785	1	109	NA	170.464203273999	0	0.35	5.3	1	168.510543077999	168.515156644999	"16"	14401.83013618	14365.852927213	1.5	0.1
0.01	1	0.0035279530002299	1	109	NA	170.464203273999	0	0.35	5.3	1	168.744024174999	168.747552127999	"16"	14401.83013618	14365.852927213	1.5	0.1
0.01	1	0.00385300000016287	1	109	NA	170.464203273999	0	0.35	5.3	1	168.977795437999	168.981648437999	"16"	14401.83013618	14365.852927213	1.5	0.1
0.01	1	0.00393255200106069	1	109	NA	170.464203273999	0	0.35	5.3	1	169.211458017999	169.21539057	"16"	14401.83013618	14365.852927213	1.5	0.1
0.01	1	0.00474214700079756	1	109	NA	170.464203273999	0	0.35	5.3	1	169.445203587999	169.449945734999	"16"	14401.83013618	14365.852927213	1.5	0.1
0.01	1	0.00388497099993401	1	109	NA	170.464203273999	0	0.35	5.3	1	169.678887574999	169.682772545999	"16"	14401.83013618	14365.852927213	1.5	0.1
0.01	1	0.00336471999980859	1	109	NA	170.464203273999	0	0.35	5.3	1	169.912643004	169.916007723999	"16"	14401.83013618	14365.852927213	1.5	0.1
0.01	1	0.00391076199957752	1	109	NA	170.464203273999	0	0.35	5.3	1	170.14640437	170.150315131999	"16"	14401.83013618	14365.852927213	1.5	0.1
0.01	1	0.0824417359999643	2	109	NA	170.464203273999	0	0.35	5.3	1	170.380081169998	170.462522905998	"16"	14401.83013618	14365.852927213	1.5	0.1
0.01	1	0.00377396099975158	1	71	NA	180.825162264	0	0.35	5.65	1	172.517006225	172.520780186	"17"	14401.83013618	14365.852927213	1.5	0.1
0.01	1	0.00395058799949766	1	71	NA	180.825162264	0	0.35	5.65	1	172.750766218	172.754716805999	"17"	14401.83013618	14365.852927213	1.5	0.1
0.01	1	0.00376356199922157	1	71	NA	180.825162264	0	0.35	5.65	1	172.98448365	172.988247211999	"17"	14401.83013618	14365.852927213	1.5	0.1
0.01	1	0.00376569999934873	1	71	NA	180.825162264	0	0.35	5.65	1	173.218235658	173.222001357999	"17"	14401.83013618	14365.852927213	1.5	0.1
0.01	1	0.00465403199996217	1	71	NA	180.825162264	0	0.35	5.65	1	173.451917152999	173.456571184999	"17"	14401.83013618	14365.852927213	1.5	0.1
0.01	1	0.00392545800059452	1	71	NA	180.825162264	0	0.35	5.65	1	173.685757769999	173.689683228	"17"	14401.83013618	14365.852927213	1.5	0.1
0.01	1	0.00387914600105432	1	71	NA	180.825162264	0	0.35	5.65	1	173.919390617999	173.923269764	"17"	14401.83013618	14365.852927213	1.5	0.1
0.01	1	0.00470404000043345	1	71	NA	180.825162264	0	0.35	5.65	1	174.153140257999	174.157844297999	"17"	14401.83013618	14365.852927213	1.5	0.1
0.01	1	0.00330805399971723	1	71	NA	180.825162264	0	0.35	5.65	1	174.386803403999	174.390111457999	"17"	14401.83013618	14365.852927213	1.5	0.1
0.01	1	0.00342375099899073	1	71	NA	180.825162264	0	0.35	5.65	1	174.620620135	174.624043885999	"17"	14401.83013618	14365.852927213	1.5	0.1
0.01	1	0.00388811999982863	1	71	NA	180.825162264	0	0.35	5.65	1	174.854382527999	174.858270647999	"17"	14401.83013618	14365.852927213	1.5	0.1
0.01	1	0.00389376299972355	1	71	NA	180.825162264	0	0.35	5.65	1	175.088092112999	175.091985875999	"17"	14401.83013618	14365.852927213	1.5	0.1
0.01	1	0.00478212099915254	1	71	NA	180.825162264	0	0.35	5.65	1	175.321806127	175.326588247999	"17"	14401.83013618	14365.852927213	1.5	0.1
0.01	1	0.00385503299912671	1	71	NA	180.825162264	0	0.35	5.65	1	175.555494965	175.559349997999	"17"	14401.83013618	14365.852927213	1.5	0.1
0.01	1	0.00225040300028923	1	71	NA	180.825162264	0	0.35	5.65	1	175.789231724999	175.791482127999	"17"	14401.83013618	14365.852927213	1.5	0.1
0.01	1	0.00493134999851463	1	71	NA	180.825162264	0	0.35	5.65	1	176.023062843	176.027994192998	"17"	14401.83013618	14365.852927213	1.5	0.1
0.01	1	0.00390192499980913	1	71	NA	180.825162264	0	0.35	5.65	1	176.256674032998	176.260575957998	"17"	14401.83013618	14365.852927213	1.5	0.1
0.01	1	0.00380463900000905	1	71	NA	180.825162264	0	0.35	5.65	1	176.490478432999	176.494283071999	"17"	14401.83013618	14365.852927213	1.5	0.1
0.01	1	0.00463300999945204	1	71	NA	180.825162264	0	0.35	5.65	1	176.724054587999	176.728687597999	"17"	14401.83013618	14365.852927213	1.5	0.1
0.01	1	0.00387027499891701	1	71	NA	180.825162264	0	0.35	5.65	1	176.957770903	176.961641177999	"17"	14401.83013618	14365.852927213	1.5	0.1
0.01	1	0.00459700000101293	1	71	NA	180.825162264	0	0.35	5.65	1	177.191675942999	177.196272943	"17"	14401.83013618	14365.852927213	1.5	0.1
0.01	1	0.00399450600161799	1	71	NA	180.825162264	0	0.35	5.65	1	177.425293437998	177.429287944	"17"	14401.83013618	14365.852927213	1.5	0.1
0.01	1	0.00399617299990496	1	71	NA	180.825162264	0	0.35	5.65	1	177.659007814998	177.663003987998	"17"	14401.83013618	14365.852927213	1.5	0.1
0.01	1	0.0035114580005029	1	71	NA	180.825162264	0	0.35	5.65	1	177.892816778	177.896328236	"17"	14401.83013618	14365.852927213	1.5	0.1
0.01	1	0.00389084400012507	1	71	NA	180.825162264	0	0.35	5.65	1	178.126446889999	178.130337733999	"17"	14401.83013618	14365.852927213	1.5	0.1
0.01	1	0.00379259400142473	1	71	NA	180.825162264	0	0.35	5.65	1	178.360200137999	178.363992732	"17"	14401.83013618	14365.852927213	1.5	0.1
0.01	1	0.00398449000022083	1	71	NA	180.825162264	0	0.35	5.65	1	178.593920988	178.597905478	"17"	14401.83013618	14365.852927213	1.5	0.1
0.01	1	0.00397967199933191	1	71	NA	180.825162264	0	0.35	5.65	1	178.827725968	178.831705639999	"17"	14401.83013618	14365.852927213	1.5	0.1
0.01	1	0.00462225200135435	1	71	NA	180.825162264	0	0.35	5.65	1	179.061424832998	179.066047085	"17"	14401.83013618	14365.852927213	1.5	0.1
0.01	1	0.00397831600093923	1	71	NA	180.825162264	0	0.35	5.65	1	179.295102967999	179.299081284	"17"	14401.83013618	14365.852927213	1.5	0.1
0.01	1	0.00392094099879614	1	71	NA	180.825162264	0	0.35	5.65	1	179.528875315	179.532796255999	"17"	14401.83013618	14365.852927213	1.5	0.1
0.01	1	0.00444814299953578	1	71	NA	180.825162264	0	0.35	5.65	1	179.762531266999	179.766979409998	"17"	14401.83013618	14365.852927213	1.5	0.1
0.01	1	0.00340182600120897	1	71	NA	180.825162264	0	0.35	5.65	1	179.996342949999	179.999744776	"17"	14401.83013618	14365.852927213	1.5	0.1
0.01	1	0.00397759199950087	1	71	NA	180.825162264	0	0.35	5.65	1	180.23001831	180.233995901999	"17"	14401.83013618	14365.852927213	1.5	0.1
0.01	1	0.00422609100132831	1	71	NA	180.825162264	0	0.35	5.65	1	180.463750494999	180.467976586	"17"	14401.83013618	14365.852927213	1.5	0.1
0.01	1	0.126005826999972	2	71	NA	180.825162264	0	0.35	5.65	1	180.697493258	180.823499085	"17"	14401.83013618	14365.852927213	1.5	0.1
0.01	1	0.563601449999624	1	96	NA	193.104729543	0	0.41	6.06	1	182.867788604999	183.431390054999	"18"	14401.83013618	14365.852927213	1.5	0.1
0.01	1	0.00394454699926428	1	96	NA	193.104729543	0	0.41	6.06	1	183.669135823	183.673080369999	"18"	14401.83013618	14365.852927213	1.5	0.1
0.01	1	0.00464399200063781	1	96	NA	193.104729543	0	0.41	6.06	1	183.902973857999	183.90761785	"18"	14401.83013618	14365.852927213	1.5	0.1
0.01	1	0.00417707599990536	1	96	NA	193.104729543	0	0.41	6.06	1	184.136589897998	184.140766973998	"18"	14401.83013618	14365.852927213	1.5	0.1
0.01	1	0.0033453260002716	1	96	NA	193.104729543	0	0.41	6.06	1	184.370258632	184.373603958	"18"	14401.83013618	14365.852927213	1.5	0.1
0.01	1	0.0037292669985618	1	96	NA	193.104729543	0	0.41	6.06	1	184.603977895	184.607707161998	"18"	14401.83013618	14365.852927213	1.5	0.1
0.01	1	0.00432139099939377	1	96	NA	193.104729543	0	0.41	6.06	1	184.837842306999	184.842163697998	"18"	14401.83013618	14365.852927213	1.5	0.1
0.01	1	0.00460011499853863	1	96	NA	193.104729543	0	0.41	6.06	1	185.071510688	185.076110802998	"18"	14401.83013618	14365.852927213	1.5	0.1
0.01	1	0.00372124800014717	1	96	NA	193.104729543	0	0.41	6.06	1	185.305152249999	185.308873497999	"18"	14401.83013618	14365.852927213	1.5	0.1
0.01	1	0.00349595599982422	1	96	NA	193.104729543	0	0.41	6.06	1	185.538961787999	185.542457743999	"18"	14401.83013618	14365.852927213	1.5	0.1
0.01	1	0.00400029000047653	1	96	NA	193.104729543	0	0.41	6.06	1	185.772638287999	185.776638578	"18"	14401.83013618	14365.852927213	1.5	0.1
0.01	1	0.00449833699894953	1	96	NA	193.104729543	0	0.41	6.06	1	186.006397948	186.010896284999	"18"	14401.83013618	14365.852927213	1.5	0.1
0.01	1	0.00402588499855483	1	96	NA	193.104729543	0	0.41	6.06	1	186.240111215	186.244137099999	"18"	14401.83013618	14365.852927213	1.5	0.1
0.01	1	0.00335772600010387	1	96	NA	193.104729543	0	0.41	6.06	1	186.473932436	186.477290162	"18"	14401.83013618	14365.852927213	1.5	0.1
0.01	1	0.00353843700031575	1	96	NA	193.104729543	0	0.41	6.06	1	186.707613195	186.711151632	"18"	14401.83013618	14365.852927213	1.5	0.1
0.01	1	0.00393322600029933	1	96	NA	193.104729543	0	0.41	6.06	1	186.941288689999	186.945221915999	"18"	14401.83013618	14365.852927213	1.5	0.1
0.01	1	0.00432061100036663	1	96	NA	193.104729543	0	0.41	6.06	1	187.175080666999	187.179401277999	"18"	14401.83013618	14365.852927213	1.5	0.1
0.01	1	0.00397613600034674	1	96	NA	193.104729543	0	0.41	6.06	1	187.408767097999	187.412743233999	"18"	14401.83013618	14365.852927213	1.5	0.1
0.01	1	0.00395743999979459	1	96	NA	193.104729543	0	0.41	6.06	1	187.642511258	187.646468698	"18"	14401.83013618	14365.852927213	1.5	0.1
0.01	1	0.00384010400011903	1	96	NA	193.104729543	0	0.41	6.06	1	187.8762056	187.880045704	"18"	14401.83013618	14365.852927213	1.5	0.1
0.01	1	0.00396262100002787	1	96	NA	193.104729543	0	0.41	6.06	1	188.109936614999	188.113899235999	"18"	14401.83013618	14365.852927213	1.5	0.1
0.01	1	0.00396387699947809	1	96	NA	193.104729543	0	0.41	6.06	1	188.343686593	188.347650469999	"18"	14401.83013618	14365.852927213	1.5	0.1
0.01	1	0.00398981000034837	1	96	NA	193.104729543	0	0.41	6.06	1	188.577366947999	188.581356757999	"18"	14401.83013618	14365.852927213	1.5	0.1
0.01	1	0.00224488099956943	1	96	NA	193.104729543	0	0.41	6.06	1	188.811005505999	188.813250386998	"18"	14401.83013618	14365.852927213	1.5	0.1
0.01	1	0.00401276499906089	1	96	NA	193.104729543	0	0.41	6.06	1	189.044748593	189.048761357999	"18"	14401.83013618	14365.852927213	1.5	0.1
0.01	1	0.00403371500033245	1	96	NA	193.104729543	0	0.41	6.06	1	189.278555724999	189.282589439999	"18"	14401.83013618	14365.852927213	1.5	0.1
0.01	1	0.00464417200055323	1	96	NA	193.104729543	0	0.41	6.06	1	189.512307862999	189.516952034999	"18"	14401.83013618	14365.852927213	1.5	0.1
0.01	1	0.00334039200060943	1	96	NA	193.104729543	0	0.41	6.06	1	189.746065927999	189.749406319999	"18"	14401.83013618	14365.852927213	1.5	0.1
0.01	1	0.00389557299968146	1	96	NA	193.104729543	0	0.41	6.06	1	189.979722894999	189.983618467999	"18"	14401.83013618	14365.852927213	1.5	0.1
0.01	1	0.00386450299993157	1	96	NA	193.104729543	0	0.41	6.06	1	190.213549372998	190.217413875998	"18"	14401.83013618	14365.852927213	1.5	0.1
0.01	1	0.00373543500063533	1	96	NA	193.104729543	0	0.41	6.06	1	190.447283784999	190.45101922	"18"	14401.83013618	14365.852927213	1.5	0.1
0.01	1	0.00383000999863725	1	96	NA	193.104729543	0	0.41	6.06	1	190.680958698	190.684788707998	"18"	14401.83013618	14365.852927213	1.5	0.1
0.01	1	0.00397848899956443	1	96	NA	193.104729543	0	0.41	6.06	1	190.914627335	190.918605823999	"18"	14401.83013618	14365.852927213	1.5	0.1
0.01	1	0.00379856200015638	1	96	NA	193.104729543	0	0.41	6.06	1	191.148335377999	191.152133939999	"18"	14401.83013618	14365.852927213	1.5	0.1
0.01	1	0.00445403199955763	1	96	NA	193.104729543	0	0.41	6.06	1	191.382093253	191.386547284999	"18"	14401.83013618	14365.852927213	1.5	0.1
0.01	1	0.00465957499909564	1	96	NA	193.104729543	0	0.41	6.06	1	191.615880808	191.620540382999	"18"	14401.83013618	14365.852927213	1.5	0.1
0.01	1	0.00472629500109178	1	96	NA	193.104729543	0	0.41	6.06	1	191.849537467999	191.854263763	"18"	14401.83013618	14365.852927213	1.5	0.1
0.01	1	0.00357419500141987	1	96	NA	193.104729543	0	0.41	6.06	1	192.083370884999	192.08694508	"18"	14401.83013618	14365.852927213	1.5	0.1
0.01	1	0.00405158200010192	1	96	NA	193.104729543	0	0.41	6.06	1	192.316997627999	192.321049209999	"18"	14401.83013618	14365.852927213	1.5	0.1
0.01	1	0.00392871300027764	1	96	NA	193.104729543	0	0.41	6.06	1	192.550688312998	192.554617025999	"18"	14401.83013618	14365.852927213	1.5	0.1
0.01	1	0.00402855799984536	1	96	NA	193.104729543	0	0.41	6.06	1	192.784491908	192.788520466	"18"	14401.83013618	14365.852927213	1.5	0.1
0.01	1	0.0847959540005832	2	96	NA	193.104729543	0	0.41	6.06	1	193.018237152999	193.103033107	"18"	14401.83013618	14365.852927213	1.5	0.1
0.01	1	0.0040243109997391	1	91	NA	207.625382877999	0	0.51	6.57	1	195.138508222999	195.142532533999	"19"	14401.83013618	14365.852927213	1.5	0.1
0.01	1	0.00390330499976699	1	91	NA	207.625382877999	0	0.51	6.57	1	195.372082213	195.375985518	"19"	14401.83013618	14365.852927213	1.5	0.1
0.01	1	0.00464927199936938	1	91	NA	207.625382877999	0	0.51	6.57	1	195.605870682999	195.610519954998	"19"	14401.83013618	14365.852927213	1.5	0.1
0.01	1	0.0022254650011746	1	91	NA	207.625382877999	0	0.51	6.57	1	195.839535686999	195.841761152	"19"	14401.83013618	14365.852927213	1.5	0.1
0.01	1	0.00431053899956169	1	91	NA	207.625382877999	0	0.51	6.57	1	196.073331510999	196.077642049999	"19"	14401.83013618	14365.852927213	1.5	0.1
0.01	1	0.00498164999953588	1	91	NA	207.625382877999	0	0.51	6.57	1	196.307198793	196.312180442999	"19"	14401.83013618	14365.852927213	1.5	0.1
0.01	1	0.00392729200029862	1	91	NA	207.625382877999	0	0.51	6.57	1	196.540751769999	196.544679061999	"19"	14401.83013618	14365.852927213	1.5	0.1
0.01	1	0.00401584000064759	1	91	NA	207.625382877999	0	0.51	6.57	1	196.774540127999	196.778555968	"19"	14401.83013618	14365.852927213	1.5	0.1
0.01	1	0.00460871499853965	1	91	NA	207.625382877999	0	0.51	6.57	1	197.00823046	197.012839174999	"19"	14401.83013618	14365.852927213	1.5	0.1
0.01	1	0.004639059998226	1	91	NA	207.625382877999	0	0.51	6.57	1	197.241978938	197.246617997998	"19"	14401.83013618	14365.852927213	1.5	0.1
0.01	1	0.00400523999996949	1	91	NA	207.625382877999	0	0.51	6.57	1	197.475672178	197.479677417999	"19"	14401.83013618	14365.852927213	1.5	0.1
0.01	1	0.00353494699993462	1	91	NA	207.625382877999	0	0.51	6.57	1	197.709316544999	197.712851491999	"19"	14401.83013618	14365.852927213	1.5	0.1
0.01	1	0.00371181800073828	1	91	NA	207.625382877999	0	0.51	6.57	1	197.943154769999	197.946866587999	"19"	14401.83013618	14365.852927213	1.5	0.1
0.01	1	0.00393486900065909	1	91	NA	207.625382877999	0	0.51	6.57	1	198.176785342999	198.180720212	"19"	14401.83013618	14365.852927213	1.5	0.1
0.01	1	0.00400674999946204	1	91	NA	207.625382877999	0	0.51	6.57	1	198.410797298	198.414804047999	"19"	14401.83013618	14365.852927213	1.5	0.1
0.01	1	0.00401254800090101	1	91	NA	207.625382877999	0	0.51	6.57	1	198.644359009999	198.648371558	"19"	14401.83013618	14365.852927213	1.5	0.1
0.01	1	0.00337800600027549	1	91	NA	207.625382877999	0	0.51	6.57	1	198.878086956	198.881464962	"19"	14401.83013618	14365.852927213	1.5	0.1
0.01	1	0.00376630299979297	1	91	NA	207.625382877999	0	0.51	6.57	1	199.111795994999	199.115562297999	"19"	14401.83013618	14365.852927213	1.5	0.1
0.01	1	0.00340953800150601	1	91	NA	207.625382877999	0	0.51	6.57	1	199.345511705998	199.348921244	"19"	14401.83013618	14365.852927213	1.5	0.1
0.01	1	0.00355381200097327	1	91	NA	207.625382877999	0	0.51	6.57	1	199.579183067999	199.58273688	"19"	14401.83013618	14365.852927213	1.5	0.1
0.01	1	0.00396484600059921	1	91	NA	207.625382877999	0	0.51	6.57	1	199.812926447999	199.816891294	"19"	14401.83013618	14365.852927213	1.5	0.1
0.01	1	0.00468031499985955	1	91	NA	207.625382877999	0	0.51	6.57	1	200.046711412999	200.051391727999	"19"	14401.83013618	14365.852927213	1.5	0.1
0.01	1	0.00365225200039276	1	91	NA	207.625382877999	0	0.51	6.57	1	200.280396017999	200.284048269999	"19"	14401.83013618	14365.852927213	1.5	0.1
0.01	1	0.00384079499963264	1	91	NA	207.625382877999	0	0.51	6.57	1	200.514054403	200.517895198	"19"	14401.83013618	14365.852927213	1.5	0.1
0.01	1	0.00469009900007222	1	91	NA	207.625382877999	0	0.51	6.57	1	200.747929163999	200.752619262999	"19"	14401.83013618	14365.852927213	1.5	0.1
0.01	1	0.00442161499995564	1	91	NA	207.625382877999	0	0.51	6.57	1	200.981635303	200.986056918	"19"	14401.83013618	14365.852927213	1.5	0.1
0.01	1	0.00376091600082873	1	91	NA	207.625382877999	0	0.51	6.57	1	201.215318549999	201.219079466	"19"	14401.83013618	14365.852927213	1.5	0.1
0.01	1	0.00387723000130791	1	91	NA	207.625382877999	0	0.51	6.57	1	201.449013099998	201.45289033	"19"	14401.83013618	14365.852927213	1.5	0.1
0.01	1	0.00465061700015212	1	91	NA	207.625382877999	0	0.51	6.57	1	201.682813977999	201.687464594999	"19"	14401.83013618	14365.852927213	1.5	0.1
0.01	1	0.0046147570010362	1	91	NA	207.625382877999	0	0.51	6.57	1	201.916448987999	201.921063745	"19"	14401.83013618	14365.852927213	1.5	0.1
0.01	1	0.0033293020005658	1	91	NA	207.625382877999	0	0.51	6.57	1	202.150209693998	202.153538995999	"19"	14401.83013618	14365.852927213	1.5	0.1
0.01	1	0.00355386000046565	1	91	NA	207.625382877999	0	0.51	6.57	1	202.383985467999	202.387539328	"19"	14401.83013618	14365.852927213	1.5	0.1
0.01	1	0.00352537100116024	1	91	NA	207.625382877999	0	0.51	6.57	1	202.617668964998	202.621194335999	"19"	14401.83013618	14365.852927213	1.5	0.1
0.01	1	0.0039615120003873	1	91	NA	207.625382877999	0	0.51	6.57	1	202.851362767999	202.855324279999	"19"	14401.83013618	14365.852927213	1.5	0.1
0.01	1	0.00398639299964998	1	91	NA	207.625382877999	0	0.51	6.57	1	203.085180225	203.089166618	"19"	14401.83013618	14365.852927213	1.5	0.1
0.01	1	0.00388349100103369	1	91	NA	207.625382877999	0	0.51	6.57	1	203.318848522998	203.322732013999	"19"	14401.83013618	14365.852927213	1.5	0.1
0.01	1	0.0037488210000447	1	91	NA	207.625382877999	0	0.51	6.57	1	203.552577934999	203.556326755999	"19"	14401.83013618	14365.852927213	1.5	0.1
0.01	1	0.0039498400001321	1	91	NA	207.625382877999	0	0.51	6.57	1	203.786320847999	203.790270688	"19"	14401.83013618	14365.852927213	1.5	0.1
0.01	1	0.00459290999970108	1	91	NA	207.625382877999	0	0.51	6.57	1	204.020121682999	204.024714592999	"19"	14401.83013618	14365.852927213	1.5	0.1
0.01	1	0.00379842199981795	1	91	NA	207.625382877999	0	0.51	6.57	1	204.253743067999	204.257541489998	"19"	14401.83013618	14365.852927213	1.5	0.1
0.01	1	0.00342966499920294	1	91	NA	207.625382877999	0	0.51	6.57	1	204.487480272999	204.490909937998	"19"	14401.83013618	14365.852927213	1.5	0.1
0.01	1	0.00382444400020177	1	91	NA	207.625382877999	0	0.51	6.57	1	204.721173647999	204.724998091999	"19"	14401.83013618	14365.852927213	1.5	0.1
0.01	1	0.0021480059986061	1	91	NA	207.625382877999	0	0.51	6.57	1	204.954969658	204.957117663998	"19"	14401.83013618	14365.852927213	1.5	0.1
0.01	1	0.00211363199923653	1	91	NA	207.625382877999	0	0.51	6.57	1	205.188717585999	205.190831217998	"19"	14401.83013618	14365.852927213	1.5	0.1
0.01	1	0.00394511299964506	1	91	NA	207.625382877999	0	0.51	6.57	1	205.422426603	205.426371715999	"19"	14401.83013618	14365.852927213	1.5	0.1
0.01	1	0.00378755100064154	1	91	NA	207.625382877999	0	0.51	6.57	1	205.656129702998	205.659917253999	"19"	14401.83013618	14365.852927213	1.5	0.1
0.01	1	0.00466195500121103	1	91	NA	207.625382877999	0	0.51	6.57	1	205.889898087999	205.894560043	"19"	14401.83013618	14365.852927213	1.5	0.1
0.01	1	0.00401726600102847	1	91	NA	207.625382877999	0	0.51	6.57	1	206.123617907999	206.127635174	"19"	14401.83013618	14365.852927213	1.5	0.1
0.01	1	0.00386209300086193	1	91	NA	207.625382877999	0	0.51	6.57	1	206.357331592999	206.361193686	"19"	14401.83013618	14365.852927213	1.5	0.1
0.01	1	0.0033528980002302	1	91	NA	207.625382877999	0	0.51	6.57	1	206.591045997999	206.594398895999	"19"	14401.83013618	14365.852927213	1.5	0.1
0.01	1	0.00392879500031995	1	91	NA	207.625382877999	0	0.51	6.57	1	206.824735024999	206.828663819999	"19"	14401.83013618	14365.852927213	1.5	0.1
0.01	1	0.565234229999987	2	91	NA	207.625382877999	0	0.51	6.57	1	207.058464977999	207.623699207999	"19"	14401.83013618	14365.852927213	1.5	0.1
0.01	1	0.00395328300146502	1	5	210.734437927998	NA	1	0	6.57	1	209.679498472999	209.683451756	"20"	14401.83013618	14365.852927213	1.5	0.1
0.01	1	0.00383642700035125	1	5	210.734437927998	NA	1	0	6.57	1	209.913282412999	209.91711884	"20"	14401.83013618	14365.852927213	1.5	0.1
0.01	1	0.00355140700048651	1	5	210.734437927998	NA	1	0	6.57	1	210.146976683	210.15052809	"20"	14401.83013618	14365.852927213	1.5	0.1
0.01	1	0.00363215899960778	1	5	210.734437927998	NA	1	0	6.57	1	210.380656923	210.384289082	"20"	14401.83013618	14365.852927213	1.5	0.1
0.01	1	0.00367062800069107	1	5	210.734437927998	NA	1	0	6.57	1	210.614418007999	210.618088636	"20"	14401.83013618	14365.852927213	1.5	0.1
0.01	1	4.18330569600039	1	123	NA	226.688127359999	0	0.41	6.98	1	212.784713354999	216.968019050999	"21"	14401.83013618	14365.852927213	1.5	0.1
0.01	1	0.00450828499924683	1	123	NA	226.688127359999	0	0.41	6.98	1	217.2088625	217.213370784999	"21"	14401.83013618	14365.852927213	1.5	0.1
0.01	1	0.00386339900069288	1	123	NA	226.688127359999	0	0.41	6.98	1	217.442536492999	217.446399892	"21"	14401.83013618	14365.852927213	1.5	0.1
0.01	1	0.00391121900065627	1	123	NA	226.688127359999	0	0.41	6.98	1	217.676333722999	217.680244941999	"21"	14401.83013618	14365.852927213	1.5	0.1
0.01	1	0.00354551000054926	1	123	NA	226.688127359999	0	0.41	6.98	1	217.910095087998	217.913640597999	"21"	14401.83013618	14365.852927213	1.5	0.1
0.01	1	0.0035517920005077	1	123	NA	226.688127359999	0	0.41	6.98	1	218.143762857999	218.147314649999	"21"	14401.83013618	14365.852927213	1.5	0.1
0.01	1	0.00396325699875888	1	123	NA	226.688127359999	0	0.41	6.98	1	218.377567635	218.381530891998	"21"	14401.83013618	14365.852927213	1.5	0.1
0.01	1	0.00393194600110292	1	123	NA	226.688127359999	0	0.41	6.98	1	218.611272909999	218.615204856	"21"	14401.83013618	14365.852927213	1.5	0.1
0.01	1	0.00391982799919788	1	123	NA	226.688127359999	0	0.41	6.98	1	218.84493451	218.848854337999	"21"	14401.83013618	14365.852927213	1.5	0.1
0.01	1	0.0038186650017451	1	123	NA	226.688127359999	0	0.41	6.98	1	219.078732282998	219.082550948	"21"	14401.83013618	14365.852927213	1.5	0.1
0.01	1	0.00411701099983475	1	123	NA	226.688127359999	0	0.41	6.98	1	219.312415113	219.316532123999	"21"	14401.83013618	14365.852927213	1.5	0.1
0.01	1	0.00402489899897773	1	123	NA	226.688127359999	0	0.41	6.98	1	219.546160405	219.550185303999	"21"	14401.83013618	14365.852927213	1.5	0.1
0.01	1	0.00420588300039526	1	123	NA	226.688127359999	0	0.41	6.98	1	219.779932292999	219.784138175999	"21"	14401.83013618	14365.852927213	1.5	0.1
0.01	1	0.00446702400040522	1	123	NA	226.688127359999	0	0.41	6.98	1	220.013514630999	220.017981654999	"21"	14401.83013618	14365.852927213	1.5	0.1
0.01	1	0.00397032000000763	1	123	NA	226.688127359999	0	0.41	6.98	1	220.247323357999	220.251293677999	"21"	14401.83013618	14365.852927213	1.5	0.1
0.01	1	0.00395094699888432	1	123	NA	226.688127359999	0	0.41	6.98	1	220.481144353	220.485095299999	"21"	14401.83013618	14365.852927213	1.5	0.1
0.01	1	0.00398873800077126	1	123	NA	226.688127359999	0	0.41	6.98	1	220.714750257999	220.718738996	"21"	14401.83013618	14365.852927213	1.5	0.1
0.01	1	0.00372935099949245	1	123	NA	226.688127359999	0	0.41	6.98	1	220.948524165	220.952253515999	"21"	14401.83013618	14365.852927213	1.5	0.1
