"payoff.level"	"balloon"	"rt"	"resp"	"explode.trial"	"explode.time"	"finish.time"	"exploded"	"trial.total"	"cumulative.total"	"finished"	"trial.start"	"trial.end"	"trial.num"	"secs"	"start.time"	"iti"	"isi"
0.01	1	1.73931094299951	1	64	NA	7.91313657599858	0	0.09	0.09	1	0.0183412520000275	1.75765219499954	"1"	9618.776349716	9616.605482679	1.5	0.1
0.01	1	0.495667461000266	1	64	NA	7.91313657599858	0	0.09	0.09	1	2.05501792199902	2.55068538299929	"1"	9618.776349716	9616.605482679	1.5	0.1
0.01	1	0.384499429999778	1	64	NA	7.91313657599858	0	0.09	0.09	1	2.77310760999899	3.15760703999877	"1"	9618.776349716	9616.605482679	1.5	0.1
0.01	1	0.415728012001637	1	64	NA	7.91313657599858	0	0.09	0.09	1	3.39061721099824	3.80634522299988	"1"	9618.776349716	9616.605482679	1.5	0.1
0.01	1	0.308860622999418	1	64	NA	7.91313657599858	0	0.09	0.09	1	4.041850874999	4.35071149799842	"1"	9618.776349716	9616.605482679	1.5	0.1
0.01	1	0.310587981999561	1	64	NA	7.91313657599858	0	0.09	0.09	1	4.57592299499993	4.88651097699949	"1"	9618.776349716	9616.605482679	1.5	0.1
0.01	1	1.02366941999935	1	64	NA	7.91313657599858	0	0.09	0.09	1	5.12697962499988	6.15064904499923	"1"	9618.776349716	9616.605482679	1.5	0.1
0.01	1	0.403534185999888	1	64	NA	7.91313657599858	0	0.09	0.09	1	6.37895110499994	6.78248529099983	"1"	9618.776349716	9616.605482679	1.5	0.1
0.01	1	0.352742812001452	1	64	NA	7.91313657599858	0	0.09	0.09	1	7.01348534999852	7.36622816199997	"1"	9618.776349716	9616.605482679	1.5	0.1
0.01	1	0.313701873001264	2	64	NA	7.91313657599858	0	0.09	0.09	1	7.59774722199836	7.91144909499963	"1"	9618.776349716	9616.605482679	1.5	0.1
0.01	1	0.694639851000829	1	102	NA	21.3610314699999	0	0.26	0.35	1	9.95172227699913	10.646362128	"2"	9618.776349716	9616.605482679	1.5	0.1
0.01	1	0.36737361500127	1	102	NA	21.3610314699999	0	0.26	0.35	1	10.8866548849983	11.2540284999995	"2"	9618.776349716	9616.605482679	1.5	0.1
0.01	1	0.326135104000059	1	102	NA	21.3610314699999	0	0.26	0.35	1	11.4875534049988	11.8136885089989	"2"	9618.776349716	9616.605482679	1.5	0.1
0.01	1	0.287369542000306	1	102	NA	21.3610314699999	0	0.26	0.35	1	12.0385475699986	12.3259171119989	"2"	9618.776349716	9616.605482679	1.5	0.1
0.01	1	0.290928194999651	1	102	NA	21.3610314699999	0	0.26	0.35	1	12.5561629699987	12.8470911649983	"2"	9618.776349716	9616.605482679	1.5	0.1
0.01	1	0.141313422000167	1	102	NA	21.3610314699999	0	0.26	0.35	1	13.0735659849997	13.2148794069999	"2"	9618.776349716	9616.605482679	1.5	0.1
0.01	1	0.0187831759994879	1	102	NA	21.3610314699999	0	0.26	0.35	1	13.4407110419997	13.4594942179992	"2"	9618.776349716	9616.605482679	1.5	0.1
0.01	1	0.0510199389991612	1	102	NA	21.3610314699999	0	0.26	0.35	1	13.6913457699993	13.7423657089985	"2"	9618.776349716	9616.605482679	1.5	0.1
0.01	1	0.41533847699975	1	102	NA	21.3610314699999	0	0.26	0.35	1	13.975112017999	14.3904504949987	"2"	9618.776349716	9616.605482679	1.5	0.1
0.01	1	0.140522378000242	1	102	NA	21.3610314699999	0	0.26	0.35	1	14.6262899549984	14.7668123329986	"2"	9618.776349716	9616.605482679	1.5	0.1
0.01	1	0.109943512001337	1	102	NA	21.3610314699999	0	0.26	0.35	1	14.9935078419985	15.1034513539998	"2"	9618.776349716	9616.605482679	1.5	0.1
0.01	1	0.039277468000364	1	102	NA	21.3610314699999	0	0.26	0.35	1	15.3274832369989	15.3667607049993	"2"	9618.776349716	9616.605482679	1.5	0.1
0.01	1	0.0285134200003085	1	102	NA	21.3610314699999	0	0.26	0.35	1	15.5945830149994	15.6230964349998	"2"	9618.776349716	9616.605482679	1.5	0.1
0.01	1	0.0254306870010623	1	102	NA	21.3610314699999	0	0.26	0.35	1	15.8618010399987	15.8872317269997	"2"	9618.776349716	9616.605482679	1.5	0.1
0.01	1	0.0313140039997961	1	102	NA	21.3610314699999	0	0.26	0.35	1	16.1121291499985	16.1434431539983	"2"	9618.776349716	9616.605482679	1.5	0.1
0.01	1	0.00358177899943257	1	102	NA	21.3610314699999	0	0.26	0.35	1	16.3791395349999	16.3827213139994	"2"	9618.776349716	9616.605482679	1.5	0.1
0.01	1	0.00328994400115334	1	102	NA	21.3610314699999	0	0.26	0.35	1	16.6128844019986	16.6161743459998	"2"	9618.776349716	9616.605482679	1.5	0.1
0.01	1	0.0040220250011771	1	102	NA	21.3610314699999	0	0.26	0.35	1	16.8465718569987	16.8505938819999	"2"	9618.776349716	9616.605482679	1.5	0.1
0.01	1	0.00366202700024587	1	102	NA	21.3610314699999	0	0.26	0.35	1	17.0802981349989	17.0839601619991	"2"	9618.776349716	9616.605482679	1.5	0.1
0.01	1	0.764815320000707	1	102	NA	21.3610314699999	0	0.26	0.35	1	17.3140831799992	18.0788984999999	"2"	9618.776349716	9616.605482679	1.5	0.1
0.01	1	0.411687853000331	1	102	NA	21.3610314699999	0	0.26	0.35	1	18.3158243269991	18.7275121799994	"2"	9618.776349716	9616.605482679	1.5	0.1
0.01	1	0.272654382999463	1	102	NA	21.3610314699999	0	0.26	0.35	1	18.9502813559993	19.2229357389988	"2"	9618.776349716	9616.605482679	1.5	0.1
0.01	1	0.139418540000406	1	102	NA	21.3610314699999	0	0.26	0.35	1	19.4509698969996	19.590388437	"2"	9618.776349716	9616.605482679	1.5	0.1
0.01	1	0.0282200470010139	1	102	NA	21.3610314699999	0	0.26	0.35	1	19.8182460519984	19.8464660989994	"2"	9618.776349716	9616.605482679	1.5	0.1
0.01	1	0.0415799000002153	1	102	NA	21.3610314699999	0	0.26	0.35	1	20.0854356699983	20.1270155699985	"2"	9618.776349716	9616.605482679	1.5	0.1
0.01	1	0.43752177999886	1	102	NA	21.3610314699999	0	0.26	0.35	1	20.3525094249999	20.7900312049987	"2"	9618.776349716	9616.605482679	1.5	0.1
0.01	1	0.338930104999235	2	102	NA	21.3610314699999	0	0.26	0.35	1	21.02042927	21.3593593749993	"2"	9618.776349716	9616.605482679	1.5	0.1
0.01	1	0.662633221998476	1	97	NA	38.6968973549992	0	0.32	0.67	1	23.4077011099998	24.0703343319983	"3"	9618.776349716	9616.605482679	1.5	0.1
0.01	1	0.394665117999466	1	97	NA	38.6968973549992	0	0.32	0.67	1	24.2925732019994	24.6872383199989	"3"	9618.776349716	9616.605482679	1.5	0.1
0.01	1	0.279443915000229	1	97	NA	38.6968973549992	0	0.32	0.67	1	24.9101483619997	25.189592277	"3"	9618.776349716	9616.605482679	1.5	0.1
0.01	1	0.170270546999745	1	97	NA	38.6968973549992	0	0.32	0.67	1	25.4277586919998	25.5980292389995	"3"	9618.776349716	9616.605482679	1.5	0.1
0.01	1	0.122519796001143	1	97	NA	38.6968973549992	0	0.32	0.67	1	25.8284369549983	25.9509567509995	"3"	9618.776349716	9616.605482679	1.5	0.1
0.01	1	0.0506377700003213	1	97	NA	38.6968973549992	0	0.32	0.67	1	26.1790251599996	26.2296629299999	"3"	9618.776349716	9616.605482679	1.5	0.1
0.01	1	0.00399114499850839	1	97	NA	38.6968973549992	0	0.32	0.67	1	26.4628146249997	26.4668057699982	"3"	9618.776349716	9616.605482679	1.5	0.1
0.01	1	0.00393504699968616	1	97	NA	38.6968973549992	0	0.32	0.67	1	26.6966293249989	26.7005643719986	"3"	9618.776349716	9616.605482679	1.5	0.1
0.01	1	0.0451183919994946	1	97	NA	38.6968973549992	0	0.32	0.67	1	26.9302683249989	26.9753867169984	"3"	9618.776349716	9616.605482679	1.5	0.1
0.01	1	1.44938261500101	1	97	NA	38.6968973549992	0	0.32	0.67	1	27.1973865869986	28.6467692019996	"3"	9618.776349716	9616.605482679	1.5	0.1
0.01	1	0.77990516600039	1	97	NA	38.6968973549992	0	0.32	0.67	1	28.8835954419992	29.6635006079996	"3"	9618.776349716	9616.605482679	1.5	0.1
0.01	1	0.368332444999396	1	97	NA	38.6968973549992	0	0.32	0.67	1	29.8853116619994	30.2536441069988	"3"	9618.776349716	9616.605482679	1.5	0.1
0.01	1	0.384612149000532	1	97	NA	38.6968973549992	0	0.32	0.67	1	30.4861540299989	30.8707661789995	"3"	9618.776349716	9616.605482679	1.5	0.1
0.01	1	0.390034698999443	1	97	NA	38.6968973549992	0	0.32	0.67	1	31.1040038769988	31.4940385759983	"3"	9618.776349716	9616.605482679	1.5	0.1
0.01	1	0.229079643000659	1	97	NA	38.6968973549992	0	0.32	0.67	1	31.7218320099983	31.9509116529989	"3"	9618.776349716	9616.605482679	1.5	0.1
0.01	1	0.113426710000567	1	97	NA	38.6968973549992	0	0.32	0.67	1	32.1891411199995	32.30256783	"3"	9618.776349716	9616.605482679	1.5	0.1
0.01	1	0.049840673998915	1	97	NA	38.6968973549992	0	0.32	0.67	1	32.5397797349997	32.5896204089986	"3"	9618.776349716	9616.605482679	1.5	0.1
0.01	1	0.00373761499940883	1	97	NA	38.6968973549992	0	0.32	0.67	1	32.8235023569996	32.827239971999	"3"	9618.776349716	9616.605482679	1.5	0.1
0.01	1	0.0362609399999201	1	97	NA	38.6968973549992	0	0.32	0.67	1	33.0573522019986	33.0936131419985	"3"	9618.776349716	9616.605482679	1.5	0.1
0.01	1	0.0268019249997451	1	97	NA	38.6968973549992	0	0.32	0.67	1	33.3243619549994	33.3511638799991	"3"	9618.776349716	9616.605482679	1.5	0.1
0.01	1	0.0233128020008735	1	97	NA	38.6968973549992	0	0.32	0.67	1	33.5747686559989	33.5980814579998	"3"	9618.776349716	9616.605482679	1.5	0.1
0.01	1	0.0222256420001941	1	97	NA	38.6968973549992	0	0.32	0.67	1	33.8252167239989	33.8474423659991	"3"	9618.776349716	9616.605482679	1.5	0.1
0.01	1	0.0117094160013949	1	97	NA	38.6968973549992	0	0.32	0.67	1	34.0755614399986	34.087270856	"3"	9618.776349716	9616.605482679	1.5	0.1
0.01	1	0.048636241001077	1	97	NA	38.6968973549992	0	0.32	0.67	1	34.309292906999	34.357929148	"3"	9618.776349716	9616.605482679	1.5	0.1
0.01	1	0.116416692000712	1	97	NA	38.6968973549992	0	0.32	0.67	1	34.5931968369987	34.7096135289994	"3"	9618.776349716	9616.605482679	1.5	0.1
0.01	1	0.286117144001764	1	97	NA	38.6968973549992	0	0.32	0.67	1	34.9437262469983	35.229843391	"3"	9618.776349716	9616.605482679	1.5	0.1
0.01	1	0.31343081399973	1	97	NA	38.6968973549992	0	0.32	0.67	1	35.4612253019986	35.7746561159984	"3"	9618.776349716	9616.605482679	1.5	0.1
0.01	1	0.257733595999525	1	97	NA	38.6968973549992	0	0.32	0.67	1	36.01220431	36.2699379059995	"3"	9618.776349716	9616.605482679	1.5	0.1
0.01	1	0.541332496000905	1	97	NA	38.6968973549992	0	0.32	0.67	1	36.4965020169984	37.0378345129993	"3"	9618.776349716	9616.605482679	1.5	0.1
0.01	1	0.25514527499945	1	97	NA	38.6968973549992	0	0.32	0.67	1	37.2643576999999	37.5195029749993	"3"	9618.776349716	9616.605482679	1.5	0.1
0.01	1	0.00964363200000662	1	97	NA	38.6968973549992	0	0.32	0.67	1	37.7485736149993	37.7582172469993	"3"	9618.776349716	9616.605482679	1.5	0.1
0.01	1	0.152204984999116	1	97	NA	38.6968973549992	0	0.32	0.67	1	37.9822256999996	38.1344306849987	"3"	9618.776349716	9616.605482679	1.5	0.1
0.01	1	0.328997014001288	2	97	NA	38.6968973549992	0	0.32	0.67	1	38.3662278799984	38.6952248939997	"3"	9618.776349716	9616.605482679	1.5	0.1
0.01	1	1.48618435999924	1	51	56.1329651169999	NA	1	0	0.67	1	40.7200848249995	42.2062691849987	"4"	9618.776349716	9616.605482679	1.5	0.1
0.01	1	0.00396120000004885	1	51	56.1329651169999	NA	1	0	0.67	1	42.4396428799992	42.4436040799992	"4"	9618.776349716	9616.605482679	1.5	0.1
0.01	1	0.00345520799965016	1	51	56.1329651169999	NA	1	0	0.67	1	42.6734276299994	42.6768828379991	"4"	9618.776349716	9616.605482679	1.5	0.1
0.01	1	0.00305403999846021	1	51	56.1329651169999	NA	1	0	0.67	1	42.907185946	42.9102399859985	"4"	9618.776349716	9616.605482679	1.5	0.1
0.01	1	0.00392160899900773	1	51	56.1329651169999	NA	1	0	0.67	1	43.1409434649995	43.1448650739985	"4"	9618.776349716	9616.605482679	1.5	0.1
0.01	1	0.00370006500088493	1	51	56.1329651169999	NA	1	0	0.67	1	43.3746185369982	43.3783186019991	"4"	9618.776349716	9616.605482679	1.5	0.1
0.01	1	0.00373024700093083	1	51	56.1329651169999	NA	1	0	0.67	1	43.6083657549989	43.6120960019998	"4"	9618.776349716	9616.605482679	1.5	0.1
0.01	1	0.00380601300093986	1	51	56.1329651169999	NA	1	0	0.67	1	43.8420956269983	43.8459016399993	"4"	9618.776349716	9616.605482679	1.5	0.1
0.01	1	0.00460805500006245	1	51	56.1329651169999	NA	1	0	0.67	1	44.0757766199986	44.0803846749986	"4"	9618.776349716	9616.605482679	1.5	0.1
0.01	1	0.0971233239997673	1	51	56.1329651169999	NA	1	0	0.67	1	44.3095148649991	44.4066381889988	"4"	9618.776349716	9616.605482679	1.5	0.1
0.01	1	0.00373479199879512	1	51	56.1329651169999	NA	1	0	0.67	1	44.64335742	44.6470922119988	"4"	9618.776349716	9616.605482679	1.5	0.1
0.01	1	0.00295224000001326	1	51	56.1329651169999	NA	1	0	0.67	1	44.8772022639987	44.8801545039987	"4"	9618.776349716	9616.605482679	1.5	0.1
0.01	1	0.00457018999986758	1	51	56.1329651169999	NA	1	0	0.67	1	45.1108804849991	45.115450674999	"4"	9618.776349716	9616.605482679	1.5	0.1
0.01	1	0.00390014500044344	1	51	56.1329651169999	NA	1	0	0.67	1	45.3446949769987	45.3485951219991	"4"	9618.776349716	9616.605482679	1.5	0.1
0.01	1	0.00212885099972482	1	51	56.1329651169999	NA	1	0	0.67	1	45.5782549269989	45.5803837779986	"4"	9618.776349716	9616.605482679	1.5	0.1
0.01	1	0.00346523799998977	1	51	56.1329651169999	NA	1	0	0.67	1	45.8120234999988	45.8154887379987	"4"	9618.776349716	9616.605482679	1.5	0.1
0.01	1	0.00450222099971143	1	51	56.1329651169999	NA	1	0	0.67	1	46.0457982759999	46.0503004969996	"4"	9618.776349716	9616.605482679	1.5	0.1
0.01	1	0.0046876769993105	1	51	56.1329651169999	NA	1	0	0.67	1	46.2796259099996	46.2843135869989	"4"	9618.776349716	9616.605482679	1.5	0.1
0.01	1	0.00455220000003465	1	51	56.1329651169999	NA	1	0	0.67	1	46.5132600799989	46.5178122799989	"4"	9618.776349716	9616.605482679	1.5	0.1
0.01	1	0.00378232799994294	1	51	56.1329651169999	NA	1	0	0.67	1	46.7469838899997	46.7507662179996	"4"	9618.776349716	9616.605482679	1.5	0.1
0.01	1	1.03289307100022	1	51	56.1329651169999	NA	1	0	0.67	1	46.9806339549996	48.0135270259998	"4"	9618.776349716	9616.605482679	1.5	0.1
0.01	1	0.0299755500000174	1	51	56.1329651169999	NA	1	0	0.67	1	48.2494910469995	48.2794665969996	"4"	9618.776349716	9616.605482679	1.5	0.1
0.01	1	0.00371211099991342	1	51	56.1329651169999	NA	1	0	0.67	1	48.5165446269984	48.5202567379984	"4"	9618.776349716	9616.605482679	1.5	0.1
0.01	1	0.00259991200073273	1	51	56.1329651169999	NA	1	0	0.67	1	48.7503026259983	48.752902537999	"4"	9618.776349716	9616.605482679	1.5	0.1
0.01	1	0.00816610000038054	1	51	56.1329651169999	NA	1	0	0.67	1	48.9840784199987	48.9922445199991	"4"	9618.776349716	9616.605482679	1.5	0.1
0.01	1	0.0286419660005777	1	51	56.1329651169999	NA	1	0	0.67	1	49.2178486799985	49.2464906459991	"4"	9618.776349716	9616.605482679	1.5	0.1
0.01	1	0.0263698029993975	1	51	56.1329651169999	NA	1	0	0.67	1	49.4681978449989	49.4945676479983	"4"	9618.776349716	9616.605482679	1.5	0.1
0.01	1	0.0150447190007981	1	51	56.1329651169999	NA	1	0	0.67	1	49.7185334289989	49.7335781479997	"4"	9618.776349716	9616.605482679	1.5	0.1
0.01	1	0.00364499399984197	1	51	56.1329651169999	NA	1	0	0.67	1	49.9690665899998	49.9727115839996	"4"	9618.776349716	9616.605482679	1.5	0.1
0.01	1	0.0135039550004876	1	51	56.1329651169999	NA	1	0	0.67	1	50.2028426199995	50.216346575	"4"	9618.776349716	9616.605482679	1.5	0.1
0.01	1	0.00236262799990072	1	51	56.1329651169999	NA	1	0	0.67	1	50.4531144819994	50.4554771099993	"4"	9618.776349716	9616.605482679	1.5	0.1
0.01	1	0.0631078480000724	1	51	56.1329651169999	NA	1	0	0.67	1	50.686861189999	50.7499690379991	"4"	9618.776349716	9616.605482679	1.5	0.1
0.01	1	0.78002645000015	1	51	56.1329651169999	NA	1	0	0.67	1	50.9872632439983	51.7672896939985	"4"	9618.776349716	9616.605482679	1.5	0.1
0.01	1	0.0418577989985351	1	51	56.1329651169999	NA	1	0	0.67	1	52.0058818449997	52.0477396439983	"4"	9618.776349716	9616.605482679	1.5	0.1
0.01	1	0.00390398299896333	1	51	56.1329651169999	NA	1	0	0.67	1	52.2728943149996	52.2767982979985	"4"	9618.776349716	9616.605482679	1.5	0.1
0.01	1	0.00464858499981347	1	51	56.1329651169999	NA	1	0	0.67	1	52.5065853699998	52.5112339549996	"4"	9618.776349716	9616.605482679	1.5	0.1
0.01	1	0.00387501499972132	1	51	56.1329651169999	NA	1	0	0.67	1	52.7404329649999	52.7443079799996	"4"	9618.776349716	9616.605482679	1.5	0.1
0.01	1	0.00328501600051823	1	51	56.1329651169999	NA	1	0	0.67	1	52.9741073979985	52.977392413999	"4"	9618.776349716	9616.605482679	1.5	0.1
0.01	1	0.00460080999982893	1	51	56.1329651169999	NA	1	0	0.67	1	53.2077966099987	53.2123974199985	"4"	9618.776349716	9616.605482679	1.5	0.1
0.01	1	0.00207438000143156	1	51	56.1329651169999	NA	1	0	0.67	1	53.4415683559982	53.4436427359997	"4"	9618.776349716	9616.605482679	1.5	0.1
0.01	1	0.0038963649985817	1	51	56.1329651169999	NA	1	0	0.67	1	53.6752033869998	53.6790997519984	"4"	9618.776349716	9616.605482679	1.5	0.1
0.01	1	0.00449368900081026	1	51	56.1329651169999	NA	1	0	0.67	1	53.9089741359985	53.9134678249993	"4"	9618.776349716	9616.605482679	1.5	0.1
0.01	1	0.00392800699955842	1	51	56.1329651169999	NA	1	0	0.67	1	54.142695356999	54.1466233639985	"4"	9618.776349716	9616.605482679	1.5	0.1
0.01	1	0.00450041199837869	1	51	56.1329651169999	NA	1	0	0.67	1	54.3764070249999	54.3809074369983	"4"	9618.776349716	9616.605482679	1.5	0.1
0.01	1	0.00389109999923676	1	51	56.1329651169999	NA	1	0	0.67	1	54.6102045499993	54.6140956499985	"4"	9618.776349716	9616.605482679	1.5	0.1
0.01	1	0.00382988099954673	1	51	56.1329651169999	NA	1	0	0.67	1	54.8439398869996	54.8477697679991	"4"	9618.776349716	9616.605482679	1.5	0.1
0.01	1	0.00461009199898399	1	51	56.1329651169999	NA	1	0	0.67	1	55.0775787799994	55.0821888719984	"4"	9618.776349716	9616.605482679	1.5	0.1
0.01	1	0.00379683499886596	1	51	56.1329651169999	NA	1	0	0.67	1	55.3113396669996	55.3151365019985	"4"	9618.776349716	9616.605482679	1.5	0.1
0.01	1	0.00392763699892384	1	51	56.1329651169999	NA	1	0	0.67	1	55.5451057749997	55.5490334119986	"4"	9618.776349716	9616.605482679	1.5	0.1
0.01	1	0.00206176100073208	1	51	56.1329651169999	NA	1	0	0.67	1	55.7788731289984	55.7809348899991	"4"	9618.776349716	9616.605482679	1.5	0.1
0.01	1	0.00382125900068786	1	51	56.1329651169999	NA	1	0	0.67	1	56.0125171549989	56.0163384139996	"4"	9618.776349716	9616.605482679	1.5	0.1
0.01	1	0.00378191299932951	1	116	NA	63.9526076749989	0	0.23	0.9	1	58.166256425	58.1700383379994	"5"	9618.776349716	9616.605482679	1.5	0.1
0.01	1	0.0300424209999619	1	116	NA	63.9526076749989	0	0.23	0.9	1	58.3999765969984	58.4300190179983	"5"	9618.776349716	9616.605482679	1.5	0.1
0.01	1	0.0357168529990304	1	116	NA	63.9526076749989	0	0.23	0.9	1	58.6670519449999	58.7027687979989	"5"	9618.776349716	9616.605482679	1.5	0.1
0.01	1	0.00222967499939841	1	116	NA	63.9526076749989	0	0.23	0.9	1	58.9341071399995	58.9363368149989	"5"	9618.776349716	9616.605482679	1.5	0.1
0.01	1	0.00210489200071606	1	116	NA	63.9526076749989	0	0.23	0.9	1	59.1678764579992	59.1699813499999	"5"	9618.776349716	9616.605482679	1.5	0.1
0.01	1	0.00387870800113888	1	116	NA	63.9526076749989	0	0.23	0.9	1	59.4015878399987	59.4054665479998	"5"	9618.776349716	9616.605482679	1.5	0.1
0.01	1	0.00452982499882637	1	116	NA	63.9526076749989	0	0.23	0.9	1	59.6352980499996	59.6398278749984	"5"	9618.776349716	9616.605482679	1.5	0.1
0.01	1	0.00386250799965637	1	116	NA	63.9526076749989	0	0.23	0.9	1	59.8689892019993	59.8728517099989	"5"	9618.776349716	9616.605482679	1.5	0.1
0.01	1	0.0809519510003156	1	116	NA	63.9526076749989	0	0.23	0.9	1	60.1027291249993	60.1836810759996	"5"	9618.776349716	9616.605482679	1.5	0.1
0.01	1	0.00214406600025541	1	116	NA	63.9526076749989	0	0.23	0.9	1	60.4199514979991	60.4220955639994	"5"	9618.776349716	9616.605482679	1.5	0.1
0.01	1	0.00462840199907077	1	116	NA	63.9526076749989	0	0.23	0.9	1	60.6536232849994	60.6582516869985	"5"	9618.776349716	9616.605482679	1.5	0.1
0.01	1	0.00387927100018715	1	116	NA	63.9526076749989	0	0.23	0.9	1	60.8873620149989	60.8912412859991	"5"	9618.776349716	9616.605482679	1.5	0.1
0.01	1	0.00464713200017286	1	116	NA	63.9526076749989	0	0.23	0.9	1	61.1211308099992	61.1257779419993	"5"	9618.776349716	9616.605482679	1.5	0.1
0.01	1	0.00209099899984722	1	116	NA	63.9526076749989	0	0.23	0.9	1	61.354924199999	61.3570151989989	"5"	9618.776349716	9616.605482679	1.5	0.1
0.01	1	0.00202988199998799	1	116	NA	63.9526076749989	0	0.23	0.9	1	61.5886169739988	61.5906468559988	"5"	9618.776349716	9616.605482679	1.5	0.1
0.01	1	0.00398370299990347	1	116	NA	63.9526076749989	0	0.23	0.9	1	61.8223047369993	61.8262884399992	"5"	9618.776349716	9616.605482679	1.5	0.1
0.01	1	0.00463601699993887	1	116	NA	63.9526076749989	0	0.23	0.9	1	62.055967065	62.0606030819999	"5"	9618.776349716	9616.605482679	1.5	0.1
0.01	1	0.00200765100089484	1	116	NA	63.9526076749989	0	0.23	0.9	1	62.2897714839983	62.2917791349992	"5"	9618.776349716	9616.605482679	1.5	0.1
0.01	1	0.0020305769994593	1	116	NA	63.9526076749989	0	0.23	0.9	1	62.5235267169992	62.5255572939986	"5"	9618.776349716	9616.605482679	1.5	0.1
0.01	1	0.00198879999879864	1	116	NA	63.9526076749989	0	0.23	0.9	1	62.7572652859999	62.7592540859987	"5"	9618.776349716	9616.605482679	1.5	0.1
0.01	1	0.00823755899909884	1	116	NA	63.9526076749989	0	0.23	0.9	1	62.9911114499992	62.9993490089983	"5"	9618.776349716	9616.605482679	1.5	0.1
0.01	1	0.0464189949998399	1	116	NA	63.9526076749989	0	0.23	0.9	1	63.2247748669997	63.2711938619996	"5"	9618.776349716	9616.605482679	1.5	0.1
0.01	1	0.090654250998341	1	116	NA	63.9526076749989	0	0.23	0.9	1	63.508574255	63.5992285059983	"5"	9618.776349716	9616.605482679	1.5	0.1
0.01	1	0.125314000999424	2	116	NA	63.9526076749989	0	0.23	0.9	1	63.8257101099989	63.9510241109983	"5"	9618.776349716	9616.605482679	1.5	0.1
0.01	1	0.346318597999925	1	118	NA	69.7277122369997	0	0.1	1	1	65.9961305099987	66.3424491079986	"6"	9618.776349716	9616.605482679	1.5	0.1
0.01	1	0.0990379449995089	1	118	NA	69.7277122369997	0	0.1	1	1	66.5803212299998	66.6793591749993	"6"	9618.776349716	9616.605482679	1.5	0.1
0.01	1	0.15607129899945	1	118	NA	69.7277122369997	0	0.1	1	1	66.9141993649991	67.0702706639986	"6"	9618.776349716	9616.605482679	1.5	0.1
0.01	1	0.156372608998936	1	118	NA	69.7277122369997	0	0.1	1	1	67.29822805	67.454600658999	"6"	9618.776349716	9616.605482679	1.5	0.1
0.01	1	0.100410954999461	1	118	NA	69.7277122369997	0	0.1	1	1	67.68222135	67.7826323049994	"6"	9618.776349716	9616.605482679	1.5	0.1
0.01	1	0.0939808849998371	1	118	NA	69.7277122369997	0	0.1	1	1	68.0161118369997	68.1100927219995	"6"	9618.776349716	9616.605482679	1.5	0.1
0.01	1	0.0979946930001461	1	118	NA	69.7277122369997	0	0.1	1	1	68.3332750219997	68.4312697149999	"6"	9618.776349716	9616.605482679	1.5	0.1
0.01	1	0.0192928100004792	1	118	NA	69.7277122369997	0	0.1	1	1	68.6671737799988	68.6864665899993	"6"	9618.776349716	9616.605482679	1.5	0.1
0.01	1	0.0487584759994206	1	118	NA	69.7277122369997	0	0.1	1	1	68.9175511519989	68.9663096279983	"6"	9618.776349716	9616.605482679	1.5	0.1
0.01	1	0.0130563999991864	1	118	NA	69.7277122369997	0	0.1	1	1	69.201372169	69.2144285689992	"6"	9618.776349716	9616.605482679	1.5	0.1
0.01	1	0.274287280000863	2	118	NA	69.7277122369997	0	0.1	1	1	69.4518740049989	69.7261612849998	"6"	9618.776349716	9616.605482679	1.5	0.1
0.01	1	2.57136629300112	1	87	NA	78.5276204139991	0	0.04	1.04	1	71.7557009349985	74.3270672279996	"7"	9618.776349716	9616.605482679	1.5	0.1
0.01	1	1.5977651689991	1	87	NA	78.5276204139991	0	0.04	1.04	1	74.5604127869992	76.1581779559983	"7"	9618.776349716	9616.605482679	1.5	0.1
0.01	1	1.03423390600074	1	87	NA	78.5276204139991	0	0.04	1.04	1	76.3967736019986	77.4310075079993	"7"	9618.776349716	9616.605482679	1.5	0.1
0.01	1	0.404467485999703	1	87	NA	78.5276204139991	0	0.04	1.04	1	77.6656990969987	78.0701665829984	"7"	9618.776349716	9616.605482679	1.5	0.1
0.01	1	0.225977328000226	2	87	NA	78.5276204139991	0	0.04	1.04	1	78.3001202569994	78.5260975849997	"7"	9618.776349716	9616.605482679	1.5	0.1
0.01	1	0.668457275000037	1	6	83.929214804999	NA	1	0	1.04	1	80.5538079849994	81.2222652599994	"8"	9618.776349716	9616.605482679	1.5	0.1
0.01	1	0.318328479999764	1	6	83.929214804999	NA	1	0	1.04	1	81.4554198349997	81.7737483149995	"8"	9618.776349716	9616.605482679	1.5	0.1
0.01	1	0.311768351000865	1	6	83.929214804999	NA	1	0	1.04	1	82.0062045549985	82.3179729059993	"8"	9618.776349716	9616.605482679	1.5	0.1
0.01	1	0.280919864999305	1	6	83.929214804999	NA	1	0	1.04	1	82.5404381249991	82.8213579899984	"8"	9618.776349716	9616.605482679	1.5	0.1
0.01	1	0.300651669000217	1	6	83.929214804999	NA	1	0	1.04	1	83.058043699999	83.3586953689992	"8"	9618.776349716	9616.605482679	1.5	0.1
0.01	1	0.230057945000226	1	6	83.929214804999	NA	1	0	1.04	1	83.5923500549998	83.822408	"8"	9618.776349716	9616.605482679	1.5	0.1
0.01	1	0.00210110199986957	1	106	NA	87.2960687019986	0	0.05	1.09	1	85.9796194579994	85.9817205599993	"9"	9618.776349716	9616.605482679	1.5	0.1
0.01	1	0.0037736069989478	1	106	NA	87.2960687019986	0	0.05	1.09	1	86.2132252749998	86.2169988819987	"9"	9618.776349716	9616.605482679	1.5	0.1
0.01	1	0.0302269530002377	1	106	NA	87.2960687019986	0	0.05	1.09	1	86.4470642219985	86.4772911749988	"9"	9618.776349716	9616.605482679	1.5	0.1
0.01	1	0.00218936700002814	1	106	NA	87.2960687019986	0	0.05	1.09	1	86.7140822069996	86.7162715739996	"9"	9618.776349716	9616.605482679	1.5	0.1
0.01	1	0.00208862999897974	1	106	NA	87.2960687019986	0	0.05	1.09	1	86.9478884069995	86.9499770369985	"9"	9618.776349716	9616.605482679	1.5	0.1
0.01	1	0.1127772130003	2	106	NA	87.2960687019986	0	0.05	1.09	1	87.1817529949985	87.2945302079988	"9"	9618.776349716	9616.605482679	1.5	0.1
0.01	1	0.094219612001325	1	21	NA	91.6568461299994	0	0.09	1.18	1	89.3520010969987	89.446220709	"10"	9618.776349716	9616.605482679	1.5	0.1
0.01	1	0.0246089120009856	1	21	NA	91.6568461299994	0	0.09	1.18	1	89.685896945999	89.710505858	"10"	9618.776349716	9616.605482679	1.5	0.1
0.01	1	0.00399724499948206	1	21	NA	91.6568461299994	0	0.09	1.18	1	89.936151214999	89.9401484599985	"10"	9618.776349716	9616.605482679	1.5	0.1
0.01	1	0.00223954700049944	1	21	NA	91.6568461299994	0	0.09	1.18	1	90.1698854279985	90.172124974999	"10"	9618.776349716	9616.605482679	1.5	0.1
0.01	1	0.00198844999977155	1	21	NA	91.6568461299994	0	0.09	1.18	1	90.4037600569991	90.4057485069989	"10"	9618.776349716	9616.605482679	1.5	0.1
0.01	1	0.00200286099970981	1	21	NA	91.6568461299994	0	0.09	1.18	1	90.6375401289988	90.6395429899985	"10"	9618.776349716	9616.605482679	1.5	0.1
0.01	1	0.00370320799993351	1	21	NA	91.6568461299994	0	0.09	1.18	1	90.8711348099987	90.8748380179986	"10"	9618.776349716	9616.605482679	1.5	0.1
0.01	1	0.00387185500039777	1	21	NA	91.6568461299994	0	0.09	1.18	1	91.1048355169987	91.1087073719991	"10"	9618.776349716	9616.605482679	1.5	0.1
0.01	1	0.00370269499944698	1	21	NA	91.6568461299994	0	0.09	1.18	1	91.3386714569988	91.3423741519982	"10"	9618.776349716	9616.605482679	1.5	0.1
0.01	1	0.0829280519992608	2	21	NA	91.6568461299994	0	0.09	1.18	1	91.5723341699995	91.6552622219988	"10"	9618.776349716	9616.605482679	1.5	0.1
0.01	1	1.0324508090016	1	19	NA	102.225193888	0	0.09	1.27	1	93.7093306399984	94.741781449	"11"	9618.776349716	9616.605482679	1.5	0.1
0.01	1	0.700574686999971	1	19	NA	102.225193888	0	0.09	1.27	1	94.978139339999	95.6787140269989	"11"	9618.776349716	9616.605482679	1.5	0.1
0.01	1	1.08553134700014	1	19	NA	102.225193888	0	0.09	1.27	1	95.9130137599986	96.9985451069988	"11"	9618.776349716	9616.605482679	1.5	0.1
0.01	1	0.894910082999559	1	19	NA	102.225193888	0	0.09	1.27	1	97.2318524269995	98.126762509999	"11"	9618.776349716	9616.605482679	1.5	0.1
0.01	1	1.03177784999934	1	19	NA	102.225193888	0	0.09	1.27	1	98.3670461399997	99.3988239899991	"11"	9618.776349716	9616.605482679	1.5	0.1
0.01	1	0.546260134999102	1	19	NA	102.225193888	0	0.09	1.27	1	99.6359923349992	100.182252469998	"11"	9618.776349716	9616.605482679	1.5	0.1
0.01	1	0.417304922999392	1	19	NA	102.225193888	0	0.09	1.27	1	100.42065138	100.837956302999	"11"	9618.776349716	9616.605482679	1.5	0.1
0.01	1	0.00200236399905407	1	19	NA	102.225193888	0	0.09	1.27	1	101.071686183999	101.073688547998	"11"	9618.776349716	9616.605482679	1.5	0.1
0.01	1	0.485079116999259	1	19	NA	102.225193888	0	0.09	1.27	1	101.305473818	101.790552934999	"11"	9618.776349716	9616.605482679	1.5	0.1
0.01	1	0.200166462000197	2	19	NA	102.225193888	0	0.09	1.27	1	102.023305039998	102.223471501999	"11"	9618.776349716	9616.605482679	1.5	0.1
0.01	1	0.553610816999935	1	63	NA	106.864120939999	0	0.05	1.32	1	104.260470794999	104.814081611999	"12"	9618.776349716	9616.605482679	1.5	0.1
0.01	1	0.161700765000205	1	63	NA	106.864120939999	0	0.05	1.32	1	105.04499117	105.206691935	"12"	9618.776349716	9616.605482679	1.5	0.1
0.01	1	0.193504151000525	1	63	NA	106.864120939999	0	0.05	1.32	1	105.429074714999	105.622578865999	"12"	9618.776349716	9616.605482679	1.5	0.1
0.01	1	0.295388241000182	1	63	NA	106.864120939999	0	0.05	1.32	1	105.846359216999	106.141747457999	"12"	9618.776349716	9616.605482679	1.5	0.1
0.01	1	0.178280542000721	1	63	NA	106.864120939999	0	0.05	1.32	1	106.364001844999	106.542282386999	"12"	9618.776349716	9616.605482679	1.5	0.1
0.01	1	0.0980065459989419	2	63	NA	106.864120939999	0	0.05	1.32	1	106.764561059999	106.862567605998	"12"	9618.776349716	9616.605482679	1.5	0.1
0.01	1	0.4728051710008	1	54	NA	112.487313744999	0	0.1	1.42	1	108.918188901998	109.390994072999	"13"	9618.776349716	9616.605482679	1.5	0.1
0.01	1	0.0587096119998023	1	54	NA	112.487313744999	0	0.1	1.42	1	109.619416149999	109.678125761999	"13"	9618.776349716	9616.605482679	1.5	0.1
0.01	1	0.031502891000855	1	54	NA	112.487313744999	0	0.1	1.42	1	109.903209914999	109.934712806	"13"	9618.776349716	9616.605482679	1.5	0.1
0.01	1	0.00716626899884432	1	54	NA	112.487313744999	0	0.1	1.42	1	110.170369165	110.177535433999	"13"	9618.776349716	9616.605482679	1.5	0.1
0.01	1	0.0039492629985034	1	54	NA	112.487313744999	0	0.1	1.42	1	110.404092797	110.408042059998	"13"	9618.776349716	9616.605482679	1.5	0.1
0.01	1	0.010078457000418	1	54	NA	112.487313744999	0	0.1	1.42	1	110.637703676999	110.647782133999	"13"	9618.776349716	9616.605482679	1.5	0.1
0.01	1	0.0396530509988224	1	54	NA	112.487313744999	0	0.1	1.42	1	110.871508425	110.911161475999	"13"	9618.776349716	9616.605482679	1.5	0.1
0.01	1	0.0191911279998749	1	54	NA	112.487313744999	0	0.1	1.42	1	111.138639999999	111.157831127999	"13"	9618.776349716	9616.605482679	1.5	0.1
0.01	1	0.0175998469985643	1	54	NA	112.487313744999	0	0.1	1.42	1	111.389052347	111.406652193999	"13"	9618.776349716	9616.605482679	1.5	0.1
0.01	1	0.00360441299926606	1	54	NA	112.487313744999	0	0.1	1.42	1	111.639387286999	111.642991699999	"13"	9618.776349716	9616.605482679	1.5	0.1
0.01	1	0.612535311998727	2	54	NA	112.487313744999	0	0.1	1.42	1	111.873253135	112.485788446998	"13"	9618.776349716	9616.605482679	1.5	0.1
0.01	1	0.543726808000429	1	103	NA	115.463514538998	0	0.01	1.43	1	114.527617719999	115.071344528	"14"	9618.776349716	9616.605482679	1.5	0.1
0.01	1	0.149736993000261	2	103	NA	115.463514538998	0	0.01	1.43	1	115.312326159999	115.462063153	"14"	9618.776349716	9616.605482679	1.5	0.1
0.01	1	0.00387750899972161	1	120	NA	119.296682037999	0	0.04	1.47	1	117.516008164999	117.519885673999	"15"	9618.776349716	9616.605482679	1.5	0.1
0.01	1	0.0400352119995659	1	120	NA	119.296682037999	0	0.04	1.47	1	117.74975458	117.789789791999	"15"	9618.776349716	9616.605482679	1.5	0.1
0.01	1	0.380314099998941	1	120	NA	119.296682037999	0	0.04	1.47	1	118.016933325	118.397247424999	"15"	9618.776349716	9616.605482679	1.5	0.1
0.01	1	0.146937985000477	1	120	NA	119.296682037999	0	0.04	1.47	1	118.634617729998	118.781555714999	"15"	9618.776349716	9616.605482679	1.5	0.1
0.01	1	0.27653933900001	2	120	NA	119.296682037999	0	0.04	1.47	1	119.01854392	119.295083259	"15"	9618.776349716	9616.605482679	1.5	0.1
0.01	1	0.363120587999219	1	109	NA	124.792764319998	0	0.05	1.52	1	121.322357626999	121.685478214999	"16"	9618.776349716	9616.605482679	1.5	0.1
0.01	1	0.00375321300089126	1	109	NA	124.792764319998	0	0.05	1.52	1	121.923322364999	121.927075578	"16"	9618.776349716	9616.605482679	1.5	0.1
0.01	1	0.176728530001128	1	109	NA	124.792764319998	0	0.05	1.52	1	122.157245974999	122.333974505	"16"	9618.776349716	9616.605482679	1.5	0.1
0.01	1	0.0098624700003711	1	109	NA	124.792764319998	0	0.05	1.52	1	122.557783889999	122.567646359999	"16"	9618.776349716	9616.605482679	1.5	0.1
0.01	1	1.23866818299939	1	109	NA	124.792764319998	0	0.05	1.52	1	122.791579594999	124.030247777999	"16"	9618.776349716	9616.605482679	1.5	0.1
0.01	1	0.53049672599991	2	109	NA	124.792764319998	0	0.05	1.52	1	124.260696379999	124.791193105999	"16"	9618.776349716	9616.605482679	1.5	0.1
0.01	1	0.00380307199884555	1	71	NA	130.308038257999	0	0.14	1.66	1	126.84834816	126.852151231999	"17"	9618.776349716	9616.605482679	1.5	0.1
0.01	1	0.00431998999920324	1	71	NA	130.308038257999	0	0.14	1.66	1	127.082134091999	127.086454081998	"17"	9618.776349716	9616.605482679	1.5	0.1
0.01	1	0.0745080159995268	1	71	NA	130.308038257999	0	0.14	1.66	1	127.31588448	127.390392496	"17"	9618.776349716	9616.605482679	1.5	0.1
0.01	1	0.00200584000049275	1	71	NA	130.308038257999	0	0.14	1.66	1	127.616291183998	127.618297023999	"17"	9618.776349716	9616.605482679	1.5	0.1
0.01	1	0.00200037200011138	1	71	NA	130.308038257999	0	0.14	1.66	1	127.850056615998	127.852056987998	"17"	9618.776349716	9616.605482679	1.5	0.1
0.01	1	0.00200846799998544	1	71	NA	130.308038257999	0	0.14	1.66	1	128.083815008	128.085823476	"17"	9618.776349716	9616.605482679	1.5	0.1
0.01	1	0.00210302400046203	1	71	NA	130.308038257999	0	0.14	1.66	1	128.317592301999	128.319695325999	"17"	9618.776349716	9616.605482679	1.5	0.1
0.01	1	0.00399578699943959	1	71	NA	130.308038257999	0	0.14	1.66	1	128.551276136999	128.555271923999	"17"	9618.776349716	9616.605482679	1.5	0.1
0.01	1	0.00462066999898525	1	71	NA	130.308038257999	0	0.14	1.66	1	128.784930334999	128.789551004998	"17"	9618.776349716	9616.605482679	1.5	0.1
0.01	1	0.00463118699917686	1	71	NA	130.308038257999	0	0.14	1.66	1	129.01877354	129.023404726999	"17"	9618.776349716	9616.605482679	1.5	0.1
0.01	1	0.00385628399999405	1	71	NA	130.308038257999	0	0.14	1.66	1	129.252446799999	129.256303083999	"17"	9618.776349716	9616.605482679	1.5	0.1
0.01	1	0.0039175530000648	1	71	NA	130.308038257999	0	0.14	1.66	1	129.486142406999	129.490059959999	"17"	9618.776349716	9616.605482679	1.5	0.1
0.01	1	0.0942350810000789	1	71	NA	130.308038257999	0	0.14	1.66	1	129.719867696998	129.814102777998	"17"	9618.776349716	9616.605482679	1.5	0.1
0.01	1	0.0174848469996505	1	71	NA	130.308038257999	0	0.14	1.66	1	130.053709329999	130.071194176999	"17"	9618.776349716	9616.605482679	1.5	0.1
0.01	1	0.00221268300083466	2	71	NA	130.308038257999	0	0.14	1.66	1	130.304150083999	130.306362767	"17"	9618.776349716	9616.605482679	1.5	0.1
0.01	1	1.61253894000038	1	96	NA	136.453569301999	0	0.1	1.76	1	132.340958874998	133.953497814999	"18"	9618.776349716	9616.605482679	1.5	0.1
0.01	1	0.00819691699871328	1	96	NA	136.453569301999	0	0.1	1.76	1	134.194170735	134.202367651998	"18"	9618.776349716	9616.605482679	1.5	0.1
0.01	1	0.0697501769991504	1	96	NA	136.453569301999	0	0.1	1.76	1	134.427820614999	134.497570791998	"18"	9618.776349716	9616.605482679	1.5	0.1
0.01	1	0.026363790000687	1	96	NA	136.453569301999	0	0.1	1.76	1	134.728266229999	134.754630019999	"18"	9618.776349716	9616.605482679	1.5	0.1
0.01	1	0.0378583549991163	1	96	NA	136.453569301999	0	0.1	1.76	1	134.978753679999	135.016612034999	"18"	9618.776349716	9616.605482679	1.5	0.1
0.01	1	0.0117233700002544	1	96	NA	136.453569301999	0	0.1	1.76	1	135.245832406999	135.257555777	"18"	9618.776349716	9616.605482679	1.5	0.1
0.01	1	0.0188406870001927	1	96	NA	136.453569301999	0	0.1	1.76	1	135.479536109999	135.498376796999	"18"	9618.776349716	9616.605482679	1.5	0.1
0.01	1	0.016067253998699	1	96	NA	136.453569301999	0	0.1	1.76	1	135.729904585	135.745971838998	"18"	9618.776349716	9616.605482679	1.5	0.1
0.01	1	0.00217778600017482	1	96	NA	136.453569301999	0	0.1	1.76	1	135.980360594	135.98253838	"18"	9618.776349716	9616.605482679	1.5	0.1
0.01	1	0.00223581099999137	1	96	NA	136.453569301999	0	0.1	1.76	1	136.214178979999	136.216414790999	"18"	9618.776349716	9616.605482679	1.5	0.1
0.01	1	0.0040402520007774	2	96	NA	136.453569301999	0	0.1	1.76	1	136.447826611999	136.451866863999	"18"	9618.776349716	9616.605482679	1.5	0.1
0.01	1	0.412564291000308	1	91	NA	144.546562961999	0	0.18	1.94	1	138.50126811	138.913832401	"19"	9618.776349716	9616.605482679	1.5	0.1
0.01	1	0.00200675099949876	1	91	NA	144.546562961999	0	0.18	1.94	1	139.152392439999	139.154399190998	"19"	9618.776349716	9616.605482679	1.5	0.1
0.01	1	0.00388615799965919	1	91	NA	144.546562961999	0	0.18	1.94	1	139.38610602	139.389992177999	"19"	9618.776349716	9616.605482679	1.5	0.1
0.01	1	0.00390626300031727	1	91	NA	144.546562961999	0	0.18	1.94	1	139.619914325	139.623820588	"19"	9618.776349716	9616.605482679	1.5	0.1
0.01	1	0.252820847999828	1	91	NA	144.546562961999	0	0.18	1.94	1	139.853576149999	140.106396997999	"19"	9618.776349716	9616.605482679	1.5	0.1
0.01	1	0.264209254999514	1	91	NA	144.546562961999	0	0.18	1.94	1	140.337727738999	140.601936993999	"19"	9618.776349716	9616.605482679	1.5	0.1
0.01	1	0.258165479999661	1	91	NA	144.546562961999	0	0.18	1.94	1	140.838587194999	141.096752674999	"19"	9618.776349716	9616.605482679	1.5	0.1
0.01	1	0.230586588000733	1	91	NA	144.546562961999	0	0.18	1.94	1	141.322673281999	141.553259869999	"19"	9618.776349716	9616.605482679	1.5	0.1
0.01	1	0.1072268730004	1	91	NA	144.546562961999	0	0.18	1.94	1	141.790168269999	141.897395143	"19"	9618.776349716	9616.605482679	1.5	0.1
0.01	1	0.0542744899994432	1	91	NA	144.546562961999	0	0.18	1.94	1	142.124117095	142.178391584999	"19"	9618.776349716	9616.605482679	1.5	0.1
0.01	1	0.0171834499997203	1	91	NA	144.546562961999	0	0.18	1.94	1	142.407846122	142.425029571999	"19"	9618.776349716	9616.605482679	1.5	0.1
0.01	1	0.0470875749997504	1	91	NA	144.546562961999	0	0.18	1.94	1	142.658290261999	142.705377836999	"19"	9618.776349716	9616.605482679	1.5	0.1
0.01	1	0.0280663810008264	1	91	NA	144.546562961999	0	0.18	1.94	1	142.942090676999	142.970157058	"19"	9618.776349716	9616.605482679	1.5	0.1
0.01	1	0.0248903789997712	1	91	NA	144.546562961999	0	0.18	1.94	1	143.192528005	143.217418384	"19"	9618.776349716	9616.605482679	1.5	0.1
0.01	1	0.0382582869988255	1	91	NA	144.546562961999	0	0.18	1.94	1	143.442893402	143.481151688999	"19"	9618.776349716	9616.605482679	1.5	0.1
0.01	1	0.0265703730001405	1	91	NA	144.546562961999	0	0.18	1.94	1	143.710041241999	143.736611614999	"19"	9618.776349716	9616.605482679	1.5	0.1
0.01	1	0.0418928779999987	1	91	NA	144.546562961999	0	0.18	1.94	1	143.96040885	144.002301728	"19"	9618.776349716	9616.605482679	1.5	0.1
0.01	1	0.0133510719988408	1	91	NA	144.546562961999	0	0.18	1.94	1	144.227597337	144.240948408999	"19"	9618.776349716	9616.605482679	1.5	0.1
0.01	1	0.0668488179999258	2	91	NA	144.546562961999	0	0.18	1.94	1	144.478048224999	144.544897042999	"19"	9618.776349716	9616.605482679	1.5	0.1
0.01	1	0.307671332999234	1	5	148.070453425	NA	1	0	1.94	1	146.59825157	146.905922902999	"20"	9618.776349716	9616.605482679	1.5	0.1
0.01	1	0.00202780900144717	1	5	148.070453425	NA	1	0	1.94	1	147.132462234998	147.134490044	"20"	9618.776349716	9616.605482679	1.5	0.1
0.01	1	0.0038462829998025	1	5	148.070453425	NA	1	0	1.94	1	147.366200306999	147.370046589998	"20"	9618.776349716	9616.605482679	1.5	0.1
0.01	1	0.00453254499916511	1	5	148.070453425	NA	1	0	1.94	1	147.599892849999	147.604425394999	"20"	9618.776349716	9616.605482679	1.5	0.1
0.01	1	0.126947957998709	1	5	148.070453425	NA	1	0	1.94	1	147.833724577	147.960672534999	"20"	9618.776349716	9616.605482679	1.5	0.1
0.01	1	0.128951975999371	1	123	NA	152.155110230999	0	0.06	2	1	150.104124117999	150.233076093999	"21"	9618.776349716	9616.605482679	1.5	0.1
0.01	1	0.0668671389994415	1	123	NA	152.155110230999	0	0.06	2	1	150.47136989	150.538237028999	"21"	9618.776349716	9616.605482679	1.5	0.1
0.01	1	0.0450148079999053	1	123	NA	152.155110230999	0	0.06	2	1	150.771907625	150.816922432999	"21"	9618.776349716	9616.605482679	1.5	0.1
0.01	1	0.0584068009993643	1	123	NA	152.155110230999	0	0.06	2	1	151.039076612	151.097483412999	"21"	9618.776349716	9616.605482679	1.5	0.1
0.01	1	0.0476419710012124	1	123	NA	152.155110230999	0	0.06	2	1	151.322871884999	151.370513856	"21"	9618.776349716	9616.605482679	1.5	0.1
0.01	1	0.0114825589989778	1	123	NA	152.155110230999	0	0.06	2	1	151.606724814999	151.618207373998	"21"	9618.776349716	9616.605482679	1.5	0.1
0.01	1	0.313183886999468	2	123	NA	152.155110230999	0	0.06	2	1	151.84037002	152.153553906999	"21"	9618.776349716	9616.605482679	1.5	0.1
0.01	1	0.550567542999488	1	81	NA	158.187013766999	0	0.09	2.09	1	154.211046777	154.761614319999	"22"	9618.776349716	9616.605482679	1.5	0.1
0.01	1	0.589016335001361	1	81	NA	158.187013766999	0	0.09	2.09	1	154.995628502998	155.584644838	"22"	9618.776349716	9616.605482679	1.5	0.1
0.01	1	0.571871645999636	1	81	NA	158.187013766999	0	0.09	2.09	1	155.813758024	156.38562967	"22"	9618.776349716	9616.605482679	1.5	0.1
0.01	1	0.0194231569985277	1	81	NA	158.187013766999	0	0.09	2.09	1	156.615192382	156.634615538998	"22"	9618.776349716	9616.605482679	1.5	0.1
0.01	1	0.00199575700025889	1	81	NA	158.187013766999	0	0.09	2.09	1	156.865573441999	156.867569198999	"22"	9618.776349716	9616.605482679	1.5	0.1
0.01	1	0.00392503100010799	1	81	NA	158.187013766999	0	0.09	2.09	1	157.099201575	157.103126606	"22"	9618.776349716	9616.605482679	1.5	0.1
0.01	1	0.00394531700112566	1	81	NA	158.187013766999	0	0.09	2.09	1	157.332978306998	157.336923624	"22"	9618.776349716	9616.605482679	1.5	0.1
0.01	1	0.00395442799890589	1	81	NA	158.187013766999	0	0.09	2.09	1	157.56681613	157.570770557999	"22"	9618.776349716	9616.605482679	1.5	0.1
0.01	1	0.00205302600079449	1	81	NA	158.187013766999	0	0.09	2.09	1	157.800390270999	157.802443297	"22"	9618.776349716	9616.605482679	1.5	0.1
0.01	1	0.151242137999361	2	81	NA	158.187013766999	0	0.09	2.09	1	158.034226115	158.185468252999	"22"	9618.776349716	9616.605482679	1.5	0.1
0.01	1	1.96674311999959	1	117	NA	166.485545271	0	0.12	2.21	1	160.221210054999	162.187953174998	"23"	9618.776349716	9616.605482679	1.5	0.1
0.01	1	0.0038497389996337	1	117	NA	166.485545271	0	0.12	2.21	1	162.424927835	162.428777573999	"23"	9618.776349716	9616.605482679	1.5	0.1
0.01	1	0.0732790020010725	1	117	NA	166.485545271	0	0.12	2.21	1	162.658576734999	162.731855737	"23"	9618.776349716	9616.605482679	1.5	0.1
0.01	1	0.107362787999591	1	117	NA	166.485545271	0	0.12	2.21	1	162.959131217	163.066494004999	"23"	9618.776349716	9616.605482679	1.5	0.1
0.01	1	0.00464828199983458	1	117	NA	166.485545271	0	0.12	2.21	1	163.293029824999	163.297678106999	"23"	9618.776349716	9616.605482679	1.5	0.1
0.01	1	0.00453892699988501	1	117	NA	166.485545271	0	0.12	2.21	1	163.526754409999	163.531293336999	"23"	9618.776349716	9616.605482679	1.5	0.1
0.01	1	0.00201890599964827	1	117	NA	166.485545271	0	0.12	2.21	1	163.760465869	163.762484774999	"23"	9618.776349716	9616.605482679	1.5	0.1
0.01	1	0.00386277500001597	1	117	NA	166.485545271	0	0.12	2.21	1	163.994134867	163.997997642	"23"	9618.776349716	9616.605482679	1.5	0.1
0.01	1	0.398785365001459	1	117	NA	166.485545271	0	0.12	2.21	1	164.227969029998	164.626754395	"23"	9618.776349716	9616.605482679	1.5	0.1
0.01	1	0.212021180001102	1	117	NA	166.485545271	0	0.12	2.21	1	164.862370174998	165.074391355	"23"	9618.776349716	9616.605482679	1.5	0.1
0.01	1	0.242969470000389	1	117	NA	166.485545271	0	0.12	2.21	1	165.312998926998	165.555968396999	"23"	9618.776349716	9616.605482679	1.5	0.1
0.01	1	0.239014044000214	1	117	NA	166.485545271	0	0.12	2.21	1	165.780548193999	166.019562238	"23"	9618.776349716	9616.605482679	1.5	0.1
0.01	1	0.235903259999759	2	117	NA	166.485545271	0	0.12	2.21	1	166.2480292	166.48393246	"23"	9618.776349716	9616.605482679	1.5	0.1
0.01	1	3.56280028999936	2	84	NA	172.082889218	0	0	2.21	1	168.518491862	172.081292151999	"24"	9618.776349716	9616.605482679	1.5	0.1
0.01	1	0.00214332599898626	1	22	180.124491369999	NA	1	0	2.21	1	174.127845714	174.129989039999	"25"	9618.776349716	9616.605482679	1.5	0.1
0.01	1	0.0487107200005994	1	22	180.124491369999	NA	1	0	2.21	1	174.361564146999	174.410274866999	"25"	9618.776349716	9616.605482679	1.5	0.1
0.01	1	0.15635733199997	1	22	180.124491369999	NA	1	0	2.21	1	174.645485416999	174.801842748999	"25"	9618.776349716	9616.605482679	1.5	0.1
0.01	1	0.0935290340003121	1	22	180.124491369999	NA	1	0	2.21	1	175.029449644999	175.122978678999	"25"	9618.776349716	9616.605482679	1.5	0.1
0.01	1	0.0642520839992358	1	22	180.124491369999	NA	1	0	2.21	1	175.346598484999	175.410850568998	"25"	9618.776349716	9616.605482679	1.5	0.1
0.01	1	0.0339968970001792	1	22	180.124491369999	NA	1	0	2.21	1	175.647168979998	175.681165876998	"25"	9618.776349716	9616.605482679	1.5	0.1
0.01	1	0.0242501080010697	1	22	180.124491369999	NA	1	0	2.21	1	175.914232026998	175.938482135	"25"	9618.776349716	9616.605482679	1.5	0.1
0.01	1	0.0210382229997776	1	22	180.124491369999	NA	1	0	2.21	1	176.164725541999	176.185763764999	"25"	9618.776349716	9616.605482679	1.5	0.1
0.01	1	0.035499132998666	1	22	180.124491369999	NA	1	0	2.21	1	176.415128477	176.450627609998	"25"	9618.776349716	9616.605482679	1.5	0.1
0.01	1	0.00404886300020735	1	22	180.124491369999	NA	1	0	2.21	1	176.682156575	176.686205438	"25"	9618.776349716	9616.605482679	1.5	0.1
0.01	1	0.00341607600057614	1	22	180.124491369999	NA	1	0	2.21	1	176.915935199999	176.919351275999	"25"	9618.776349716	9616.605482679	1.5	0.1
0.01	1	0.00785164599983545	1	22	180.124491369999	NA	1	0	2.21	1	177.149702342	177.157553988	"25"	9618.776349716	9616.605482679	1.5	0.1
0.01	1	0.0432753879995289	1	22	180.124491369999	NA	1	0	2.21	1	177.383366546999	177.426641934999	"25"	9618.776349716	9616.605482679	1.5	0.1
0.01	1	0.071854498999528	1	22	180.124491369999	NA	1	0	2.21	1	177.667181999999	177.739036498999	"25"	9618.776349716	9616.605482679	1.5	0.1
0.01	1	0.0738466570001037	1	22	180.124491369999	NA	1	0	2.21	1	177.967663654999	178.041510311999	"25"	9618.776349716	9616.605482679	1.5	0.1
0.01	1	0.0778562689993123	1	22	180.124491369999	NA	1	0	2.21	1	178.268187525	178.346043793999	"25"	9618.776349716	9616.605482679	1.5	0.1
0.01	1	0.0739649000006466	1	22	180.124491369999	NA	1	0	2.21	1	178.568842879999	178.642807779999	"25"	9618.776349716	9616.605482679	1.5	0.1
0.01	1	0.0361837130003551	1	22	180.124491369999	NA	1	0	2.21	1	178.869370715	178.905554428	"25"	9618.776349716	9616.605482679	1.5	0.1
0.01	1	0.0732800200003112	1	22	180.124491369999	NA	1	0	2.21	1	179.13653484	179.20981486	"25"	9618.776349716	9616.605482679	1.5	0.1
0.01	1	0.0462458920010249	1	22	180.124491369999	NA	1	0	2.21	1	179.436832849999	179.483078742	"25"	9618.776349716	9616.605482679	1.5	0.1
0.01	1	0.0165528859997721	1	22	180.124491369999	NA	1	0	2.21	1	179.720575284999	179.737128170998	"25"	9618.776349716	9616.605482679	1.5	0.1
0.01	1	0.0398346719994151	1	22	180.124491369999	NA	1	0	2.21	1	179.971026337	180.010861008999	"25"	9618.776349716	9616.605482679	1.5	0.1
0.01	1	0.043939474000581	1	36	NA	185.323281485	0	0.12	2.33	1	182.174808444999	182.218747919	"26"	9618.776349716	9616.605482679	1.5	0.1
0.01	1	0.046548428999813	1	36	NA	185.323281485	0	0.12	2.33	1	182.458528435	182.505076863999	"26"	9618.776349716	9616.605482679	1.5	0.1
0.01	1	0.0196077669988881	1	36	NA	185.323281485	0	0.12	2.33	1	182.74245783	182.762065596999	"26"	9618.776349716	9616.605482679	1.5	0.1
0.01	1	0.0252235179996205	1	36	NA	185.323281485	0	0.12	2.33	1	182.992834119999	183.018057637999	"26"	9618.776349716	9616.605482679	1.5	0.1
0.01	1	0.0547658240011515	1	36	NA	185.323281485	0	0.12	2.33	1	183.243208779999	183.297974604	"26"	9618.776349716	9616.605482679	1.5	0.1
0.01	1	0.0193275480014563	1	36	NA	185.323281485	0	0.12	2.33	1	183.526991731998	183.54631928	"26"	9618.776349716	9616.605482679	1.5	0.1
0.01	1	0.0325387559987576	1	36	NA	185.323281485	0	0.12	2.33	1	183.777543835	183.810082590999	"26"	9618.776349716	9616.605482679	1.5	0.1
0.01	1	0.00222149900037039	1	36	NA	185.323281485	0	0.12	2.33	1	184.044560867998	184.046782366999	"26"	9618.776349716	9616.605482679	1.5	0.1
0.01	1	0.00721794400124054	1	36	NA	185.323281485	0	0.12	2.33	1	184.278313899998	184.285531844	"26"	9618.776349716	9616.605482679	1.5	0.1
0.01	1	0.00964338999983738	1	36	NA	185.323281485	0	0.12	2.33	1	184.51196043	184.52160382	"26"	9618.776349716	9616.605482679	1.5	0.1
0.01	1	0.015919206000035	1	36	NA	185.323281485	0	0.12	2.33	1	184.745832699999	184.761751905999	"26"	9618.776349716	9616.605482679	1.5	0.1
0.01	1	0.0302924099996744	1	36	NA	185.323281485	0	0.12	2.33	1	184.996211374999	185.026503784999	"26"	9618.776349716	9616.605482679	1.5	0.1
0.01	1	0.0584272629985207	2	36	NA	185.323281485	0	0.12	2.33	1	185.263335742	185.321763004999	"26"	9618.776349716	9616.605482679	1.5	0.1
0.01	1	0.347065953999845	1	124	NA	191.372505417999	0	0.13	2.46	1	187.350171765	187.697237719	"27"	9618.776349716	9616.605482679	1.5	0.1
0.01	1	0.0366395180008112	1	124	NA	191.372505417999	0	0.13	2.46	1	187.934484464999	187.971123982999	"27"	9618.776349716	9616.605482679	1.5	0.1
0.01	1	0.0733830329991179	1	124	NA	191.372505417999	0	0.13	2.46	1	188.20159035	188.274973382999	"27"	9618.776349716	9616.605482679	1.5	0.1
0.01	1	0.115962358999241	1	124	NA	191.372505417999	0	0.13	2.46	1	188.502136616	188.618098974999	"27"	9618.776349716	9616.605482679	1.5	0.1
0.01	1	0.0372841199987306	1	124	NA	191.372505417999	0	0.13	2.46	1	188.852701782	188.889985901998	"27"	9618.776349716	9616.605482679	1.5	0.1
0.01	1	0.0342157900013262	1	124	NA	191.372505417999	0	0.13	2.46	1	189.119825799999	189.15404159	"27"	9618.776349716	9616.605482679	1.5	0.1
0.01	1	0.0021414469993033	1	124	NA	191.372505417999	0	0.13	2.46	1	189.386870065	189.389011511999	"27"	9618.776349716	9616.605482679	1.5	0.1
0.01	1	0.0135567130000709	1	124	NA	191.372505417999	0	0.13	2.46	1	189.620666344999	189.634223057999	"27"	9618.776349716	9616.605482679	1.5	0.1
0.01	1	0.0280028390006919	1	124	NA	191.372505417999	0	0.13	2.46	1	189.871050096999	189.899052936	"27"	9618.776349716	9616.605482679	1.5	0.1
0.01	1	0.0495518259995151	1	124	NA	191.372505417999	0	0.13	2.46	1	190.12141731	190.170969135999	"27"	9618.776349716	9616.605482679	1.5	0.1
0.01	1	0.0526989609988959	1	124	NA	191.372505417999	0	0.13	2.46	1	190.405293545	190.457992505999	"27"	9618.776349716	9616.605482679	1.5	0.1
0.01	1	0.0323731030002818	1	124	NA	191.372505417999	0	0.13	2.46	1	190.6891289	190.721502003	"27"	9618.776349716	9616.605482679	1.5	0.1
0.01	1	0.00350151300153811	1	124	NA	191.372505417999	0	0.13	2.46	1	190.956182614998	190.959684128	"27"	9618.776349716	9616.605482679	1.5	0.1
0.01	1	0.181009079999058	2	124	NA	191.372505417999	0	0.13	2.46	1	191.189951175	191.370960254999	"27"	9618.776349716	9616.605482679	1.5	0.1
0.01	1	0.17538278199936	1	13	NA	197.042883802	0	0.1	2.56	1	193.410353154999	193.585735936998	"28"	9618.776349716	9616.605482679	1.5	0.1
0.01	1	0.0474749659988447	1	13	NA	197.042883802	0	0.1	2.56	1	193.81105316	193.858528125998	"28"	9618.776349716	9616.605482679	1.5	0.1
0.01	1	0.523129551000238	1	13	NA	197.042883802	0	0.1	2.56	1	194.094972927	194.618102478	"28"	9618.776349716	9616.605482679	1.5	0.1
0.01	1	0.00395688299977337	1	13	NA	197.042883802	0	0.1	2.56	1	194.846065394999	194.850022277999	"28"	9618.776349716	9616.605482679	1.5	0.1
0.01	1	0.00388761500107648	1	13	NA	197.042883802	0	0.1	2.56	1	195.079851106999	195.083738722	"28"	9618.776349716	9616.605482679	1.5	0.1
0.01	1	0.00397099400106526	1	13	NA	197.042883802	0	0.1	2.56	1	195.313540199999	195.317511194	"28"	9618.776349716	9616.605482679	1.5	0.1
0.01	1	0.00381726900013746	1	13	NA	197.042883802	0	0.1	2.56	1	195.547237907	195.551055176	"28"	9618.776349716	9616.605482679	1.5	0.1
0.01	1	0.00380095000036818	1	13	NA	197.042883802	0	0.1	2.56	1	195.781042909999	195.784843859999	"28"	9618.776349716	9616.605482679	1.5	0.1
0.01	1	0.00378755800011277	1	13	NA	197.042883802	0	0.1	2.56	1	196.014741239998	196.018528797998	"28"	9618.776349716	9616.605482679	1.5	0.1
0.01	1	0.00374278900017089	1	13	NA	197.042883802	0	0.1	2.56	1	196.248429296998	196.252172085999	"28"	9618.776349716	9616.605482679	1.5	0.1
0.01	1	0.559128014001544	2	13	NA	197.042883802	0	0.1	2.56	1	196.482200011998	197.041328026	"28"	9618.776349716	9616.605482679	1.5	0.1
0.01	1	0.0192724959997577	1	125	NA	201.386744465999	0	0.04	2.6	1	199.08661468	199.105887176	"29"	9618.776349716	9616.605482679	1.5	0.1
0.01	1	0.0966983349990187	1	125	NA	201.386744465999	0	0.04	2.6	1	199.33695687	199.433655204999	"29"	9618.776349716	9616.605482679	1.5	0.1
0.01	1	0.0762075590009772	1	125	NA	201.386744465999	0	0.04	2.6	1	199.670888904999	199.747096464	"29"	9618.776349716	9616.605482679	1.5	0.1
0.01	1	0.0872185549997084	1	125	NA	201.386744465999	0	0.04	2.6	1	199.97141246	200.058631014999	"29"	9618.776349716	9616.605482679	1.5	0.1
0.01	1	1.096560512	2	125	NA	201.386744465999	0	0.04	2.6	1	200.288603121999	201.385163633999	"29"	9618.776349716	9616.605482679	1.5	0.1
0.01	1	0.847100114999193	1	105	NA	207.276246564999	0	0.08	2.68	1	203.427224659999	204.274324774999	"30"	9618.776349716	9616.605482679	1.5	0.1
0.01	1	0.370220015998711	1	105	NA	207.276246564999	0	0.08	2.68	1	204.512359707	204.882579722998	"30"	9618.776349716	9616.605482679	1.5	0.1
0.01	1	0.217104205999931	1	105	NA	207.276246564999	0	0.08	2.68	1	205.113295821999	205.330400027999	"30"	9618.776349716	9616.605482679	1.5	0.1
0.01	1	0.165577547999419	1	105	NA	207.276246564999	0	0.08	2.68	1	205.564142474999	205.729720022999	"30"	9618.776349716	9616.605482679	1.5	0.1
0.01	1	0.133938336000938	1	105	NA	207.276246564999	0	0.08	2.68	1	205.964822843998	206.098761179999	"30"	9618.776349716	9616.605482679	1.5	0.1
0.01	1	0.0463647969991143	1	105	NA	207.276246564999	0	0.08	2.68	1	206.33207692	206.378441716999	"30"	9618.776349716	9616.605482679	1.5	0.1
0.01	1	0.0351491279998299	1	105	NA	207.276246564999	0	0.08	2.68	1	206.615847829999	206.650996957998	"30"	9618.776349716	9616.605482679	1.5	0.1
0.01	1	0.0303825959999813	1	105	NA	207.276246564999	0	0.08	2.68	1	206.882935136999	206.913317732999	"30"	9618.776349716	9616.605482679	1.5	0.1
0.01	1	0.124601539999276	2	105	NA	207.276246564999	0	0.08	2.68	1	207.150084325	207.274685864999	"30"	9618.776349716	9616.605482679	1.5	0.1
