"payoff.level"	"balloon"	"rt"	"resp"	"explode.trial"	"explode.time"	"finish.time"	"exploded"	"trial.total"	"cumulative.total"	"finished"	"trial.start"	"trial.end"	"trial.num"	"secs"	"start.time"	"iti"	"isi"
0.01	1	1.53392178200011	1	64	NA	31.7693172009967	0	0.41	0.41	1	0.0178532469981292	1.55177502899824	"1"	20616.985247697	20605.762590685	1.5	0.1
0.01	1	0.352841594998608	1	64	NA	31.7693172009967	0	0.41	0.41	1	1.85430215499946	2.20714374999807	"1"	20616.985247697	20605.762590685	1.5	0.1
0.01	1	0.255486115998792	1	64	NA	31.7693172009967	0	0.41	0.41	1	2.43879204499899	2.69427816099778	"1"	20616.985247697	20605.762590685	1.5	0.1
0.01	1	0.00354875999983051	1	64	NA	31.7693172009967	0	0.41	0.41	1	2.92273573700004	2.92628449699987	"1"	20616.985247697	20605.762590685	1.5	0.1
0.01	1	0.00395875799949863	1	64	NA	31.7693172009967	0	0.41	0.41	1	3.15641549700013	3.16037425499962	"1"	20616.985247697	20605.762590685	1.5	0.1
0.01	1	0.00460548000046401	1	64	NA	31.7693172009967	0	0.41	0.41	1	3.39029601499715	3.39490149499761	"1"	20616.985247697	20605.762590685	1.5	0.1
0.01	1	0.10314772700076	1	64	NA	31.7693172009967	0	0.41	0.41	1	3.62391191699862	3.72705964399938	"1"	20616.985247697	20605.762590685	1.5	0.1
0.01	1	0.777762720001192	1	64	NA	31.7693172009967	0	0.41	0.41	1	3.95778679199793	4.73554951199912	"1"	20616.985247697	20605.762590685	1.5	0.1
0.01	1	0.343528510999022	1	64	NA	31.7693172009967	0	0.41	0.41	1	4.97617443199852	5.31970294299754	"1"	20616.985247697	20605.762590685	1.5	0.1
0.01	1	0.0232444450011826	1	64	NA	31.7693172009967	0	0.41	0.41	1	5.54386427499776	5.56710871999894	"1"	20616.985247697	20605.762590685	1.5	0.1
0.01	1	0.00399293399823364	1	64	NA	31.7693172009967	0	0.41	0.41	1	5.79426070699992	5.79825364099815	"1"	20616.985247697	20605.762590685	1.5	0.1
0.01	1	0.843970330999582	1	64	NA	31.7693172009967	0	0.41	0.41	1	6.0280316899989	6.87200202099848	"1"	20616.985247697	20605.762590685	1.5	0.1
0.01	1	0.302821993001999	1	64	NA	31.7693172009967	0	0.41	0.41	1	7.09644334199766	7.39926533499965	"1"	20616.985247697	20605.762590685	1.5	0.1
0.01	1	0.33654098000261	1	64	NA	31.7693172009967	0	0.41	0.41	1	7.63074005699673	7.96728103699934	"1"	20616.985247697	20605.762590685	1.5	0.1
0.01	1	0.45630087400059	1	64	NA	31.7693172009967	0	0.41	0.41	1	8.19834195699877	8.65464283099936	"1"	20616.985247697	20605.762590685	1.5	0.1
0.01	1	0.36346194199723	1	64	NA	31.7693172009967	0	0.41	0.41	1	8.88281863500015	9.24628057699738	"1"	20616.985247697	20605.762590685	1.5	0.1
0.01	1	0.0601644269991084	1	64	NA	31.7693172009967	0	0.41	0.41	1	9.48380068799815	9.54396511499726	"1"	20616.985247697	20605.762590685	1.5	0.1
0.01	1	0.00390012599746115	1	64	NA	31.7693172009967	0	0.41	0.41	1	9.76746596500016	9.77136609099762	"1"	20616.985247697	20605.762590685	1.5	0.1
0.01	1	0.00382629099840415	1	64	NA	31.7693172009967	0	0.41	0.41	1	10.0013021999985	10.0051284909969	"1"	20616.985247697	20605.762590685	1.5	0.1
0.01	1	0.00458668500141357	1	64	NA	31.7693172009967	0	0.41	0.41	1	10.2350499799977	10.2396366649991	"1"	20616.985247697	20605.762590685	1.5	0.1
0.01	1	0.004477730999497	1	64	NA	31.7693172009967	0	0.41	0.41	1	10.4689624739985	10.473440204998	"1"	20616.985247697	20605.762590685	1.5	0.1
0.01	1	1.05598701700001	1	64	NA	31.7693172009967	0	0.41	0.41	1	10.7026195949984	11.7586066119984	"1"	20616.985247697	20605.762590685	1.5	0.1
0.01	1	0.00458836699908716	1	64	NA	31.7693172009967	0	0.41	0.41	1	11.9880913649977	11.9926797319968	"1"	20616.985247697	20605.762590685	1.5	0.1
0.01	1	0.104978751001909	1	64	NA	31.7693172009967	0	0.41	0.41	1	12.2216681949976	12.3266469459995	"1"	20616.985247697	20605.762590685	1.5	0.1
0.01	1	2.3396075510027	1	64	NA	31.7693172009967	0	0.41	0.41	1	12.5556347219972	14.8952422729999	"1"	20616.985247697	20605.762590685	1.5	0.1
0.01	1	0.00461327499942854	1	64	NA	31.7693172009967	0	0.41	0.41	1	15.1266594499975	15.131272724997	"1"	20616.985247697	20605.762590685	1.5	0.1
0.01	1	2.15137193100236	1	64	NA	31.7693172009967	0	0.41	0.41	1	15.3603472019968	17.5117191329991	"1"	20616.985247697	20605.762590685	1.5	0.1
0.01	1	0.00390363599944976	1	64	NA	31.7693172009967	0	0.41	0.41	1	17.7477138649992	17.7516175009987	"1"	20616.985247697	20605.762590685	1.5	0.1
0.01	1	1.00994319900201	1	64	NA	31.7693172009967	0	0.41	0.41	1	17.9814785869967	18.9914217859987	"1"	20616.985247697	20605.762590685	1.5	0.1
0.01	1	0.0039068980004231	1	64	NA	31.7693172009967	0	0.41	0.41	1	19.2168369549981	19.2207438529986	"1"	20616.985247697	20605.762590685	1.5	0.1
0.01	1	0.572614190001332	1	64	NA	31.7693172009967	0	0.41	0.41	1	19.4506339699983	20.0232481599996	"1"	20616.985247697	20605.762590685	1.5	0.1
0.01	1	0.00466784200034454	1	64	NA	31.7693172009967	0	0.41	0.41	1	20.2519205199969	20.2565883619973	"1"	20616.985247697	20605.762590685	1.5	0.1
0.01	1	2.01800410400028	1	64	NA	31.7693172009967	0	0.41	0.41	1	20.4856392819966	22.5036433859968	"1"	20616.985247697	20605.762590685	1.5	0.1
0.01	1	0.00376024100114591	1	64	NA	31.7693172009967	0	0.41	0.41	1	22.7394197219983	22.7431799629994	"1"	20616.985247697	20605.762590685	1.5	0.1
0.01	1	3.16945540300003	1	64	NA	31.7693172009967	0	0.41	0.41	1	22.9730735199992	26.1425289229992	"1"	20616.985247697	20605.762590685	1.5	0.1
0.01	1	0.00336075200175401	1	64	NA	31.7693172009967	0	0.41	0.41	1	26.3788723849975	26.3822331369993	"1"	20616.985247697	20605.762590685	1.5	0.1
0.01	1	0.498252605000744	1	64	NA	31.7693172009967	0	0.41	0.41	1	26.6125740119969	27.1108266169977	"1"	20616.985247697	20605.762590685	1.5	0.1
0.01	1	0.00348343299992848	1	64	NA	31.7693172009967	0	0.41	0.41	1	27.3471359999967	27.3506194329966	"1"	20616.985247697	20605.762590685	1.5	0.1
0.01	1	1.89884764400267	1	64	NA	31.7693172009967	0	0.41	0.41	1	27.5809122369974	29.4797598810001	"1"	20616.985247697	20605.762590685	1.5	0.1
0.01	1	0.456998973997543	1	64	NA	31.7693172009967	0	0.41	0.41	1	29.7177881249991	30.1747870989966	"1"	20616.985247697	20605.762590685	1.5	0.1
0.01	1	0.340960295998229	1	64	NA	31.7693172009967	0	0.41	0.41	1	30.4023095349985	30.7432698309967	"1"	20616.985247697	20605.762590685	1.5	0.1
0.01	1	0.79773969300004	2	64	NA	31.7693172009967	0	0.41	0.41	1	30.9698771219992	31.7676168149992	"1"	20616.985247697	20605.762590685	1.5	0.1
0.01	1	1.48609207999834	1	3	35.981479217	NA	1	0	0.41	1	33.8247052199986	35.3107972999969	"2"	20616.985247697	20605.762590685	1.5	0.1
0.01	1	0.00386442899980466	1	3	35.981479217	NA	1	0	0.41	1	35.5443113999972	35.548175828997	"2"	20616.985247697	20605.762590685	1.5	0.1
0.01	1	0.0921486250008456	1	3	35.981479217	NA	1	0	0.41	1	35.7780462399969	35.8701948649978	"2"	20616.985247697	20605.762590685	1.5	0.1
0.01	1	1.01457305800068	1	81	NA	59.2568426119979	0	0.23	0.64	1	38.031723404998	39.0462964629987	"3"	20616.985247697	20605.762590685	1.5	0.1
0.01	1	0.00350919300035457	1	81	NA	59.2568426119979	0	0.23	0.64	1	39.2838869419975	39.2873961349978	"3"	20616.985247697	20605.762590685	1.5	0.1
0.01	1	0.0731602120031312	1	81	NA	59.2568426119979	0	0.23	0.64	1	39.5175484599968	39.5907086719999	"3"	20616.985247697	20605.762590685	1.5	0.1
0.01	1	0.630042057000537	1	81	NA	59.2568426119979	0	0.23	0.64	1	39.8180563999995	40.448098457	"3"	20616.985247697	20605.762590685	1.5	0.1
0.01	1	0.543910291002248	1	81	NA	59.2568426119979	0	0.23	0.64	1	40.6862710619971	41.2301813529994	"3"	20616.985247697	20605.762590685	1.5	0.1
0.01	1	0.537288725001417	1	81	NA	59.2568426119979	0	0.23	0.64	1	41.454200164997	41.9914888899984	"3"	20616.985247697	20605.762590685	1.5	0.1
0.01	1	1.78415273000064	1	81	NA	59.2568426119979	0	0.23	0.64	1	42.2221446449985	44.0062973749991	"3"	20616.985247697	20605.762590685	1.5	0.1
0.01	1	0.740160266002931	1	81	NA	59.2568426119979	0	0.23	0.64	1	44.2421789169966	44.9823391829996	"3"	20616.985247697	20605.762590685	1.5	0.1
0.01	1	0.413484027998493	1	81	NA	59.2568426119979	0	0.23	0.64	1	45.210547232	45.6240312599984	"3"	20616.985247697	20605.762590685	1.5	0.1
0.01	1	0.305433284000173	1	81	NA	59.2568426119979	0	0.23	0.64	1	45.8616220149997	46.1670552989999	"3"	20616.985247697	20605.762590685	1.5	0.1
0.01	1	0.155067577001319	1	81	NA	59.2568426119979	0	0.23	0.64	1	46.3958681769982	46.5509357539995	"3"	20616.985247697	20605.762590685	1.5	0.1
0.01	1	1.77976761299942	1	81	NA	59.2568426119979	0	0.23	0.64	1	46.7798911169994	48.5596587299988	"3"	20616.985247697	20605.762590685	1.5	0.1
0.01	1	0.351540190000378	1	81	NA	59.2568426119979	0	0.23	0.64	1	48.7998272799996	49.15136747	"3"	20616.985247697	20605.762590685	1.5	0.1
0.01	1	0.358210009002505	1	81	NA	59.2568426119979	0	0.23	0.64	1	49.3843031599972	49.7425131689997	"3"	20616.985247697	20605.762590685	1.5	0.1
0.01	1	0.383719212000869	1	81	NA	59.2568426119979	0	0.23	0.64	1	49.9685016499971	50.3522208619979	"3"	20616.985247697	20605.762590685	1.5	0.1
0.01	1	0.276778481002111	1	81	NA	59.2568426119979	0	0.23	0.64	1	50.5862453169975	50.8630237979996	"3"	20616.985247697	20605.762590685	1.5	0.1
0.01	1	1.39255167300144	1	81	NA	59.2568426119979	0	0.23	0.64	1	51.0870161569983	52.4795678299997	"3"	20616.985247697	20605.762590685	1.5	0.1
0.01	1	1.36459017800007	1	81	NA	59.2568426119979	0	0.23	0.64	1	52.7064972549997	54.0710874329998	"3"	20616.985247697	20605.762590685	1.5	0.1
0.01	1	0.722060467000119	1	81	NA	59.2568426119979	0	0.23	0.64	1	54.3091395049996	55.0311999719997	"3"	20616.985247697	20605.762590685	1.5	0.1
0.01	1	0.00370605300122406	1	81	NA	59.2568426119979	0	0.23	0.64	1	55.260750999998	55.2644570529992	"3"	20616.985247697	20605.762590685	1.5	0.1
0.01	1	1.69630204299756	1	81	NA	59.2568426119979	0	0.23	0.64	1	55.4944444899993	57.1907465329969	"3"	20616.985247697	20605.762590685	1.5	0.1
0.01	1	0.375315058001433	1	81	NA	59.2568426119979	0	0.23	0.64	1	57.4310909139967	57.8064059719982	"3"	20616.985247697	20605.762590685	1.5	0.1
0.01	1	0.20783303799908	1	81	NA	59.2568426119979	0	0.23	0.64	1	58.0321360899979	58.239969127997	"3"	20616.985247697	20605.762590685	1.5	0.1
0.01	1	0.788908626000193	2	81	NA	59.2568426119979	0	0.23	0.64	1	58.4662614399967	59.2551700659969	"3"	20616.985247697	20605.762590685	1.5	0.1
0.01	1	1.32614306599862	1	94	NA	87.0729590709998	0	0.24	0.88	1	61.3042248169986	62.6303678829972	"4"	20616.985247697	20605.762590685	1.5	0.1
0.01	1	0.661986643997807	1	94	NA	87.0729590709998	0	0.24	0.88	1	62.8569028099992	63.518889453997	"4"	20616.985247697	20605.762590685	1.5	0.1
0.01	1	0.00375011299911421	1	94	NA	87.0729590709998	0	0.24	0.88	1	63.7583149419988	63.7620650549979	"4"	20616.985247697	20605.762590685	1.5	0.1
0.01	1	0.919180209999467	1	94	NA	87.0729590709998	0	0.24	0.88	1	63.9920577169978	64.9112379269973	"4"	20616.985247697	20605.762590685	1.5	0.1
0.01	1	0.694341323000117	1	94	NA	87.0729590709998	0	0.24	0.88	1	65.1441115299967	65.8384528529969	"4"	20616.985247697	20605.762590685	1.5	0.1
0.01	1	0.736465711001074	1	94	NA	87.0729590709998	0	0.24	0.88	1	66.0623244719973	66.7987901829983	"4"	20616.985247697	20605.762590685	1.5	0.1
0.01	1	0.721373484997457	1	94	NA	87.0729590709998	0	0.24	0.88	1	67.0306315119997	67.7520049969971	"4"	20616.985247697	20605.762590685	1.5	0.1
0.01	1	0.680639456997596	1	94	NA	87.0729590709998	0	0.24	0.88	1	67.9820971949994	68.662736651997	"4"	20616.985247697	20605.762590685	1.5	0.1
0.01	1	0.962791040001321	1	94	NA	87.0729590709998	0	0.24	0.88	1	68.8837376499978	69.8465286899991	"4"	20616.985247697	20605.762590685	1.5	0.1
0.01	1	0.296876391999831	1	94	NA	87.0729590709998	0	0.24	0.88	1	70.0856211939972	70.382497585997	"4"	20616.985247697	20605.762590685	1.5	0.1
0.01	1	0.292214090000925	1	94	NA	87.0729590709998	0	0.24	0.88	1	70.6198609899984	70.9120750799993	"4"	20616.985247697	20605.762590685	1.5	0.1
0.01	1	0.853447927998786	1	94	NA	87.0729590709998	0	0.24	0.88	1	71.137598674999	71.9910466029978	"4"	20616.985247697	20605.762590685	1.5	0.1
0.01	1	0.775723924998601	1	94	NA	87.0729590709998	0	0.24	0.88	1	72.222669499999	72.9983934249976	"4"	20616.985247697	20605.762590685	1.5	0.1
0.01	1	0.710611980000976	1	94	NA	87.0729590709998	0	0.24	0.88	1	73.2242784449991	73.934890425	"4"	20616.985247697	20605.762590685	1.5	0.1
0.01	1	0.719783464999637	1	94	NA	87.0729590709998	0	0.24	0.88	1	74.1758855619992	74.8956690269988	"4"	20616.985247697	20605.762590685	1.5	0.1
0.01	1	1.4963264700018	1	94	NA	87.0729590709998	0	0.24	0.88	1	75.1274971649982	76.623823635	"4"	20616.985247697	20605.762590685	1.5	0.1
0.01	1	1.08109906699974	1	94	NA	87.0729590709998	0	0.24	0.88	1	76.8470940999978	77.9281931669975	"4"	20616.985247697	20605.762590685	1.5	0.1
0.01	1	0.752673470997252	1	94	NA	87.0729590709998	0	0.24	0.88	1	78.165964672	78.9186381429972	"4"	20616.985247697	20605.762590685	1.5	0.1
0.01	1	0.76757309399909	1	94	NA	87.0729590709998	0	0.24	0.88	1	79.1509585499989	79.918531643998	"4"	20616.985247697	20605.762590685	1.5	0.1
0.01	1	1.03758039500099	1	94	NA	87.0729590709998	0	0.24	0.88	1	80.1525659749968	81.1901463699978	"4"	20616.985247697	20605.762590685	1.5	0.1
0.01	1	0.809431378998852	1	94	NA	87.0729590709998	0	0.24	0.88	1	81.4214858849991	82.230917263998	"4"	20616.985247697	20605.762590685	1.5	0.1
0.01	1	1.56606633800038	1	94	NA	87.0729590709998	0	0.24	0.88	1	82.4564866719993	84.0225530099997	"4"	20616.985247697	20605.762590685	1.5	0.1
0.01	1	0.746865896999225	1	94	NA	87.0729590709998	0	0.24	0.88	1	84.2594157349995	85.0062816319987	"4"	20616.985247697	20605.762590685	1.5	0.1
0.01	1	0.54002630299874	1	94	NA	87.0729590709998	0	0.24	0.88	1	85.2277396799982	85.7677659829969	"4"	20616.985247697	20605.762590685	1.5	0.1
0.01	1	1.07567553300032	2	94	NA	87.0729590709998	0	0.24	0.88	1	85.9957291669998	87.0714047000001	"4"	20616.985247697	20605.762590685	1.5	0.1
0.01	1	1.54585451099774	1	128	NA	110.680951893999	0	0.26	1.14	1	89.1176579419989	90.6635124529967	"5"	20616.985247697	20605.762590685	1.5	0.1
0.01	1	0.527207700997678	1	128	NA	110.680951893999	0	0.26	1.14	1	90.9040405119995	91.4312482129972	"5"	20616.985247697	20605.762590685	1.5	0.1
0.01	1	0.439115212997422	1	128	NA	110.680951893999	0	0.26	1.14	1	91.6553207500001	92.0944359629975	"5"	20616.985247697	20605.762590685	1.5	0.1
0.01	1	0.460723452000821	1	128	NA	110.680951893999	0	0.26	1.14	1	92.3230798369987	92.7838032889995	"5"	20616.985247697	20605.762590685	1.5	0.1
0.01	1	0.430933485000423	1	128	NA	110.680951893999	0	0.26	1.14	1	93.0076186849983	93.4385521699987	"5"	20616.985247697	20605.762590685	1.5	0.1
0.01	1	0.370867092999106	1	128	NA	110.680951893999	0	0.26	1.14	1	93.6754074499986	94.0462745429977	"5"	20616.985247697	20605.762590685	1.5	0.1
0.01	1	1.60314762599955	1	128	NA	110.680951893999	0	0.26	1.14	1	94.2763285069996	95.8794761329991	"5"	20616.985247697	20605.762590685	1.5	0.1
0.01	1	0.317870039998525	1	128	NA	110.680951893999	0	0.26	1.14	1	96.1126955569998	96.4305655969983	"5"	20616.985247697	20605.762590685	1.5	0.1
0.01	1	0.335680088999652	1	128	NA	110.680951893999	0	0.26	1.14	1	96.6636468319994	96.999326920999	"5"	20616.985247697	20605.762590685	1.5	0.1
0.01	1	0.34397931300191	1	128	NA	110.680951893999	0	0.26	1.14	1	97.2313401199972	97.5753194329991	"5"	20616.985247697	20605.762590685	1.5	0.1
0.01	1	0.561057299000822	1	128	NA	110.680951893999	0	0.26	1.14	1	97.7989994099989	98.3600567089998	"5"	20616.985247697	20605.762590685	1.5	0.1
0.01	1	0.304447263999464	1	128	NA	110.680951893999	0	0.26	1.14	1	98.5835156449975	98.887962908997	"5"	20616.985247697	20605.762590685	1.5	0.1
0.01	1	0.289862123998319	1	128	NA	110.680951893999	0	0.26	1.14	1	99.1178005799993	99.4076627039976	"5"	20616.985247697	20605.762590685	1.5	0.1
0.01	1	0.404741984002612	1	128	NA	110.680951893999	0	0.26	1.14	1	99.6353758499972	100.040117834	"5"	20616.985247697	20605.762590685	1.5	0.1
0.01	1	0.369952117998764	1	128	NA	110.680951893999	0	0.26	1.14	1	100.269832725	100.639784842999	"5"	20616.985247697	20605.762590685	1.5	0.1
0.01	1	0.400750802000402	1	128	NA	110.680951893999	0	0.26	1.14	1	100.870850079998	101.271600881999	"5"	20616.985247697	20605.762590685	1.5	0.1
0.01	1	0.397272307000094	1	128	NA	110.680951893999	0	0.26	1.14	1	101.50522544	101.902497747	"5"	20616.985247697	20605.762590685	1.5	0.1
0.01	1	0.251514937001048	1	128	NA	110.680951893999	0	0.26	1.14	1	102.139606539997	102.391121476998	"5"	20616.985247697	20605.762590685	1.5	0.1
0.01	1	0.583676677000767	1	128	NA	110.680951893999	0	0.26	1.14	1	102.623638796998	103.207315473999	"5"	20616.985247697	20605.762590685	1.5	0.1
0.01	1	0.342036868001742	1	128	NA	110.680951893999	0	0.26	1.14	1	103.441749531998	103.783786399999	"5"	20616.985247697	20605.762590685	1.5	0.1
0.01	1	1.97276218099796	1	128	NA	110.680951893999	0	0.26	1.14	1	104.009469021999	105.982231202997	"5"	20616.985247697	20605.762590685	1.5	0.1
0.01	1	0.641670443001203	1	128	NA	110.680951893999	0	0.26	1.14	1	106.213066019998	106.854736462999	"5"	20616.985247697	20605.762590685	1.5	0.1
0.01	1	0.541107414999715	1	128	NA	110.680951893999	0	0.26	1.14	1	107.081184631999	107.622292046999	"5"	20616.985247697	20605.762590685	1.5	0.1
0.01	1	0.558828917997744	1	128	NA	110.680951893999	0	0.26	1.14	1	107.849231554999	108.408060472997	"5"	20616.985247697	20605.762590685	1.5	0.1
0.01	1	0.49337206799828	1	128	NA	110.680951893999	0	0.26	1.14	1	108.633879882	109.127251949998	"5"	20616.985247697	20605.762590685	1.5	0.1
0.01	1	0.59147189199939	1	128	NA	110.680951893999	0	0.26	1.14	1	109.368346659998	109.959818551997	"5"	20616.985247697	20605.762590685	1.5	0.1
0.01	1	0.492892106998625	2	128	NA	110.680951893999	0	0.26	1.14	1	110.186491003999	110.679383110997	"5"	20616.985247697	20605.762590685	1.5	0.1
0.01	1	0.883396526001889	1	17	120.306546802	NA	1	0	1.14	1	112.724037584998	113.607434111	"6"	20616.985247697	20605.762590685	1.5	0.1
0.01	1	0.0920911969988083	1	17	120.306546802	NA	1	0	1.14	1	113.842578629999	113.934669826998	"6"	20616.985247697	20605.762590685	1.5	0.1
0.01	1	0.0704674439984956	1	17	120.306546802	NA	1	0	1.14	1	114.159872802	114.230340245998	"6"	20616.985247697	20605.762590685	1.5	0.1
0.01	1	0.0348744930015528	1	17	120.306546802	NA	1	0	1.14	1	114.460290029998	114.495164522999	"6"	20616.985247697	20605.762590685	1.5	0.1
0.01	1	0.00370372899851645	1	17	120.306546802	NA	1	0	1.14	1	114.727403329998	114.731107058997	"6"	20616.985247697	20605.762590685	1.5	0.1
0.01	1	0.00215553399903001	1	17	120.306546802	NA	1	0	1.14	1	114.961110430999	114.963265964998	"6"	20616.985247697	20605.762590685	1.5	0.1
0.01	1	0.052784771000006	1	17	120.306546802	NA	1	0	1.14	1	115.194898401998	115.247683172998	"6"	20616.985247697	20605.762590685	1.5	0.1
0.01	1	0.591888801998721	1	17	120.306546802	NA	1	0	1.14	1	115.47864523	116.070534031998	"6"	20616.985247697	20605.762590685	1.5	0.1
0.01	1	0.0039089950005291	1	17	120.306546802	NA	1	0	1.14	1	116.296773689999	116.300682685	"6"	20616.985247697	20605.762590685	1.5	0.1
0.01	1	0.0374330170016037	1	17	120.306546802	NA	1	0	1.14	1	116.530443764997	116.567876781999	"6"	20616.985247697	20605.762590685	1.5	0.1
0.01	1	0.666428472999542	1	17	120.306546802	NA	1	0	1.14	1	116.797644211998	117.464072684998	"6"	20616.985247697	20605.762590685	1.5	0.1
0.01	1	0.0921199480035284	1	17	120.306546802	NA	1	0	1.14	1	117.699031204997	117.791151153	"6"	20616.985247697	20605.762590685	1.5	0.1
0.01	1	0.0548911170008068	1	17	120.306546802	NA	1	0	1.14	1	118.016198063997	118.071089180998	"6"	20616.985247697	20605.762590685	1.5	0.1
0.01	1	0.531468873999984	1	17	120.306546802	NA	1	0	1.14	1	118.30004559	118.831514464	"6"	20616.985247697	20605.762590685	1.5	0.1
0.01	1	0.0831476370003656	1	17	120.306546802	NA	1	0	1.14	1	119.068128794999	119.151276432	"6"	20616.985247697	20605.762590685	1.5	0.1
0.01	1	0.0849577310000313	1	17	120.306546802	NA	1	0	1.14	1	119.385203941998	119.470161672998	"6"	20616.985247697	20605.762590685	1.5	0.1
0.01	1	0.496942598001624	1	17	120.306546802	NA	1	0	1.14	1	119.702491164997	120.199433762999	"6"	20616.985247697	20605.762590685	1.5	0.1
0.01	1	1.55382481799825	1	59	NA	129.391791599999	0	0.12	1.26	1	122.356947917	123.910772734998	"7"	20616.985247697	20605.762590685	1.5	0.1
0.01	1	0.023747754003125	1	59	NA	129.391791599999	0	0.12	1.26	1	124.143302294997	124.167050049	"7"	20616.985247697	20605.762590685	1.5	0.1
0.01	1	0.0846151580008154	1	59	NA	129.391791599999	0	0.12	1.26	1	124.393623419997	124.478238577998	"7"	20616.985247697	20605.762590685	1.5	0.1
0.01	1	0.0641208680026466	1	59	NA	129.391791599999	0	0.12	1.26	1	124.710987421997	124.775108289999	"7"	20616.985247697	20605.762590685	1.5	0.1
0.01	1	0.338877218997368	1	59	NA	129.391791599999	0	0.12	1.26	1	125.011473664999	125.350350883997	"7"	20616.985247697	20605.762590685	1.5	0.1
0.01	1	0.00449872499666526	1	59	NA	129.391791599999	0	0.12	1.26	1	125.57894761	125.583446334997	"7"	20616.985247697	20605.762590685	1.5	0.1
0.01	1	0.0334925620009017	1	59	NA	129.391791599999	0	0.12	1.26	1	125.812679489998	125.846172051999	"7"	20616.985247697	20605.762590685	1.5	0.1
0.01	1	0.430654286999925	1	59	NA	129.391791599999	0	0.12	1.26	1	126.079877819997	126.510532106997	"7"	20616.985247697	20605.762590685	1.5	0.1
0.01	1	0.0990460599969083	1	59	NA	129.391791599999	0	0.12	1.26	1	126.747647712	126.846693771997	"7"	20616.985247697	20605.762590685	1.5	0.1
0.01	1	0.566205864000949	1	59	NA	129.391791599999	0	0.12	1.26	1	127.081723004998	127.647928868999	"7"	20616.985247697	20605.762590685	1.5	0.1
0.01	1	0.00219843000013498	1	59	NA	129.391791599999	0	0.12	1.26	1	127.882878082997	127.885076512997	"7"	20616.985247697	20605.762590685	1.5	0.1
0.01	1	0.00329873599912389	1	59	NA	129.391791599999	0	0.12	1.26	1	128.116528887	128.119827622999	"7"	20616.985247697	20605.762590685	1.5	0.1
0.01	1	1.03990318100114	2	59	NA	129.391791599999	0	0.12	1.26	1	128.350311964998	129.390215145999	"7"	20616.985247697	20605.762590685	1.5	0.1
0.01	1	0.783831035998446	1	86	NA	136.617290011	0	0.1	1.36	1	131.438873824998	132.222704860997	"8"	20616.985247697	20605.762590685	1.5	0.1
0.01	1	0.117662108998047	1	86	NA	136.617290011	0	0.1	1.36	1	132.457246131999	132.574908240997	"8"	20616.985247697	20605.762590685	1.5	0.1
0.01	1	0.0949958940000215	1	86	NA	136.617290011	0	0.1	1.36	1	132.807881149998	132.902877043998	"8"	20616.985247697	20605.762590685	1.5	0.1
0.01	1	1.00136342699989	1	86	NA	136.617290011	0	0.1	1.36	1	133.125046656998	134.126410083998	"8"	20616.985247697	20605.762590685	1.5	0.1
0.01	1	0.00209644099959405	1	86	NA	136.617290011	0	0.1	1.36	1	134.360457293998	134.362553734998	"8"	20616.985247697	20605.762590685	1.5	0.1
0.01	1	0.0923183130034886	1	86	NA	136.617290011	0	0.1	1.36	1	134.594186601997	134.686504915	"8"	20616.985247697	20605.762590685	1.5	0.1
0.01	1	0.00393559700023616	1	86	NA	136.617290011	0	0.1	1.36	1	134.911252681999	134.915188278999	"8"	20616.985247697	20605.762590685	1.5	0.1
0.01	1	0.0545993039995665	1	86	NA	136.617290011	0	0.1	1.36	1	135.145056101999	135.199655405999	"8"	20616.985247697	20605.762590685	1.5	0.1
0.01	1	0.00394395300099859	1	86	NA	136.617290011	0	0.1	1.36	1	135.428912651998	135.432856604999	"8"	20616.985247697	20605.762590685	1.5	0.1
0.01	1	0.0482129589981923	1	86	NA	136.617290011	0	0.1	1.36	1	135.662597625	135.710810583998	"8"	20616.985247697	20605.762590685	1.5	0.1
0.01	1	0.669274951997068	2	86	NA	136.617290011	0	0.1	1.36	1	135.946440312	136.615715263997	"8"	20616.985247697	20605.762590685	1.5	0.1
0.01	1	0.740610861997993	1	71	NA	141.504305065999	0	0.06	1.42	1	138.650886711999	139.391497573997	"9"	20616.985247697	20605.762590685	1.5	0.1
0.01	1	0.00463058500099578	1	71	NA	141.504305065999	0	0.06	1.42	1	139.619285664998	139.623916249999	"9"	20616.985247697	20605.762590685	1.5	0.1
0.01	1	0.0817361670015089	1	71	NA	141.504305065999	0	0.06	1.42	1	139.853028490998	139.934764657999	"9"	20616.985247697	20605.762590685	1.5	0.1
0.01	1	0.00404585499927634	1	71	NA	141.504305065999	0	0.06	1.42	1	140.170121031999	140.174166886998	"9"	20616.985247697	20605.762590685	1.5	0.1
0.01	1	0.62774405899836	1	71	NA	141.504305065999	0	0.06	1.42	1	140.403905801999	141.031649860997	"9"	20616.985247697	20605.762590685	1.5	0.1
0.01	1	0.00470821500130114	1	71	NA	141.504305065999	0	0.06	1.42	1	141.255304889997	141.260013104999	"9"	20616.985247697	20605.762590685	1.5	0.1
0.01	1	0.0135585999996692	2	71	NA	141.504305065999	0	0.06	1.42	1	141.489159974997	141.502718574997	"9"	20616.985247697	20605.762590685	1.5	0.1
0.01	1	0.583993504998944	1	76	NA	149.969140055	0	0.15	1.57	1	143.559189565	144.143183069998	"10"	20616.985247697	20605.762590685	1.5	0.1
0.01	1	0.110028393999528	1	76	NA	149.969140055	0	0.15	1.57	1	144.377340699997	144.487369093997	"10"	20616.985247697	20605.762590685	1.5	0.1
0.01	1	0.0965655069994682	1	76	NA	149.969140055	0	0.15	1.57	1	144.71120686	144.807772366999	"10"	20616.985247697	20605.762590685	1.5	0.1
0.01	1	0.530318435001391	1	76	NA	149.969140055	0	0.15	1.57	1	145.045025634998	145.575344069999	"10"	20616.985247697	20605.762590685	1.5	0.1
0.01	1	0.0828186529979575	1	76	NA	149.969140055	0	0.15	1.57	1	145.813018997	145.895837649998	"10"	20616.985247697	20605.762590685	1.5	0.1
0.01	1	0.0927795879979385	1	76	NA	149.969140055	0	0.15	1.57	1	146.130185085	146.222964672997	"10"	20616.985247697	20605.762590685	1.5	0.1
0.01	1	0.00377862800087314	1	76	NA	149.969140055	0	0.15	1.57	1	146.447383684997	146.451162312998	"10"	20616.985247697	20605.762590685	1.5	0.1
0.01	1	0.0621546529982879	1	76	NA	149.969140055	0	0.15	1.57	1	146.681198714999	146.743353367998	"10"	20616.985247697	20605.762590685	1.5	0.1
0.01	1	0.0020248469991202	1	76	NA	149.969140055	0	0.15	1.57	1	146.981597384998	146.983622231997	"10"	20616.985247697	20605.762590685	1.5	0.1
0.01	1	0.0786286369984737	1	76	NA	149.969140055	0	0.15	1.57	1	147.215477319998	147.294105956997	"10"	20616.985247697	20605.762590685	1.5	0.1
0.01	1	0.0994140090006113	1	76	NA	149.969140055	0	0.15	1.57	1	147.532701174998	147.632115183998	"10"	20616.985247697	20605.762590685	1.5	0.1
0.01	1	0.0919537029985804	1	76	NA	149.969140055	0	0.15	1.57	1	147.866408462	147.958362164998	"10"	20616.985247697	20605.762590685	1.5	0.1
0.01	1	0.0948162419990695	1	76	NA	149.969140055	0	0.15	1.57	1	148.183704491999	148.278520733998	"10"	20616.985247697	20605.762590685	1.5	0.1
0.01	1	0.114687692999723	1	76	NA	149.969140055	0	0.15	1.57	1	148.500870650998	148.615558343998	"10"	20616.985247697	20605.762590685	1.5	0.1
0.01	1	0.0672756499989191	1	76	NA	149.969140055	0	0.15	1.57	1	148.851480599998	148.918756249997	"10"	20616.985247697	20605.762590685	1.5	0.1
0.01	1	0.815666292000969	2	76	NA	149.969140055	0	0.15	1.57	1	149.151913136997	149.967579428998	"10"	20616.985247697	20605.762590685	1.5	0.1
0.01	1	2.36014115700164	1	54	NA	163.185452283	0	0.25	1.82	1	152.023520063998	154.383661221	"11"	20616.985247697	20605.762590685	1.5	0.1
0.01	1	0.100181054000132	1	54	NA	163.185452283	0	0.25	1.82	1	154.611073499997	154.711254553997	"11"	20616.985247697	20605.762590685	1.5	0.1
0.01	1	0.119098633000249	1	54	NA	163.185452283	0	0.25	1.82	1	154.944949162	155.064047795	"11"	20616.985247697	20605.762590685	1.5	0.1
0.01	1	0.119527882001421	1	54	NA	163.185452283	0	0.25	1.82	1	155.295624609997	155.415152491998	"11"	20616.985247697	20605.762590685	1.5	0.1
0.01	1	0.00402509700143128	1	54	NA	163.185452283	0	0.25	1.82	1	155.646268779998	155.650293876999	"11"	20616.985247697	20605.762590685	1.5	0.1
0.01	1	0.0880837999975483	1	54	NA	163.185452283	0	0.25	1.82	1	155.879965259999	155.968049059997	"11"	20616.985247697	20605.762590685	1.5	0.1
0.01	1	0.00212236199877225	1	54	NA	163.185452283	0	0.25	1.82	1	156.197156820999	156.199279182998	"11"	20616.985247697	20605.762590685	1.5	0.1
0.01	1	0.0798892670027271	1	54	NA	163.185452283	0	0.25	1.82	1	156.430822586997	156.510711854	"11"	20616.985247697	20605.762590685	1.5	0.1
0.01	1	0.116100178001943	1	54	NA	163.185452283	0	0.25	1.82	1	156.747969034997	156.864069212999	"11"	20616.985247697	20605.762590685	1.5	0.1
0.01	1	0.107808115000807	1	54	NA	163.185452283	0	0.25	1.82	1	157.098811274998	157.206619389999	"11"	20616.985247697	20605.762590685	1.5	0.1
0.01	1	0.111055558001681	1	54	NA	163.185452283	0	0.25	1.82	1	157.432550824997	157.543606382998	"11"	20616.985247697	20605.762590685	1.5	0.1
0.01	1	0.00212273799843388	1	54	NA	163.185452283	0	0.25	1.82	1	157.766345144999	157.768467882997	"11"	20616.985247697	20605.762590685	1.5	0.1
0.01	1	0.0948057940004219	1	54	NA	163.185452283	0	0.25	1.82	1	158.000181919997	158.094987713997	"11"	20616.985247697	20605.762590685	1.5	0.1
0.01	1	0.00390956699993694	1	54	NA	163.185452283	0	0.25	1.82	1	158.317317609999	158.321227176999	"11"	20616.985247697	20605.762590685	1.5	0.1
0.01	1	0.0882873939990532	1	54	NA	163.185452283	0	0.25	1.82	1	158.551116772	158.639404165999	"11"	20616.985247697	20605.762590685	1.5	0.1
0.01	1	0.00454298499971628	1	54	NA	163.185452283	0	0.25	1.82	1	158.868236799997	158.872779784997	"11"	20616.985247697	20605.762590685	1.5	0.1
0.01	1	0.0894265530005214	1	54	NA	163.185452283	0	0.25	1.82	1	159.102072419999	159.191498972999	"11"	20616.985247697	20605.762590685	1.5	0.1
0.01	1	0.00205176600138657	1	54	NA	163.185452283	0	0.25	1.82	1	159.419235238998	159.421287005	"11"	20616.985247697	20605.762590685	1.5	0.1
0.01	1	0.0895091159982258	1	54	NA	163.185452283	0	0.25	1.82	1	159.652861682	159.742370797998	"11"	20616.985247697	20605.762590685	1.5	0.1
0.01	1	0.00216098600139958	1	54	NA	163.185452283	0	0.25	1.82	1	159.970122012997	159.972282998999	"11"	20616.985247697	20605.762590685	1.5	0.1
0.01	1	0.154745869996987	1	54	NA	163.185452283	0	0.25	1.82	1	160.20388302	160.358628889997	"11"	20616.985247697	20605.762590685	1.5	0.1
0.01	1	0.00208527799986769	1	54	NA	163.185452283	0	0.25	1.82	1	160.587898424998	160.589983702997	"11"	20616.985247697	20605.762590685	1.5	0.1
0.01	1	0.145420998000191	1	54	NA	163.185452283	0	0.25	1.82	1	160.821488481997	160.966909479997	"11"	20616.985247697	20605.762590685	1.5	0.1
0.01	1	0.00206356300259358	1	54	NA	163.185452283	0	0.25	1.82	1	161.188896713997	161.190960276999	"11"	20616.985247697	20605.762590685	1.5	0.1
0.01	1	0.127735203997872	1	54	NA	163.185452283	0	0.25	1.82	1	161.422609601999	161.550344805997	"11"	20616.985247697	20605.762590685	1.5	0.1
0.01	1	1.4107433930003	2	54	NA	163.185452283	0	0.25	1.82	1	161.773129779998	163.183873172999	"11"	20616.985247697	20605.762590685	1.5	0.1
0.01	1	1.72191494299841	1	28	NA	173.225613002	0	0.2	2.02	1	165.228957812	166.950872754998	"12"	20616.985247697	20605.762590685	1.5	0.1
0.01	1	0.113282373000402	1	28	NA	173.225613002	0	0.2	2.02	1	167.18227247	167.295554843	"12"	20616.985247697	20605.762590685	1.5	0.1
0.01	1	0.00377899299928686	1	28	NA	173.225613002	0	0.2	2.02	1	167.532810289998	167.536589282998	"12"	20616.985247697	20605.762590685	1.5	0.1
0.01	1	0.049167913999554	1	28	NA	173.225613002	0	0.2	2.02	1	167.76653972	167.815707633999	"12"	20616.985247697	20605.762590685	1.5	0.1
0.01	1	0.092730994001613	1	28	NA	173.225613002	0	0.2	2.02	1	168.050330431997	168.143061425999	"12"	20616.985247697	20605.762590685	1.5	0.1
0.01	1	0.00223939400166273	1	28	NA	173.225613002	0	0.2	2.02	1	168.367584962998	168.369824357	"12"	20616.985247697	20605.762590685	1.5	0.1
0.01	1	0.102307433000533	1	28	NA	173.225613002	0	0.2	2.02	1	168.601305639997	168.703613072998	"12"	20616.985247697	20605.762590685	1.5	0.1
0.01	1	0.00231395800074097	1	28	NA	173.225613002	0	0.2	2.02	1	168.935220748997	168.937534706998	"12"	20616.985247697	20605.762590685	1.5	0.1
0.01	1	0.0856645320018288	1	28	NA	173.225613002	0	0.2	2.02	1	169.169040294997	169.254704826999	"12"	20616.985247697	20605.762590685	1.5	0.1
0.01	1	0.0020133670004725	1	28	NA	173.225613002	0	0.2	2.02	1	169.486163089998	169.488176456998	"12"	20616.985247697	20605.762590685	1.5	0.1
0.01	1	0.0864769660001912	1	28	NA	173.225613002	0	0.2	2.02	1	169.719875272	169.806352238	"12"	20616.985247697	20605.762590685	1.5	0.1
0.01	1	0.00459835999936331	1	28	NA	173.225613002	0	0.2	2.02	1	170.037186729998	170.041785089998	"12"	20616.985247697	20605.762590685	1.5	0.1
0.01	1	0.00357815800089156	1	28	NA	173.225613002	0	0.2	2.02	1	170.270896274997	170.274474432998	"12"	20616.985247697	20605.762590685	1.5	0.1
0.01	1	0.0794428599983803	1	28	NA	173.225613002	0	0.2	2.02	1	170.50453319	170.583976049998	"12"	20616.985247697	20605.762590685	1.5	0.1
0.01	1	0.138445272001263	1	28	NA	173.225613002	0	0.2	2.02	1	170.821647899997	170.960093171998	"12"	20616.985247697	20605.762590685	1.5	0.1
0.01	1	0.00448654499996337	1	28	NA	173.225613002	0	0.2	2.02	1	171.188977564998	171.193464109998	"12"	20616.985247697	20605.762590685	1.5	0.1
0.01	1	0.09641421500055	1	28	NA	173.225613002	0	0.2	2.02	1	171.422700312	171.519114527	"12"	20616.985247697	20605.762590685	1.5	0.1
0.01	1	0.113986298998498	1	28	NA	173.225613002	0	0.2	2.02	1	171.756661881998	171.870648180997	"12"	20616.985247697	20605.762590685	1.5	0.1
0.01	1	0.00207406399931642	1	28	NA	173.225613002	0	0.2	2.02	1	172.107184339999	172.109258403998	"12"	20616.985247697	20605.762590685	1.5	0.1
0.01	1	0.146567365001829	1	28	NA	173.225613002	0	0.2	2.02	1	172.341070669998	172.487638035	"12"	20616.985247697	20605.762590685	1.5	0.1
0.01	1	0.499082158003148	2	28	NA	173.225613002	0	0.2	2.02	1	172.724925724997	173.224007883	"12"	20616.985247697	20605.762590685	1.5	0.1
0.01	1	0.496563971999421	1	7	177.687129422	NA	1	0	2.02	1	175.279224217	175.775788188999	"13"	20616.985247697	20605.762590685	1.5	0.1
0.01	1	0.00212722700234735	1	7	177.687129422	NA	1	0	2.02	1	176.013887448997	176.016014675999	"13"	20616.985247697	20605.762590685	1.5	0.1
0.01	1	0.102812368000741	1	7	177.687129422	NA	1	0	2.02	1	176.247478404999	176.350290773	"13"	20616.985247697	20605.762590685	1.5	0.1
0.01	1	0.0020684449991677	1	7	177.687129422	NA	1	0	2.02	1	176.581480830999	176.583549275998	"13"	20616.985247697	20605.762590685	1.5	0.1
0.01	1	0.295268677000422	1	7	177.687129422	NA	1	0	2.02	1	176.815233641999	177.110502318999	"13"	20616.985247697	20605.762590685	1.5	0.1
0.01	1	0.00459194499853766	1	7	177.687129422	NA	1	0	2.02	1	177.332722924999	177.337314869997	"13"	20616.985247697	20605.762590685	1.5	0.1
0.01	1	0.00464328000089154	1	7	177.687129422	NA	1	0	2.02	1	177.566339609999	177.57098289	"13"	20616.985247697	20605.762590685	1.5	0.1
0.01	1	1.03749439400053	1	107	NA	184.097063721998	0	0.11	2.13	1	179.736703834998	180.774198228999	"14"	20616.985247697	20605.762590685	1.5	0.1
0.01	1	0.113037253999209	1	107	NA	184.097063721998	0	0.11	2.13	1	181.005368826998	181.118406080997	"14"	20616.985247697	20605.762590685	1.5	0.1
0.01	1	0.106694636000611	1	107	NA	184.097063721998	0	0.11	2.13	1	181.356159236999	181.462853872999	"14"	20616.985247697	20605.762590685	1.5	0.1
0.01	1	0.00392597099926206	1	107	NA	184.097063721998	0	0.11	2.13	1	181.690016021999	181.693941992999	"14"	20616.985247697	20605.762590685	1.5	0.1
0.01	1	0.0831209729985858	1	107	NA	184.097063721998	0	0.11	2.13	1	181.923856296999	182.006977269997	"14"	20616.985247697	20605.762590685	1.5	0.1
0.01	1	0.00208932500027004	1	107	NA	184.097063721998	0	0.11	2.13	1	182.240980088998	182.243069413998	"14"	20616.985247697	20605.762590685	1.5	0.1
0.01	1	0.0844694710031035	1	107	NA	184.097063721998	0	0.11	2.13	1	182.474640171997	182.559109643	"14"	20616.985247697	20605.762590685	1.5	0.1
0.01	1	0.00204967600075179	1	107	NA	184.097063721998	0	0.11	2.13	1	182.791836041997	182.793885717998	"14"	20616.985247697	20605.762590685	1.5	0.1
0.01	1	0.109455382997112	1	107	NA	184.097063721998	0	0.11	2.13	1	183.02559225	183.135047632997	"14"	20616.985247697	20605.762590685	1.5	0.1
0.01	1	0.00210513499769149	1	107	NA	184.097063721998	0	0.11	2.13	1	183.359548769	183.361653903998	"14"	20616.985247697	20605.762590685	1.5	0.1
0.01	1	0.00385406399800559	1	107	NA	184.097063721998	0	0.11	2.13	1	183.593191194999	183.597045258997	"14"	20616.985247697	20605.762590685	1.5	0.1
0.01	1	0.26855748899834	2	107	NA	184.097063721998	0	0.11	2.13	1	183.826929114999	184.095486603997	"14"	20616.985247697	20605.762590685	1.5	0.1
0.01	1	0.692464600997482	1	63	NA	190.800703162	0	0.14	2.27	1	186.147492669999	186.839957270997	"15"	20616.985247697	20605.762590685	1.5	0.1
0.01	1	0.00388318499972229	1	63	NA	190.800703162	0	0.14	2.27	1	187.065747109998	187.069630294998	"15"	20616.985247697	20605.762590685	1.5	0.1
0.01	1	0.0685317979987303	1	63	NA	190.800703162	0	0.14	2.27	1	187.299434829998	187.367966627997	"15"	20616.985247697	20605.762590685	1.5	0.1
0.01	1	0.00466304500150727	1	63	NA	190.800703162	0	0.14	2.27	1	187.599992714997	187.604655759998	"15"	20616.985247697	20605.762590685	1.5	0.1
0.01	1	0.109316169000522	1	63	NA	190.800703162	0	0.14	2.27	1	187.833635539999	187.942951708999	"15"	20616.985247697	20605.762590685	1.5	0.1
0.01	1	0.00209589400037657	1	63	NA	190.800703162	0	0.14	2.27	1	188.167558600999	188.169654494999	"15"	20616.985247697	20605.762590685	1.5	0.1
0.01	1	0.00376449599934858	1	63	NA	190.800703162	0	0.14	2.27	1	188.401185056999	188.404949552998	"15"	20616.985247697	20605.762590685	1.5	0.1
0.01	1	0.0929569760010054	1	63	NA	190.800703162	0	0.14	2.27	1	188.634962573997	188.727919549998	"15"	20616.985247697	20605.762590685	1.5	0.1
0.01	1	0.00229301100262091	1	63	NA	190.800703162	0	0.14	2.27	1	188.952218938997	188.95451195	"15"	20616.985247697	20605.762590685	1.5	0.1
0.01	1	0.158021557999746	1	63	NA	190.800703162	0	0.14	2.27	1	189.185952712	189.343974269999	"15"	20616.985247697	20605.762590685	1.5	0.1
0.01	1	0.00200561599922366	1	63	NA	190.800703162	0	0.14	2.27	1	189.569987502	189.571993117999	"15"	20616.985247697	20605.762590685	1.5	0.1
0.01	1	0.139136272002361	1	63	NA	190.800703162	0	0.14	2.27	1	189.803611036998	189.942747309	"15"	20616.985247697	20605.762590685	1.5	0.1
0.01	1	0.00204390600265469	1	63	NA	190.800703162	0	0.14	2.27	1	190.170904413997	190.17294832	"15"	20616.985247697	20605.762590685	1.5	0.1
0.01	1	0.106046230001084	1	63	NA	190.800703162	0	0.14	2.27	1	190.404739049998	190.510785279999	"15"	20616.985247697	20605.762590685	1.5	0.1
0.01	1	0.060483455999929	2	63	NA	190.800703162	0	0.14	2.27	1	190.738616736999	190.799100192999	"15"	20616.985247697	20605.762590685	1.5	0.1
0.01	1	0.588785308002116	1	22	198.771914396999	NA	1	0	2.27	1	192.825409164998	193.414194473	"16"	20616.985247697	20605.762590685	1.5	0.1
0.01	1	0.00316158799978439	1	22	198.771914396999	NA	1	0	2.27	1	193.643352072999	193.646513660999	"16"	20616.985247697	20605.762590685	1.5	0.1
0.01	1	0.0046303720009746	1	22	198.771914396999	NA	1	0	2.27	1	193.877099114998	193.881729486999	"16"	20616.985247697	20605.762590685	1.5	0.1
0.01	1	0.00209879600151908	1	22	198.771914396999	NA	1	0	2.27	1	194.110866298997	194.112965094999	"16"	20616.985247697	20605.762590685	1.5	0.1
0.01	1	0.0935366000012436	1	22	198.771914396999	NA	1	0	2.27	1	194.344549811998	194.438086411999	"16"	20616.985247697	20605.762590685	1.5	0.1
0.01	1	0.00463801500154659	1	22	198.771914396999	NA	1	0	2.27	1	194.661913059997	194.666551074999	"16"	20616.985247697	20605.762590685	1.5	0.1
0.01	1	0.00397281900222879	1	22	198.771914396999	NA	1	0	2.27	1	194.895536319997	194.899509138999	"16"	20616.985247697	20605.762590685	1.5	0.1
0.01	1	0.117989057001978	1	22	198.771914396999	NA	1	0	2.27	1	195.129319289998	195.247308346999	"16"	20616.985247697	20605.762590685	1.5	0.1
0.01	1	0.00218849800148746	1	22	198.771914396999	NA	1	0	2.27	1	195.479856137998	195.482044635999	"16"	20616.985247697	20605.762590685	1.5	0.1
0.01	1	0.00462099000287708	1	22	198.771914396999	NA	1	0	2.27	1	195.713690614997	195.718311605	"16"	20616.985247697	20605.762590685	1.5	0.1
0.01	1	0.00397945599979721	1	22	198.771914396999	NA	1	0	2.27	1	195.947253504997	195.951232960997	"16"	20616.985247697	20605.762590685	1.5	0.1
0.01	1	0.12971926499813	1	22	198.771914396999	NA	1	0	2.27	1	196.181019295	196.310738559998	"16"	20616.985247697	20605.762590685	1.5	0.1
0.01	1	0.00391175999902771	1	22	198.771914396999	NA	1	0	2.27	1	196.548339094999	196.552250854998	"16"	20616.985247697	20605.762590685	1.5	0.1
0.01	1	0.00403518899838673	1	22	198.771914396999	NA	1	0	2.27	1	196.781987761999	196.786022950997	"16"	20616.985247697	20605.762590685	1.5	0.1
0.01	1	0.00232359200163046	1	22	198.771914396999	NA	1	0	2.27	1	197.015729306997	197.018052898999	"16"	20616.985247697	20605.762590685	1.5	0.1
0.01	1	0.00223863599967444	1	22	198.771914396999	NA	1	0	2.27	1	197.249449472998	197.251688108998	"16"	20616.985247697	20605.762590685	1.5	0.1
0.01	1	0.00225149399921065	1	22	198.771914396999	NA	1	0	2.27	1	197.483135338	197.485386831999	"16"	20616.985247697	20605.762590685	1.5	0.1
0.01	1	0.00321043599979021	1	22	198.771914396999	NA	1	0	2.27	1	197.716921514999	197.720131950999	"16"	20616.985247697	20605.762590685	1.5	0.1
0.01	1	0.00203990899899509	1	22	198.771914396999	NA	1	0	2.27	1	197.950738904998	197.952778813997	"16"	20616.985247697	20605.762590685	1.5	0.1
0.01	1	0.00202849999914179	1	22	198.771914396999	NA	1	0	2.27	1	198.184424022998	198.186452522998	"16"	20616.985247697	20605.762590685	1.5	0.1
0.01	1	0.00214440999843646	1	22	198.771914396999	NA	1	0	2.27	1	198.418112275998	198.420256685997	"16"	20616.985247697	20605.762590685	1.5	0.1
0.01	1	0.0020437610000954	1	22	198.771914396999	NA	1	0	2.27	1	198.651792561999	198.653836322999	"16"	20616.985247697	20605.762590685	1.5	0.1
0.01	1	1.87306266500309	1	55	NA	207.489557629	0	0.14	2.41	1	200.822078284997	202.69514095	"17"	20616.985247697	20605.762590685	1.5	0.1
0.01	1	0.073067886998615	1	55	NA	207.489557629	0	0.14	2.41	1	202.925714364999	202.998782251998	"17"	20616.985247697	20605.762590685	1.5	0.1
0.01	1	0.0857263090001652	1	55	NA	207.489557629	0	0.14	2.41	1	203.226119485	203.311845794	"17"	20616.985247697	20605.762590685	1.5	0.1
0.01	1	0.0640224050002871	1	55	NA	207.489557629	0	0.14	2.41	1	203.543353449997	203.607375854997	"17"	20616.985247697	20605.762590685	1.5	0.1
0.01	1	0.0034445470009814	1	55	NA	207.489557629	0	0.14	2.41	1	203.843865199997	203.847309746998	"17"	20616.985247697	20605.762590685	1.5	0.1
0.01	1	0.0345359439997992	1	55	NA	207.489557629	0	0.14	2.41	1	204.077636962	204.112172906	"17"	20616.985247697	20605.762590685	1.5	0.1
0.01	1	0.11092022700177	1	55	NA	207.489557629	0	0.14	2.41	1	204.344728729997	204.455648956999	"17"	20616.985247697	20605.762590685	1.5	0.1
0.01	1	0.00385132100200281	1	55	NA	207.489557629	0	0.14	2.41	1	204.678636401997	204.682487722999	"17"	20616.985247697	20605.762590685	1.5	0.1
0.01	1	0.0795196259969089	1	55	NA	207.489557629	0	0.14	2.41	1	204.912379357	204.991898982997	"17"	20616.985247697	20605.762590685	1.5	0.1
0.01	1	0.00489058200037107	1	55	NA	207.489557629	0	0.14	2.41	1	205.212983819998	205.217874401998	"17"	20616.985247697	20605.762590685	1.5	0.1
0.01	1	0.1051746239973	1	55	NA	207.489557629	0	0.14	2.41	1	205.446601435	205.551776058997	"17"	20616.985247697	20605.762590685	1.5	0.1
0.01	1	0.00212732699947082	1	55	NA	207.489557629	0	0.14	2.41	1	205.780579096998	205.782706423997	"17"	20616.985247697	20605.762590685	1.5	0.1
0.01	1	0.00205365500005428	1	55	NA	207.489557629	0	0.14	2.41	1	206.01426928	206.016322935	"17"	20616.985247697	20605.762590685	1.5	0.1
0.01	1	0.00210836599944741	1	55	NA	207.489557629	0	0.14	2.41	1	206.248011108997	206.250119474997	"17"	20616.985247697	20605.762590685	1.5	0.1
0.01	1	1.0062178449989	2	55	NA	207.489557629	0	0.14	2.41	1	206.481785934	207.488003778999	"17"	20616.985247697	20605.762590685	1.5	0.1
0.01	1	0.397407477001252	1	53	NA	213.337847362	0	0.12	2.53	1	209.536756574998	209.934164052	"18"	20616.985247697	20605.762590685	1.5	0.1
0.01	1	0.107778135999979	1	53	NA	213.337847362	0	0.12	2.53	1	210.17124041	210.279018546	"18"	20616.985247697	20605.762590685	1.5	0.1
0.01	1	0.0859303510005702	1	53	NA	213.337847362	0	0.12	2.53	1	210.505063597997	210.590993948997	"18"	20616.985247697	20605.762590685	1.5	0.1
0.01	1	0.00381001400091918	1	53	NA	213.337847362	0	0.12	2.53	1	210.822383154999	210.826193168999	"18"	20616.985247697	20605.762590685	1.5	0.1
0.01	1	0.0548339310007577	1	53	NA	213.337847362	0	0.12	2.53	1	211.055977754997	211.110811685998	"18"	20616.985247697	20605.762590685	1.5	0.1
0.01	1	0.122325345000718	1	53	NA	213.337847362	0	0.12	2.53	1	211.339841336998	211.462166681998	"18"	20616.985247697	20605.762590685	1.5	0.1
0.01	1	0.0916754559984838	1	53	NA	213.337847362	0	0.12	2.53	1	211.690503623999	211.782179079997	"18"	20616.985247697	20605.762590685	1.5	0.1
0.01	1	0.0642586080030014	1	53	NA	213.337847362	0	0.12	2.53	1	212.007692739997	212.071951348	"18"	20616.985247697	20605.762590685	1.5	0.1
0.01	1	0.0359818319993792	1	53	NA	213.337847362	0	0.12	2.53	1	212.308125244999	212.344107076999	"18"	20616.985247697	20605.762590685	1.5	0.1
0.01	1	0.0393711870019615	1	53	NA	213.337847362	0	0.12	2.53	1	212.575205311998	212.614576499	"18"	20616.985247697	20605.762590685	1.5	0.1
0.01	1	0.0119521300002816	1	53	NA	213.337847362	0	0.12	2.53	1	212.842393144998	212.854345274998	"18"	20616.985247697	20605.762590685	1.5	0.1
0.01	1	0.0027578760018514	1	53	NA	213.337847362	0	0.12	2.53	1	213.092756162998	213.095514039	"18"	20616.985247697	20605.762590685	1.5	0.1
0.01	1	0.00976777899995795	2	53	NA	213.337847362	0	0.12	2.53	1	213.326502536998	213.336270315998	"18"	20616.985247697	20605.762590685	1.5	0.1
0.01	1	0.332219996002095	1	72	NA	226.569156637997	0	0.21	2.74	1	215.363300196997	215.695520193	"19"	20616.985247697	20605.762590685	1.5	0.1
0.01	1	0.100832246997015	1	72	NA	226.569156637997	0	0.21	2.74	1	215.930924655	216.031756901997	"19"	20616.985247697	20605.762590685	1.5	0.1
0.01	1	0.141383796999435	1	72	NA	226.569156637997	0	0.21	2.74	1	216.264758357	216.406142153999	"19"	20616.985247697	20605.762590685	1.5	0.1
0.01	1	0.103583064003033	1	72	NA	226.569156637997	0	0.21	2.74	1	216.632062834997	216.735645899	"19"	20616.985247697	20605.762590685	1.5	0.1
0.01	1	0.184038825002062	1	72	NA	226.569156637997	0	0.21	2.74	1	216.966013769998	217.150052595	"19"	20616.985247697	20605.762590685	1.5	0.1
0.01	1	0.208551086001535	1	72	NA	226.569156637997	0	0.21	2.74	1	217.383283060997	217.591834146999	"19"	20616.985247697	20605.762590685	1.5	0.1
0.01	1	0.205613221998647	1	72	NA	226.569156637997	0	0.21	2.74	1	217.817497374999	218.023110596998	"19"	20616.985247697	20605.762590685	1.5	0.1
0.01	1	0.203162521000195	1	72	NA	226.569156637997	0	0.21	2.74	1	218.251462302	218.454624823	"19"	20616.985247697	20605.762590685	1.5	0.1
0.01	1	0.161404794998816	1	72	NA	226.569156637997	0	0.21	2.74	1	218.685565209998	218.846970004997	"19"	20616.985247697	20605.762590685	1.5	0.1
0.01	1	0.193458136000118	1	72	NA	226.569156637997	0	0.21	2.74	1	219.086229401997	219.279687537997	"19"	20616.985247697	20605.762590685	1.5	0.1
0.01	1	0.656504700000369	1	72	NA	226.569156637997	0	0.21	2.74	1	219.503623254997	220.160127954998	"19"	20616.985247697	20605.762590685	1.5	0.1
0.01	1	0.0199391480018676	1	72	NA	226.569156637997	0	0.21	2.74	1	220.388383884998	220.408323033	"19"	20616.985247697	20605.762590685	1.5	0.1
0.01	1	0.503321323001728	1	72	NA	226.569156637997	0	0.21	2.74	1	220.638792759997	221.142114082999	"19"	20616.985247697	20605.762590685	1.5	0.1
0.01	1	0.00293876400246518	1	72	NA	226.569156637997	0	0.21	2.74	1	221.373417544997	221.376356309	"19"	20616.985247697	20605.762590685	1.5	0.1
0.01	1	0.400476548002189	1	72	NA	226.569156637997	0	0.21	2.74	1	221.607087476998	222.007564025	"19"	20616.985247697	20605.762590685	1.5	0.1
0.01	1	0.476763501999812	1	72	NA	226.569156637997	0	0.21	2.74	1	222.24164289	222.718406391999	"19"	20616.985247697	20605.762590685	1.5	0.1
0.01	1	0.00324102800004766	1	72	NA	226.569156637997	0	0.21	2.74	1	222.942593608997	222.945834636997	"19"	20616.985247697	20605.762590685	1.5	0.1
0.01	1	0.383772585999395	1	72	NA	226.569156637997	0	0.21	2.74	1	223.176409939999	223.560182525998	"19"	20616.985247697	20605.762590685	1.5	0.1
0.01	1	0.773483616998419	1	72	NA	226.569156637997	0	0.21	2.74	1	223.794132098999	224.567615715998	"19"	20616.985247697	20605.762590685	1.5	0.1
0.01	1	0.0586112310011231	1	72	NA	226.569156637997	0	0.21	2.74	1	224.795780009998	224.854391240999	"19"	20616.985247697	20605.762590685	1.5	0.1
0.01	1	0.655129595001199	1	72	NA	226.569156637997	0	0.21	2.74	1	225.079658404997	225.734787999998	"19"	20616.985247697	20605.762590685	1.5	0.1
0.01	1	0.603106401002151	2	72	NA	226.569156637997	0	0.21	2.74	1	225.964475449997	226.567581850999	"19"	20616.985247697	20605.762590685	1.5	0.1
0.01	1	0.475578672001575	1	126	NA	233.082153302999	0	0.15	2.89	1	228.618944172998	229.094522845	"20"	20616.985247697	20605.762590685	1.5	0.1
0.01	1	0.00201952000134042	1	126	NA	233.082153302999	0	0.15	2.89	1	229.320108519998	229.322128039999	"20"	20616.985247697	20605.762590685	1.5	0.1
0.01	1	0.0847540739996475	1	126	NA	233.082153302999	0	0.15	2.89	1	229.553794854997	229.638548928997	"20"	20616.985247697	20605.762590685	1.5	0.1
0.01	1	0.0038714459988114	1	126	NA	233.082153302999	0	0.15	2.89	1	229.871060455	229.874931900998	"20"	20616.985247697	20605.762590685	1.5	0.1
0.01	1	0.0461371730016253	1	126	NA	233.082153302999	0	0.15	2.89	1	230.104787876997	230.150925049998	"20"	20616.985247697	20605.762590685	1.5	0.1
0.01	1	0.107178190999548	1	126	NA	233.082153302999	0	0.15	2.89	1	230.388597699999	230.495775890999	"20"	20616.985247697	20605.762590685	1.5	0.1
0.01	1	0.00465356700078701	1	126	NA	233.082153302999	0	0.15	2.89	1	230.722395184999	230.727048752	"20"	20616.985247697	20605.762590685	1.5	0.1
0.01	1	0.0427944430011848	1	126	NA	233.082153302999	0	0.15	2.89	1	230.956175231997	230.998969674998	"20"	20616.985247697	20605.762590685	1.5	0.1
0.01	1	0.00427294399923994	1	126	NA	233.082153302999	0	0.15	2.89	1	231.223281800998	231.227554744997	"20"	20616.985247697	20605.762590685	1.5	0.1
0.01	1	0.0932792120001977	1	126	NA	233.082153302999	0	0.15	2.89	1	231.457120075	231.550399287	"20"	20616.985247697	20605.762590685	1.5	0.1
0.01	1	0.00391936600135523	1	126	NA	233.082153302999	0	0.15	2.89	1	231.774250974999	231.778170341	"20"	20616.985247697	20605.762590685	1.5	0.1
0.01	1	0.0462947209998674	1	126	NA	233.082153302999	0	0.15	2.89	1	232.007987861998	232.054282582998	"20"	20616.985247697	20605.762590685	1.5	0.1
0.01	1	0.0020887809987471	1	126	NA	233.082153302999	0	0.15	2.89	1	232.291845623	232.293934403999	"20"	20616.985247697	20605.762590685	1.5	0.1
0.01	1	0.0905941199998779	1	126	NA	233.082153302999	0	0.15	2.89	1	232.525475511997	232.616069631997	"20"	20616.985247697	20605.762590685	1.5	0.1
0.01	1	0.00391923599818256	1	126	NA	233.082153302999	0	0.15	2.89	1	232.842670024998	232.846589260997	"20"	20616.985247697	20605.762590685	1.5	0.1
0.01	1	0.00396506700053578	2	126	NA	233.082153302999	0	0.15	2.89	1	233.076340921998	233.080305988999	"20"	20616.985247697	20605.762590685	1.5	0.1
0.01	1	0.502726959999563	1	122	NA	240.481525392999	0	0.16	3.05	1	235.113191909997	235.615918869997	"21"	20616.985247697	20605.762590685	1.5	0.1
0.01	1	0.0713381920031679	1	122	NA	240.481525392999	0	0.16	3.05	1	235.847779574997	235.919117767	"21"	20616.985247697	20605.762590685	1.5	0.1
0.01	1	0.067970856998727	1	122	NA	240.481525392999	0	0.16	3.05	1	236.1482569	236.216227756999	"21"	20616.985247697	20605.762590685	1.5	0.1
0.01	1	0.0454875030009134	1	122	NA	240.481525392999	0	0.16	3.05	1	236.448854744998	236.494342247999	"21"	20616.985247697	20605.762590685	1.5	0.1
0.01	1	0.0501885720004793	1	122	NA	240.481525392999	0	0.16	3.05	1	236.732502721999	236.782691294	"21"	20616.985247697	20605.762590685	1.5	0.1
0.01	1	0.0715471519979474	1	122	NA	240.481525392999	0	0.16	3.05	1	237.016412086999	237.087959238997	"21"	20616.985247697	20605.762590685	1.5	0.1
0.01	1	0.0812449609984469	1	122	NA	240.481525392999	0	0.16	3.05	1	237.316907594999	237.398152555998	"21"	20616.985247697	20605.762590685	1.5	0.1
0.01	1	0.0920383830016362	1	122	NA	240.481525392999	0	0.16	3.05	1	237.634149234997	237.726187617998	"21"	20616.985247697	20605.762590685	1.5	0.1
0.01	1	0.103914123999857	1	122	NA	240.481525392999	0	0.16	3.05	1	237.951227976999	238.055142100999	"21"	20616.985247697	20605.762590685	1.5	0.1
0.01	1	0.0894535619991075	1	122	NA	240.481525392999	0	0.16	3.05	1	238.285266499999	238.374720061998	"21"	20616.985247697	20605.762590685	1.5	0.1
0.01	1	0.077606413000467	1	122	NA	240.481525392999	0	0.16	3.05	1	238.602333957999	238.679940370999	"21"	20616.985247697	20605.762590685	1.5	0.1
0.01	1	0.080510347001109	1	122	NA	240.481525392999	0	0.16	3.05	1	238.919548596998	239.000058943999	"21"	20616.985247697	20605.762590685	1.5	0.1
0.01	1	0.0512248439990799	1	122	NA	240.481525392999	0	0.16	3.05	1	239.23676367	239.287988513999	"21"	20616.985247697	20605.762590685	1.5	0.1
0.01	1	0.0870116939986474	1	122	NA	240.481525392999	0	0.16	3.05	1	239.520588349998	239.607600043997	"21"	20616.985247697	20605.762590685	1.5	0.1
0.01	1	0.00419366400092258	1	122	NA	240.481525392999	0	0.16	3.05	1	239.837872000997	239.842065664998	"21"	20616.985247697	20605.762590685	1.5	0.1
0.01	1	0.0715197780009476	1	122	NA	240.481525392999	0	0.16	3.05	1	240.071457684997	240.142977462998	"21"	20616.985247697	20605.762590685	1.5	0.1
0.01	1	0.107868603998213	2	122	NA	240.481525392999	0	0.16	3.05	1	240.372072692	240.479941295998	"21"	20616.985247697	20605.762590685	1.5	0.1
0.01	1	1.19444371200007	1	88	NA	245.792347721999	0	0.06	3.11	1	242.525653389999	243.720097101999	"22"	20616.985247697	20605.762590685	1.5	0.1
0.01	1	0.0377230939993751	1	88	NA	245.792347721999	0	0.06	3.11	1	243.961374311999	243.999097405998	"22"	20616.985247697	20605.762590685	1.5	0.1
0.01	1	0.0501269769993087	1	88	NA	245.792347721999	0	0.06	3.11	1	244.22848695	244.278613926999	"22"	20616.985247697	20605.762590685	1.5	0.1
0.01	1	0.071831335000752	1	88	NA	245.792347721999	0	0.06	3.11	1	244.512262524997	244.584093859998	"22"	20616.985247697	20605.762590685	1.5	0.1
0.01	1	0.0982144709996646	1	88	NA	245.792347721999	0	0.06	3.11	1	244.812739001998	244.910953472998	"22"	20616.985247697	20605.762590685	1.5	0.1
0.01	1	0.101041812999028	1	88	NA	245.792347721999	0	0.06	3.11	1	245.146731209999	245.247773022998	"22"	20616.985247697	20605.762590685	1.5	0.1
0.01	1	0.31023542299954	2	88	NA	245.792347721999	0	0.06	3.11	1	245.480522731999	245.790758154999	"22"	20616.985247697	20605.762590685	1.5	0.1
0.01	1	0.900106909000897	1	21	NA	254.137035198997	0	0.11	3.22	1	247.834487201999	248.734594111	"23"	20616.985247697	20605.762590685	1.5	0.1
0.01	1	0.0539302599972871	1	21	NA	254.137035198997	0	0.11	3.22	1	248.969782875	249.023713134997	"23"	20616.985247697	20605.762590685	1.5	0.1
0.01	1	0.0905925610022678	1	21	NA	254.137035198997	0	0.11	3.22	1	249.253581794997	249.344174356	"23"	20616.985247697	20605.762590685	1.5	0.1
0.01	1	0.0837496600033774	1	21	NA	254.137035198997	0	0.11	3.22	1	249.570884596997	249.654634257	"23"	20616.985247697	20605.762590685	1.5	0.1
0.01	1	0.0637412739997671	1	21	NA	254.137035198997	0	0.11	3.22	1	249.888036554999	249.951777828999	"23"	20616.985247697	20605.762590685	1.5	0.1
0.01	1	1.56975041799888	1	21	NA	254.137035198997	0	0.11	3.22	1	250.188524739999	251.758275157998	"23"	20616.985247697	20605.762590685	1.5	0.1
0.01	1	0.0721761819986568	1	21	NA	254.137035198997	0	0.11	3.22	1	251.991685429999	252.063861611998	"23"	20616.985247697	20605.762590685	1.5	0.1
0.01	1	0.274264464998851	1	21	NA	254.137035198997	0	0.11	3.22	1	252.292078301998	252.566342766997	"23"	20616.985247697	20605.762590685	1.5	0.1
0.01	1	0.0229962630000955	1	21	NA	254.137035198997	0	0.11	3.22	1	252.792867281998	252.815863544998	"23"	20616.985247697	20605.762590685	1.5	0.1
0.01	1	0.47571447899827	1	21	NA	254.137035198997	0	0.11	3.22	1	253.04326798	253.518982458998	"23"	20616.985247697	20605.762590685	1.5	0.1
0.01	1	0.0389742180013855	1	21	NA	254.137035198997	0	0.11	3.22	1	253.744453174997	253.783427392998	"23"	20616.985247697	20605.762590685	1.5	0.1
0.01	1	0.123861689000478	2	21	NA	254.137035198997	0	0.11	3.22	1	254.011617091997	254.135478780998	"23"	20616.985247697	20605.762590685	1.5	0.1
0.01	1	0.328116540000337	1	19	NA	261.208882104998	0	0.15	3.37	1	256.181950409999	256.510066949999	"24"	20616.985247697	20605.762590685	1.5	0.1
0.01	1	0.0812953129970992	1	19	NA	261.208882104998	0	0.15	3.37	1	256.749480945	256.830776257997	"24"	20616.985247697	20605.762590685	1.5	0.1
0.01	1	0.0603202260026592	1	19	NA	261.208882104998	0	0.15	3.37	1	257.066764077998	257.127084304	"24"	20616.985247697	20605.762590685	1.5	0.1
0.01	1	0.0969531150003604	1	19	NA	261.208882104998	0	0.15	3.37	1	257.350555781999	257.447508896999	"24"	20616.985247697	20605.762590685	1.5	0.1
0.01	1	0.050993737000681	1	19	NA	261.208882104998	0	0.15	3.37	1	257.684493609999	257.735487346999	"24"	20616.985247697	20605.762590685	1.5	0.1
0.01	1	0.00202811199778807	1	19	NA	261.208882104998	0	0.15	3.37	1	257.968342979999	257.970371091997	"24"	20616.985247697	20605.762590685	1.5	0.1
0.01	1	0.0840873719971569	1	19	NA	261.208882104998	0	0.15	3.37	1	258.202034815	258.286122186997	"24"	20616.985247697	20605.762590685	1.5	0.1
0.01	1	0.0949001929984661	1	19	NA	261.208882104998	0	0.15	3.37	1	258.519198549999	258.614098742997	"24"	20616.985247697	20605.762590685	1.5	0.1
0.01	1	0.00429091200203402	1	19	NA	261.208882104998	0	0.15	3.37	1	258.836374669998	258.840665582	"24"	20616.985247697	20605.762590685	1.5	0.1
0.01	1	0.306189522998466	1	19	NA	261.208882104998	0	0.15	3.37	1	259.070043481999	259.376233004998	"24"	20616.985247697	20605.762590685	1.5	0.1
0.01	1	0.00205189100233838	1	19	NA	261.208882104998	0	0.15	3.37	1	259.604396478997	259.606448369999	"24"	20616.985247697	20605.762590685	1.5	0.1
0.01	1	0.0560394849999284	1	19	NA	261.208882104998	0	0.15	3.37	1	259.838104989998	259.894144474998	"24"	20616.985247697	20605.762590685	1.5	0.1
0.01	1	0.125295885998639	1	19	NA	261.208882104998	0	0.15	3.37	1	260.12194501	260.247240895998	"24"	20616.985247697	20605.762590685	1.5	0.1
0.01	1	0.245849782000732	1	19	NA	261.208882104998	0	0.15	3.37	1	260.472592704999	260.718442486999	"24"	20616.985247697	20605.762590685	1.5	0.1
0.01	1	0.00444721400344861	1	19	NA	261.208882104998	0	0.15	3.37	1	260.939871027997	260.944318242	"24"	20616.985247697	20605.762590685	1.5	0.1
0.01	1	0.033551765998709	2	19	NA	261.208882104998	0	0.15	3.37	1	261.173684635	261.207236400998	"24"	20616.985247697	20605.762590685	1.5	0.1
0.01	1	1.67490651100161	1	68	NA	269.426155778998	0	0.15	3.52	1	263.260538801998	264.935445313	"25"	20616.985247697	20605.762590685	1.5	0.1
0.01	1	0.0280828399991151	1	68	NA	269.426155778998	0	0.15	3.52	1	265.163632249998	265.191715089997	"25"	20616.985247697	20605.762590685	1.5	0.1
0.01	1	0.055426170998544	1	68	NA	269.426155778998	0	0.15	3.52	1	265.430719672	265.486145842999	"25"	20616.985247697	20605.762590685	1.5	0.1
0.01	1	0.0933170419993985	1	68	NA	269.426155778998	0	0.15	3.52	1	265.71461571	265.807932751999	"25"	20616.985247697	20605.762590685	1.5	0.1
0.01	1	0.0943102720011666	1	68	NA	269.426155778998	0	0.15	3.52	1	266.031842524997	266.126152796998	"25"	20616.985247697	20605.762590685	1.5	0.1
0.01	1	0.00392243299938855	1	68	NA	269.426155778998	0	0.15	3.52	1	266.34892778	266.352850212999	"25"	20616.985247697	20605.762590685	1.5	0.1
0.01	1	0.0647606660022575	1	68	NA	269.426155778998	0	0.15	3.52	1	266.582766904998	266.647527571	"25"	20616.985247697	20605.762590685	1.5	0.1
0.01	1	0.0601284060030594	1	68	NA	269.426155778998	0	0.15	3.52	1	266.883192251997	266.943320658	"25"	20616.985247697	20605.762590685	1.5	0.1
0.01	1	0.0971920529991621	1	68	NA	269.426155778998	0	0.15	3.52	1	267.167065859998	267.264257912997	"25"	20616.985247697	20605.762590685	1.5	0.1
0.01	1	0.10664888500105	1	68	NA	269.426155778998	0	0.15	3.52	1	267.500943324998	267.607592209999	"25"	20616.985247697	20605.762590685	1.5	0.1
0.01	1	0.0916984520008555	1	68	NA	269.426155778998	0	0.15	3.52	1	267.834888276997	267.926586728998	"25"	20616.985247697	20605.762590685	1.5	0.1
0.01	1	0.00449117099924479	1	68	NA	269.426155778998	0	0.15	3.52	1	268.152036733998	268.156527904997	"25"	20616.985247697	20605.762590685	1.5	0.1
0.01	1	0.0289152919976914	1	68	NA	269.426155778998	0	0.15	3.52	1	268.38573966	268.414654951997	"25"	20616.985247697	20605.762590685	1.5	0.1
0.01	1	0.0987800209986744	1	68	NA	269.426155778998	0	0.15	3.52	1	268.652868861998	268.751648882997	"25"	20616.985247697	20605.762590685	1.5	0.1
0.01	1	0.00434189699808485	1	68	NA	269.426155778998	0	0.15	3.52	1	268.98679078	268.991132676998	"25"	20616.985247697	20605.762590685	1.5	0.1
0.01	1	0.203441780002322	2	68	NA	269.426155778998	0	0.15	3.52	1	269.220562486997	269.424004266999	"25"	20616.985247697	20605.762590685	1.5	0.1
0.01	1	0.854414293000445	1	16	278.322411239998	NA	1	0	3.52	1	271.457593416999	272.312007709999	"26"	20616.985247697	20605.762590685	1.5	0.1
0.01	1	0.0492115980014205	1	16	278.322411239998	NA	1	0	3.52	1	272.542825084998	272.592036683	"26"	20616.985247697	20605.762590685	1.5	0.1
0.01	1	0.0920183300004283	1	16	278.322411239998	NA	1	0	3.52	1	272.826650354997	272.918668684997	"26"	20616.985247697	20605.762590685	1.5	0.1
0.01	1	0.00454922000062652	1	16	278.322411239998	NA	1	0	3.52	1	273.143709976997	273.148259196998	"26"	20616.985247697	20605.762590685	1.5	0.1
0.01	1	0.0214144270030374	1	16	278.322411239998	NA	1	0	3.52	1	273.377524656997	273.398939084	"26"	20616.985247697	20605.762590685	1.5	0.1
0.01	1	0.114190637999855	1	16	278.322411239998	NA	1	0	3.52	1	273.627904514997	273.742095152997	"26"	20616.985247697	20605.762590685	1.5	0.1
0.01	1	0.00367696100147441	1	16	278.322411239998	NA	1	0	3.52	1	273.978488949997	273.982165910998	"26"	20616.985247697	20605.762590685	1.5	0.1
0.01	1	0.0506937819991435	1	16	278.322411239998	NA	1	0	3.52	1	274.21222347	274.262917251999	"26"	20616.985247697	20605.762590685	1.5	0.1
0.01	1	0.00390959799915436	1	16	278.322411239998	NA	1	0	3.52	1	274.496062384998	274.499971982998	"26"	20616.985247697	20605.762590685	1.5	0.1
0.01	1	0.0204360200004885	1	16	278.322411239998	NA	1	0	3.52	1	274.729778571997	274.750214591997	"26"	20616.985247697	20605.762590685	1.5	0.1
0.01	1	0.115803084001527	1	16	278.322411239998	NA	1	0	3.52	1	274.980263521997	275.096066605998	"26"	20616.985247697	20605.762590685	1.5	0.1
0.01	1	0.00380881700039026	1	16	278.322411239998	NA	1	0	3.52	1	275.330770269997	275.334579086997	"26"	20616.985247697	20605.762590685	1.5	0.1
0.01	1	0.0819166979999864	1	16	278.322411239998	NA	1	0	3.52	1	275.564557685	275.646474383	"26"	20616.985247697	20605.762590685	1.5	0.1
0.01	1	0.00201876899882336	1	16	278.322411239998	NA	1	0	3.52	1	275.881717952998	275.883736721997	"26"	20616.985247697	20605.762590685	1.5	0.1
0.01	1	0.00395059199945536	1	16	278.322411239998	NA	1	0	3.52	1	276.115403946998	276.119354538998	"26"	20616.985247697	20605.762590685	1.5	0.1
0.01	1	1.85872977200052	1	16	278.322411239998	NA	1	0	3.52	1	276.349225309998	278.207955081998	"26"	20616.985247697	20605.762590685	1.5	0.1
0.01	1	0.617718719997356	1	29	NA	285.883586532	0	0.11	3.63	1	280.372548736999	280.990267456997	"27"	20616.985247697	20605.762590685	1.5	0.1
0.01	1	0.00407855500088772	1	29	NA	285.883586532	0	0.11	3.63	1	281.224076211998	281.228154766999	"27"	20616.985247697	20605.762590685	1.5	0.1
0.01	1	0.0691257350008527	1	29	NA	285.883586532	0	0.11	3.63	1	281.457810094998	281.526935829999	"27"	20616.985247697	20605.762590685	1.5	0.1
0.01	1	0.0046176750001905	1	29	NA	285.883586532	0	0.11	3.63	1	281.758345754999	281.762963429999	"27"	20616.985247697	20605.762590685	1.5	0.1
0.01	1	0.0547962780001399	1	29	NA	285.883586532	0	0.11	3.63	1	281.992185024999	282.046981302999	"27"	20616.985247697	20605.762590685	1.5	0.1
0.01	1	0.131633428998612	1	29	NA	285.883586532	0	0.11	3.63	1	282.275743279999	282.407376708998	"27"	20616.985247697	20605.762590685	1.5	0.1
0.01	1	0.00219858399941586	1	29	NA	285.883586532	0	0.11	3.63	1	282.643096405998	282.645294989998	"27"	20616.985247697	20605.762590685	1.5	0.1
0.01	1	0.0740256960016268	1	29	NA	285.883586532	0	0.11	3.63	1	282.876769774997	282.950795470999	"27"	20616.985247697	20605.762590685	1.5	0.1
0.01	1	0.00388640799792483	1	29	NA	285.883586532	0	0.11	3.63	1	283.177337396999	283.181223804997	"27"	20616.985247697	20605.762590685	1.5	0.1
0.01	1	0.0849084289984603	1	29	NA	285.883586532	0	0.11	3.63	1	283.411135154998	283.496043583997	"27"	20616.985247697	20605.762590685	1.5	0.1
0.01	1	0.00403537300007883	1	29	NA	285.883586532	0	0.11	3.63	1	283.728267849998	283.732303222998	"27"	20616.985247697	20605.762590685	1.5	0.1
0.01	1	1.91986721099966	NA	29	NA	285.883586532	0	0.11	3.63	1	283.962002701999	285.881869912999	"27"	20616.985247697	20605.762590685	1.5	0.1
0.01	1	1.83177485199849	1	1	289.890593206997	NA	1	0	3.63	1	287.935327755	289.767102606998	"28"	20616.985247697	20605.762590685	1.5	0.1
0.01	1	0.344512171999668	1	66	NA	297.577123644998	0	0.09	3.72	1	291.942135139998	292.286647311998	"29"	20616.985247697	20605.762590685	1.5	0.1
0.01	1	0.0639244230005716	1	66	NA	297.577123644998	0	0.09	3.72	1	292.526317576998	292.590241999998	"29"	20616.985247697	20605.762590685	1.5	0.1
0.01	1	0.0610863219990279	1	66	NA	297.577123644998	0	0.09	3.72	1	292.826925576999	292.888011898998	"29"	20616.985247697	20605.762590685	1.5	0.1
0.01	1	0.0721694229978311	1	66	NA	297.577123644998	0	0.09	3.72	1	293.110697122	293.182866544998	"29"	20616.985247697	20605.762590685	1.5	0.1
0.01	1	0.147898148003151	1	66	NA	297.577123644998	0	0.09	3.72	1	293.411189601997	293.55908775	"29"	20616.985247697	20605.762590685	1.5	0.1
0.01	1	1.11570048900103	1	66	NA	297.577123644998	0	0.09	3.72	1	293.795159859998	294.910860348999	"29"	20616.985247697	20605.762590685	1.5	0.1
0.01	1	0.00392112100234954	1	66	NA	297.577123644998	0	0.09	3.72	1	295.147453121997	295.151374243	"29"	20616.985247697	20605.762590685	1.5	0.1
0.01	1	0.0111434239988739	1	66	NA	297.577123644998	0	0.09	3.72	1	295.381180724999	295.392324148997	"29"	20616.985247697	20605.762590685	1.5	0.1
0.01	1	0.768330947998038	1	66	NA	297.577123644998	0	0.09	3.72	1	295.631522377	296.399853324998	"29"	20616.985247697	20605.762590685	1.5	0.1
0.01	1	0.942279234001035	2	66	NA	297.577123644998	0	0.09	3.72	1	296.633244044999	297.575523279	"29"	20616.985247697	20605.762590685	1.5	0.1
0.01	1	0.298490715998923	1	78	NA	306.128717402	0	0.14	3.86	1	299.621606817	299.920097532999	"30"	20616.985247697	20605.762590685	1.5	0.1
0.01	1	0.0669766840001103	1	78	NA	306.128717402	0	0.14	3.86	1	300.155934121998	300.222910805998	"30"	20616.985247697	20605.762590685	1.5	0.1
0.01	1	0.0618702779975138	1	78	NA	306.128717402	0	0.14	3.86	1	300.456367125	300.518237402997	"30"	20616.985247697	20605.762590685	1.5	0.1
0.01	1	0.0658224600010726	1	78	NA	306.128717402	0	0.14	3.86	1	300.756828791997	300.822651251998	"30"	20616.985247697	20605.762590685	1.5	0.1
0.01	1	0.0776148400000238	1	78	NA	306.128717402	0	0.14	3.86	1	301.057454661997	301.135069501997	"30"	20616.985247697	20605.762590685	1.5	0.1
0.01	1	0.00390130899904761	1	78	NA	306.128717402	0	0.14	3.86	1	301.35794319	301.361844498999	"30"	20616.985247697	20605.762590685	1.5	0.1
0.01	1	0.0323546280014853	1	78	NA	306.128717402	0	0.14	3.86	1	301.591591944998	301.623946573	"30"	20616.985247697	20605.762590685	1.5	0.1
0.01	1	0.0994911839989072	1	78	NA	306.128717402	0	0.14	3.86	1	301.858731256998	301.958222440997	"30"	20616.985247697	20605.762590685	1.5	0.1
0.01	1	0.00434607999704895	1	78	NA	306.128717402	0	0.14	3.86	1	302.19260644	302.196952519997	"30"	20616.985247697	20605.762590685	1.5	0.1
0.01	1	0.0454659679999168	1	78	NA	306.128717402	0	0.14	3.86	1	302.426373894999	302.471839862999	"30"	20616.985247697	20605.762590685	1.5	0.1
0.01	1	1.58555225999953	1	78	NA	306.128717402	0	0.14	3.86	1	302.710197519998	304.295749779998	"30"	20616.985247697	20605.762590685	1.5	0.1
0.01	1	0.421039988003031	1	78	NA	306.128717402	0	0.14	3.86	1	304.529863041997	304.95090303	"30"	20616.985247697	20605.762590685	1.5	0.1
0.01	1	0.00464544499845942	1	78	NA	306.128717402	0	0.14	3.86	1	305.181081715	305.185727159998	"30"	20616.985247697	20605.762590685	1.5	0.1
0.01	1	0.00404797999726725	1	78	NA	306.128717402	0	0.14	3.86	1	305.414785465	305.418833444997	"30"	20616.985247697	20605.762590685	1.5	0.1
0.01	1	0.478564279997954	2	78	NA	306.128717402	0	0.14	3.86	1	305.648552909999	306.127117189997	"30"	20616.985247697	20605.762590685	1.5	0.1
