"payoff.level"	"balloon"	"rt"	"resp"	"explode.trial"	"explode.time"	"finish.time"	"exploded"	"trial.total"	"cumulative.total"	"finished"	"trial.start"	"trial.end"	"trial.num"	"secs"	"start.time"	"iti"	"isi"
0.01	1	1.22168780199999	1	64	NA	7.94294168900001	0	0.27	0.27	1	0.0248440640000069	1.246531866	"1"	591.600261667	589.546034613	1.5	0.1
0.01	1	0.00460916000000111	1	64	NA	7.94294168900001	0	0.27	0.27	1	1.794473834	1.799082994	"1"	591.600261667	589.546034613	1.5	0.1
0.01	1	0.00205152600000247	1	64	NA	7.94294168900001	0	0.27	0.27	1	2.02823350200001	2.03028502800001	"1"	591.600261667	589.546034613	1.5	0.1
0.01	1	0.00320173199997953	1	64	NA	7.94294168900001	0	0.27	0.27	1	2.26186982200002	2.265071554	"1"	591.600261667	589.546034613	1.5	0.1
0.01	1	0.00385065700001519	1	64	NA	7.94294168900001	0	0.27	0.27	1	2.495575489	2.49942614600002	"1"	591.600261667	589.546034613	1.5	0.1
0.01	1	0.00203079000002049	1	64	NA	7.94294168900001	0	0.27	0.27	1	2.729318079	2.73134886900002	"1"	591.600261667	589.546034613	1.5	0.1
0.01	1	0.00199372800000219	1	64	NA	7.94294168900001	0	0.27	0.27	1	2.96305768400001	2.96505141200001	"1"	591.600261667	589.546034613	1.5	0.1
0.01	1	0.00340690199999472	1	64	NA	7.94294168900001	0	0.27	0.27	1	3.196805544	3.20021244599999	"1"	591.600261667	589.546034613	1.5	0.1
0.01	1	0.00327365600000462	1	64	NA	7.94294168900001	0	0.27	0.27	1	3.430583904	3.43385756000001	"1"	591.600261667	589.546034613	1.5	0.1
0.01	1	0.00324055199999407	1	64	NA	7.94294168900001	0	0.27	0.27	1	3.66428493400002	3.66752548600002	"1"	591.600261667	589.546034613	1.5	0.1
0.01	1	0.00376534500000503	1	64	NA	7.94294168900001	0	0.27	0.27	1	3.898062189	3.90182753400001	"1"	591.600261667	589.546034613	1.5	0.1
0.01	1	0.00217049200000474	1	64	NA	7.94294168900001	0	0.27	0.27	1	4.13169413200001	4.13386462400001	"1"	591.600261667	589.546034613	1.5	0.1
0.01	1	0.00310189800001126	1	64	NA	7.94294168900001	0	0.27	0.27	1	4.36541730600001	4.36851920400002	"1"	591.600261667	589.546034613	1.5	0.1
0.01	1	0.00218597399998544	1	64	NA	7.94294168900001	0	0.27	0.27	1	4.59910157600001	4.60128755	"1"	591.600261667	589.546034613	1.5	0.1
0.01	1	0.00405927799999972	1	64	NA	7.94294168900001	0	0.27	0.27	1	4.83299656400001	4.83705584200001	"1"	591.600261667	589.546034613	1.5	0.1
0.01	1	0.00377839500001187	1	64	NA	7.94294168900001	0	0.27	0.27	1	5.06662805100001	5.07040644600002	"1"	591.600261667	589.546034613	1.5	0.1
0.01	1	0.0020019699999807	1	64	NA	7.94294168900001	0	0.27	0.27	1	5.30036557900002	5.302367549	"1"	591.600261667	589.546034613	1.5	0.1
0.01	1	0.00223809999999958	1	64	NA	7.94294168900001	0	0.27	0.27	1	5.534064726	5.536302826	"1"	591.600261667	589.546034613	1.5	0.1
0.01	1	0.00219076999999857	1	64	NA	7.94294168900001	0	0.27	0.27	1	5.767871802	5.770062572	"1"	591.600261667	589.546034613	1.5	0.1
0.01	1	0.00219263399998226	1	64	NA	7.94294168900001	0	0.27	0.27	1	6.00142460200001	6.003617236	"1"	591.600261667	589.546034613	1.5	0.1
0.01	1	0.00259274999999093	1	64	NA	7.94294168900001	0	0.27	0.27	1	6.23522754200002	6.23782029200001	"1"	591.600261667	589.546034613	1.5	0.1
0.01	1	0.00329717599998958	1	64	NA	7.94294168900001	0	0.27	0.27	1	6.46905227000002	6.47234944600001	"1"	591.600261667	589.546034613	1.5	0.1
0.01	1	0.00214796500000602	1	64	NA	7.94294168900001	0	0.27	0.27	1	6.702663379	6.70481134400001	"1"	591.600261667	589.546034613	1.5	0.1
0.01	1	0.00380876100001615	1	64	NA	7.94294168900001	0	0.27	0.27	1	6.93657806100001	6.94038682200002	"1"	591.600261667	589.546034613	1.5	0.1
0.01	1	0.00382036199999902	1	64	NA	7.94294168900001	0	0.27	0.27	1	7.170280604	7.174100966	"1"	591.600261667	589.546034613	1.5	0.1
0.01	1	0.00390533600000254	1	64	NA	7.94294168900001	0	0.27	0.27	1	7.403879246	7.40778458200001	"1"	591.600261667	589.546034613	1.5	0.1
0.01	1	0.00393470800000273	1	64	NA	7.94294168900001	0	0.27	0.27	1	7.63768328400002	7.64161799200002	"1"	591.600261667	589.546034613	1.5	0.1
0.01	1	0.0699585419999948	2	64	NA	7.94294168900001	0	0.27	0.27	1	7.87144242600002	7.94140096800001	"1"	591.600261667	589.546034613	1.5	0.1
0.01	1	0.286173566000002	1	102	NA	11.927892155	0	0.04	0.31	1	9.99160650100001	10.277780067	"2"	591.600261667	589.546034613	1.5	0.1
0.01	1	0.113132965000005	1	102	NA	11.927892155	0	0.04	0.31	1	10.509229066	10.622362031	"2"	591.600261667	589.546034613	1.5	0.1
0.01	1	0.145831803000021	1	102	NA	11.927892155	0	0.04	0.31	1	10.859806959	11.005638762	"2"	591.600261667	589.546034613	1.5	0.1
0.01	1	0.322989073000002	1	102	NA	11.927892155	0	0.04	0.31	1	11.243649519	11.566638592	"2"	591.600261667	589.546034613	1.5	0.1
0.01	1	0.13157837	2	102	NA	11.927892155	0	0.04	0.31	1	11.794639959	11.926218329	"2"	591.600261667	589.546034613	1.5	0.1
0.01	1	0.224724605999995	1	97	NA	15.999430087	0	0.04	0.35	1	13.981677707	14.206402313	"3"	591.600261667	589.546034613	1.5	0.1
0.01	1	0.142090715000023	1	97	NA	15.999430087	0	0.04	0.35	1	14.432524374	14.574615089	"3"	591.600261667	589.546034613	1.5	0.1
0.01	1	0.358789424000008	1	97	NA	15.999430087	0	0.04	0.35	1	14.799744749	15.158534173	"3"	591.600261667	589.546034613	1.5	0.1
0.01	1	0.198830122000004	1	97	NA	15.999430087	0	0.04	0.35	1	15.383965414	15.582795536	"3"	591.600261667	589.546034613	1.5	0.1
0.01	1	0.179635037999986	2	97	NA	15.999430087	0	0.04	0.35	1	15.818093394	15.997728432	"3"	591.600261667	589.546034613	1.5	0.1
0.01	1	0.00401425299997982	1	51	29.844711461	NA	1	0	0.35	1	18.038490971	18.042505224	"4"	591.600261667	589.546034613	1.5	0.1
0.01	1	0.00385579599998209	1	51	29.844711461	NA	1	0	0.35	1	18.272135914	18.27599171	"4"	591.600261667	589.546034613	1.5	0.1
0.01	1	0.0037484850000169	1	51	29.844711461	NA	1	0	0.35	1	18.505917461	18.509665946	"4"	591.600261667	589.546034613	1.5	0.1
0.01	1	0.00334447400001636	1	51	29.844711461	NA	1	0	0.35	1	18.739677994	18.743022468	"4"	591.600261667	589.546034613	1.5	0.1
0.01	1	0.00390945699999179	1	51	29.844711461	NA	1	0	0.35	1	18.973381771	18.977291228	"4"	591.600261667	589.546034613	1.5	0.1
0.01	1	0.00387085499997397	1	51	29.844711461	NA	1	0	0.35	1	19.207118469	19.210989324	"4"	591.600261667	589.546034613	1.5	0.1
0.01	1	0.00379314500000305	1	51	29.844711461	NA	1	0	0.35	1	19.440818001	19.444611146	"4"	591.600261667	589.546034613	1.5	0.1
0.01	1	0.00387814299998013	1	51	29.844711461	NA	1	0	0.35	1	19.674621079	19.678499222	"4"	591.600261667	589.546034613	1.5	0.1
0.01	1	0.00351254800000333	1	51	29.844711461	NA	1	0	0.35	1	19.908216774	19.911729322	"4"	591.600261667	589.546034613	1.5	0.1
0.01	1	0.00417272300001059	1	51	29.844711461	NA	1	0	0.35	1	20.141951833	20.146124556	"4"	591.600261667	589.546034613	1.5	0.1
0.01	1	0.00383806800002162	1	51	29.844711461	NA	1	0	0.35	1	20.375794504	20.379632572	"4"	591.600261667	589.546034613	1.5	0.1
0.01	1	0.00456862499999033	1	51	29.844711461	NA	1	0	0.35	1	20.609467509	20.614036134	"4"	591.600261667	589.546034613	1.5	0.1
0.01	1	0.00323468199999866	1	51	29.844711461	NA	1	0	0.35	1	20.843265206	20.846499888	"4"	591.600261667	589.546034613	1.5	0.1
0.01	1	0.00253631900000073	1	51	29.844711461	NA	1	0	0.35	1	21.076877734	21.079414053	"4"	591.600261667	589.546034613	1.5	0.1
0.01	1	0.00282358999999133	1	51	29.844711461	NA	1	0	0.35	1	21.310717854	21.313541444	"4"	591.600261667	589.546034613	1.5	0.1
0.01	1	0.00378421500002446	1	51	29.844711461	NA	1	0	0.35	1	21.544456801	21.548241016	"4"	591.600261667	589.546034613	1.5	0.1
0.01	1	0.00379942899999719	1	51	29.844711461	NA	1	0	0.35	1	21.778173749	21.781973178	"4"	591.600261667	589.546034613	1.5	0.1
0.01	1	0.00331683400000315	1	51	29.844711461	NA	1	0	0.35	1	22.011819524	22.015136358	"4"	591.600261667	589.546034613	1.5	0.1
0.01	1	0.00375230299999885	1	51	29.844711461	NA	1	0	0.35	1	22.245448679	22.249200982	"4"	591.600261667	589.546034613	1.5	0.1
0.01	1	0.00428882700001054	1	51	29.844711461	NA	1	0	0.35	1	22.479368474	22.483657301	"4"	591.600261667	589.546034613	1.5	0.1
0.01	1	0.00393524599999751	1	51	29.844711461	NA	1	0	0.35	1	22.713049156	22.716984402	"4"	591.600261667	589.546034613	1.5	0.1
0.01	1	0.00379782799998907	1	51	29.844711461	NA	1	0	0.35	1	22.946755676	22.950553504	"4"	591.600261667	589.546034613	1.5	0.1
0.01	1	0.00369625499999415	1	51	29.844711461	NA	1	0	0.35	1	23.180490109	23.184186364	"4"	591.600261667	589.546034613	1.5	0.1
0.01	1	0.00456778700001337	1	51	29.844711461	NA	1	0	0.35	1	23.414152234	23.418720021	"4"	591.600261667	589.546034613	1.5	0.1
0.01	1	0.00373034100002201	1	51	29.844711461	NA	1	0	0.35	1	23.647973119	23.65170346	"4"	591.600261667	589.546034613	1.5	0.1
0.01	1	0.00394551799999476	1	51	29.844711461	NA	1	0	0.35	1	23.881674634	23.885620152	"4"	591.600261667	589.546034613	1.5	0.1
0.01	1	0.00365965199998186	1	51	29.844711461	NA	1	0	0.35	1	24.115328214	24.118987866	"4"	591.600261667	589.546034613	1.5	0.1
0.01	1	0.00462700500000324	1	51	29.844711461	NA	1	0	0.35	1	24.349112529	24.353739534	"4"	591.600261667	589.546034613	1.5	0.1
0.01	1	0.00378094699999565	1	51	29.844711461	NA	1	0	0.35	1	24.582773191	24.586554138	"4"	591.600261667	589.546034613	1.5	0.1
0.01	1	0.00430148099999883	1	51	29.844711461	NA	1	0	0.35	1	24.81655728	24.820858761	"4"	591.600261667	589.546034613	1.5	0.1
0.01	1	0.00401893800000153	1	51	29.844711461	NA	1	0	0.35	1	25.050352976	25.054371914	"4"	591.600261667	589.546034613	1.5	0.1
0.01	1	0.00393949700000462	1	51	29.844711461	NA	1	0	0.35	1	25.284016621	25.287956118	"4"	591.600261667	589.546034613	1.5	0.1
0.01	1	0.00344926299999315	1	51	29.844711461	NA	1	0	0.35	1	25.517694239	25.521143502	"4"	591.600261667	589.546034613	1.5	0.1
0.01	1	0.00397171099999127	1	51	29.844711461	NA	1	0	0.35	1	25.751516209	25.75548792	"4"	591.600261667	589.546034613	1.5	0.1
0.01	1	0.00459814200002029	1	51	29.844711461	NA	1	0	0.35	1	25.985184769	25.989782911	"4"	591.600261667	589.546034613	1.5	0.1
0.01	1	0.00303223200000957	1	51	29.844711461	NA	1	0	0.35	1	26.21898085	26.222013082	"4"	591.600261667	589.546034613	1.5	0.1
0.01	1	0.00334621799999013	1	51	29.844711461	NA	1	0	0.35	1	26.45267691	26.456023128	"4"	591.600261667	589.546034613	1.5	0.1
0.01	1	0.00367764300000317	1	51	29.844711461	NA	1	0	0.35	1	26.686294391	26.689972034	"4"	591.600261667	589.546034613	1.5	0.1
0.01	1	0.00385357499999373	1	51	29.844711461	NA	1	0	0.35	1	26.920036169	26.923889744	"4"	591.600261667	589.546034613	1.5	0.1
0.01	1	0.0038035609999838	1	51	29.844711461	NA	1	0	0.35	1	27.153815359	27.15761892	"4"	591.600261667	589.546034613	1.5	0.1
0.01	1	0.00223930399999972	1	51	29.844711461	NA	1	0	0.35	1	27.387524602	27.389763906	"4"	591.600261667	589.546034613	1.5	0.1
0.01	1	0.00249266800000214	1	51	29.844711461	NA	1	0	0.35	1	27.621153382	27.62364605	"4"	591.600261667	589.546034613	1.5	0.1
0.01	1	0.00325951199999963	1	51	29.844711461	NA	1	0	0.35	1	27.854889752	27.858149264	"4"	591.600261667	589.546034613	1.5	0.1
0.01	1	0.00375599599999532	1	51	29.844711461	NA	1	0	0.35	1	28.088759334	28.09251533	"4"	591.600261667	589.546034613	1.5	0.1
0.01	1	0.00341869900000802	1	51	29.844711461	NA	1	0	0.35	1	28.322448941	28.32586764	"4"	591.600261667	589.546034613	1.5	0.1
0.01	1	0.00384549899999342	1	51	29.844711461	NA	1	0	0.35	1	28.556274281	28.56011978	"4"	591.600261667	589.546034613	1.5	0.1
0.01	1	0.00394170499998836	1	51	29.844711461	NA	1	0	0.35	1	28.789886479	28.793828184	"4"	591.600261667	589.546034613	1.5	0.1
0.01	1	0.00401118099998143	1	51	29.844711461	NA	1	0	0.35	1	29.023626421	29.027637602	"4"	591.600261667	589.546034613	1.5	0.1
0.01	1	0.00379675499999621	1	51	29.844711461	NA	1	0	0.35	1	29.257380399	29.261177154	"4"	591.600261667	589.546034613	1.5	0.1
0.01	1	0.00391504199998849	1	51	29.844711461	NA	1	0	0.35	1	29.491045194	29.494960236	"4"	591.600261667	589.546034613	1.5	0.1
0.01	1	0.00347438900001862	1	51	29.844711461	NA	1	0	0.35	1	29.724869961	29.72834435	"4"	591.600261667	589.546034613	1.5	0.1
0.01	1	0.192146642000012	1	116	NA	34.739450874	0	0.11	0.46	1	31.878435324	32.070581966	"5"	591.600261667	589.546034613	1.5	0.1
0.01	1	0.103006260000001	1	116	NA	34.739450874	0	0.11	0.46	1	32.295699194	32.398705454	"5"	591.600261667	589.546034613	1.5	0.1
0.01	1	0.00385254500000087	1	116	NA	34.739450874	0	0.11	0.46	1	32.629645311	32.633497856	"5"	591.600261667	589.546034613	1.5	0.1
0.01	1	0.00390296599999829	1	116	NA	34.739450874	0	0.11	0.46	1	32.863374864	32.86727783	"5"	591.600261667	589.546034613	1.5	0.1
0.01	1	0.00464175199999772	1	116	NA	34.739450874	0	0.11	0.46	1	33.097139489	33.101781241	"5"	591.600261667	589.546034613	1.5	0.1
0.01	1	0.00395041299998411	1	116	NA	34.739450874	0	0.11	0.46	1	33.330844371	33.334794784	"5"	591.600261667	589.546034613	1.5	0.1
0.01	1	0.00460232500000757	1	116	NA	34.739450874	0	0.11	0.46	1	33.564538414	33.569140739	"5"	591.600261667	589.546034613	1.5	0.1
0.01	1	0.00380853300001149	1	116	NA	34.739450874	0	0.11	0.46	1	33.798304491	33.802113024	"5"	591.600261667	589.546034613	1.5	0.1
0.01	1	0.00377086299999974	1	116	NA	34.739450874	0	0.11	0.46	1	34.031979941	34.035750804	"5"	591.600261667	589.546034613	1.5	0.1
0.01	1	0.00452208199999404	1	116	NA	34.739450874	0	0.11	0.46	1	34.265806859	34.270328941	"5"	591.600261667	589.546034613	1.5	0.1
0.01	1	0.00386061000000382	1	116	NA	34.739450874	0	0.11	0.46	1	34.499539614	34.503400224	"5"	591.600261667	589.546034613	1.5	0.1
0.01	1	0.00426316900001211	2	116	NA	34.739450874	0	0.11	0.46	1	34.73323192	34.737495089	"5"	591.600261667	589.546034613	1.5	0.1
0.01	1	0.00390494399999852	1	118	NA	45.366707233	0	0.35	0.81	1	36.786726364	36.790631308	"6"	591.600261667	589.546034613	1.5	0.1
0.01	1	0.00367437799999948	1	118	NA	45.366707233	0	0.35	0.81	1	37.020390724	37.024065102	"6"	591.600261667	589.546034613	1.5	0.1
0.01	1	0.00350348899999631	1	118	NA	45.366707233	0	0.35	0.81	1	37.254075299	37.257578788	"6"	591.600261667	589.546034613	1.5	0.1
0.01	1	0.00451392700000497	1	118	NA	45.366707233	0	0.35	0.81	1	37.487849724	37.492363651	"6"	591.600261667	589.546034613	1.5	0.1
0.01	1	0.00394920700000512	1	118	NA	45.366707233	0	0.35	0.81	1	37.721572119	37.725521326	"6"	591.600261667	589.546034613	1.5	0.1
0.01	1	0.00341377699999157	1	118	NA	45.366707233	0	0.35	0.81	1	37.955227949	37.958641726	"6"	591.600261667	589.546034613	1.5	0.1
0.01	1	0.00363279300000841	1	118	NA	45.366707233	0	0.35	0.81	1	38.188994331	38.192627124	"6"	591.600261667	589.546034613	1.5	0.1
0.01	1	0.00388104000001022	1	118	NA	45.366707233	0	0.35	0.81	1	38.422726164	38.426607204	"6"	591.600261667	589.546034613	1.5	0.1
0.01	1	0.00338222499999574	1	118	NA	45.366707233	0	0.35	0.81	1	38.673178641	38.676560866	"6"	591.600261667	589.546034613	1.5	0.1
0.01	1	0.00379436899999064	1	118	NA	45.366707233	0	0.35	0.81	1	38.906918829	38.910713198	"6"	591.600261667	589.546034613	1.5	0.1
0.01	1	0.00394762799999171	1	118	NA	45.366707233	0	0.35	0.81	1	39.140601794	39.144549422	"6"	591.600261667	589.546034613	1.5	0.1
0.01	1	0.00345963699999174	1	118	NA	45.366707233	0	0.35	0.81	1	39.374408699	39.377868336	"6"	591.600261667	589.546034613	1.5	0.1
0.01	1	0.00327902600000129	1	118	NA	45.366707233	0	0.35	0.81	1	39.608002994	39.61128202	"6"	591.600261667	589.546034613	1.5	0.1
0.01	1	0.0034494479999978	1	118	NA	45.366707233	0	0.35	0.81	1	39.841801556	39.845251004	"6"	591.600261667	589.546034613	1.5	0.1
0.01	1	0.00366318199999682	1	118	NA	45.366707233	0	0.35	0.81	1	40.075519494	40.079182676	"6"	591.600261667	589.546034613	1.5	0.1
0.01	1	0.00357294799999863	1	118	NA	45.366707233	0	0.35	0.81	1	40.309253624	40.312826572	"6"	591.600261667	589.546034613	1.5	0.1
0.01	1	0.00452297999999018	1	118	NA	45.366707233	0	0.35	0.81	1	40.542982609	40.547505589	"6"	591.600261667	589.546034613	1.5	0.1
0.01	1	0.00379484300000854	1	118	NA	45.366707233	0	0.35	0.81	1	40.776722089	40.780516932	"6"	591.600261667	589.546034613	1.5	0.1
0.01	1	0.00198157700000934	1	118	NA	45.366707233	0	0.35	0.81	1	41.01035544	41.012337017	"6"	591.600261667	589.546034613	1.5	0.1
0.01	1	0.00461838699999362	1	118	NA	45.366707233	0	0.35	0.81	1	41.244101289	41.248719676	"6"	591.600261667	589.546034613	1.5	0.1
0.01	1	0.00453239500001246	1	118	NA	45.366707233	0	0.35	0.81	1	41.477894294	41.482426689	"6"	591.600261667	589.546034613	1.5	0.1
0.01	1	0.00462509199999772	1	118	NA	45.366707233	0	0.35	0.81	1	41.711625609	41.716250701	"6"	591.600261667	589.546034613	1.5	0.1
0.01	1	0.00391473500002348	1	118	NA	45.366707233	0	0.35	0.81	1	41.945258771	41.949173506	"6"	591.600261667	589.546034613	1.5	0.1
0.01	1	0.0038973909999811	1	118	NA	45.366707233	0	0.35	0.81	1	42.179060691	42.182958082	"6"	591.600261667	589.546034613	1.5	0.1
0.01	1	0.0039102220000018	1	118	NA	45.366707233	0	0.35	0.81	1	42.412752744	42.416662966	"6"	591.600261667	589.546034613	1.5	0.1
0.01	1	0.00450795500000822	1	118	NA	45.366707233	0	0.35	0.81	1	42.646543954	42.651051909	"6"	591.600261667	589.546034613	1.5	0.1
0.01	1	0.00348908899999856	1	118	NA	45.366707233	0	0.35	0.81	1	42.880205389	42.883694478	"6"	591.600261667	589.546034613	1.5	0.1
0.01	1	0.00421728500000995	1	118	NA	45.366707233	0	0.35	0.81	1	43.113962804	43.118180089	"6"	591.600261667	589.546034613	1.5	0.1
0.01	1	0.00374650300000212	1	118	NA	45.366707233	0	0.35	0.81	1	43.347649239	43.351395742	"6"	591.600261667	589.546034613	1.5	0.1
0.01	1	0.00371912500000349	1	118	NA	45.366707233	0	0.35	0.81	1	43.581438341	43.585157466	"6"	591.600261667	589.546034613	1.5	0.1
0.01	1	0.00348963399997615	1	118	NA	45.366707233	0	0.35	0.81	1	43.815186894	43.818676528	"6"	591.600261667	589.546034613	1.5	0.1
0.01	1	0.00346673399999986	1	118	NA	45.366707233	0	0.35	0.81	1	44.048862504	44.052329238	"6"	591.600261667	589.546034613	1.5	0.1
0.01	1	0.00390730999998823	1	118	NA	45.366707233	0	0.35	0.81	1	44.282657326	44.286564636	"6"	591.600261667	589.546034613	1.5	0.1
0.01	1	0.0045304470000076	1	118	NA	45.366707233	0	0.35	0.81	1	44.516391894	44.520922341	"6"	591.600261667	589.546034613	1.5	0.1
0.01	1	0.00461143499998684	1	118	NA	45.366707233	0	0.35	0.81	1	44.750134249	44.754745684	"6"	591.600261667	589.546034613	1.5	0.1
0.01	1	0.381260732999976	2	118	NA	45.366707233	0	0.35	0.81	1	44.983759129	45.365019862	"6"	591.600261667	589.546034613	1.5	0.1
0.01	1	0.00385343799999305	1	87	NA	52.96794051	0	0.22	1.03	1	47.421244534	47.425097972	"7"	591.600261667	589.546034613	1.5	0.1
0.01	1	0.00382368500001462	1	87	NA	52.96794051	0	0.22	1.03	1	47.654947239	47.658770924	"7"	591.600261667	589.546034613	1.5	0.1
0.01	1	0.108954920000002	1	87	NA	52.96794051	0	0.22	1.03	1	47.888638711	47.997593631	"7"	591.600261667	589.546034613	1.5	0.1
0.01	1	0.00391088599999989	1	87	NA	52.96794051	0	0.22	1.03	1	48.222615336	48.226526222	"7"	591.600261667	589.546034613	1.5	0.1
0.01	1	0.00392664200001036	1	87	NA	52.96794051	0	0.22	1.03	1	48.456362176	48.460288818	"7"	591.600261667	589.546034613	1.5	0.1
0.01	1	0.00329080399998816	1	87	NA	52.96794051	0	0.22	1.03	1	48.689977276	48.69326808	"7"	591.600261667	589.546034613	1.5	0.1
0.01	1	0.00361679200000253	1	87	NA	52.96794051	0	0.22	1.03	1	48.923732714	48.927349506	"7"	591.600261667	589.546034613	1.5	0.1
0.01	1	0.0037515489999862	1	87	NA	52.96794051	0	0.22	1.03	1	49.157494011	49.16124556	"7"	591.600261667	589.546034613	1.5	0.1
0.01	1	0.00387786199999596	1	87	NA	52.96794051	0	0.22	1.03	1	49.391130564	49.395008426	"7"	591.600261667	589.546034613	1.5	0.1
0.01	1	0.00389226800001552	1	87	NA	52.96794051	0	0.22	1.03	1	49.624973944	49.628866212	"7"	591.600261667	589.546034613	1.5	0.1
0.01	1	0.00360752000000275	1	87	NA	52.96794051	0	0.22	1.03	1	49.858605446	49.862212966	"7"	591.600261667	589.546034613	1.5	0.1
0.01	1	0.00387623299999973	1	87	NA	52.96794051	0	0.22	1.03	1	50.092353931	50.096230164	"7"	591.600261667	589.546034613	1.5	0.1
0.01	1	0.00410446600000114	1	87	NA	52.96794051	0	0.22	1.03	1	50.326102484	50.33020695	"7"	591.600261667	589.546034613	1.5	0.1
0.01	1	0.00451478700000507	1	87	NA	52.96794051	0	0.22	1.03	1	50.559918654	50.564433441	"7"	591.600261667	589.546034613	1.5	0.1
0.01	1	0.00328244199999972	1	87	NA	52.96794051	0	0.22	1.03	1	50.793576994	50.796859436	"7"	591.600261667	589.546034613	1.5	0.1
0.01	1	0.00480090499999619	1	87	NA	52.96794051	0	0.22	1.03	1	51.027299229	51.032100134	"7"	591.600261667	589.546034613	1.5	0.1
0.01	1	0.00459695000000693	1	87	NA	52.96794051	0	0.22	1.03	1	51.261109629	51.265706579	"7"	591.600261667	589.546034613	1.5	0.1
0.01	1	0.00328688999999827	1	87	NA	52.96794051	0	0.22	1.03	1	51.494695986	51.497982876	"7"	591.600261667	589.546034613	1.5	0.1
0.01	1	0.00218864400000029	1	87	NA	52.96794051	0	0.22	1.03	1	51.728468256	51.7306569	"7"	591.600261667	589.546034613	1.5	0.1
0.01	1	0.00458205000001044	1	87	NA	52.96794051	0	0.22	1.03	1	51.962216234	51.966798284	"7"	591.600261667	589.546034613	1.5	0.1
0.01	1	0.00337765999998396	1	87	NA	52.96794051	0	0.22	1.03	1	52.195915964	52.199293624	"7"	591.600261667	589.546034613	1.5	0.1
0.01	1	0.00434664499999826	1	87	NA	52.96794051	0	0.22	1.03	1	52.429584506	52.433931151	"7"	591.600261667	589.546034613	1.5	0.1
0.01	1	0.302818488999975	2	87	NA	52.96794051	0	0.22	1.03	1	52.663427894	52.966246383	"7"	591.600261667	589.546034613	1.5	0.1
0.01	1	0.00399545899998088	1	6	NA	56.055536431	0	0.04	1.07	1	55.017348431	55.02134389	"8"	591.600261667	589.546034613	1.5	0.1
0.01	1	0.00424986699999863	1	6	NA	56.055536431	0	0.04	1.07	1	55.251039819	55.255289686	"8"	591.600261667	589.546034613	1.5	0.1
0.01	1	0.00340788700000871	1	6	NA	56.055536431	0	0.04	1.07	1	55.484719549	55.488127436	"8"	591.600261667	589.546034613	1.5	0.1
0.01	1	0.00373796200000243	1	6	NA	56.055536431	0	0.04	1.07	1	55.718449054	55.722187016	"8"	591.600261667	589.546034613	1.5	0.1
0.01	1	0.101704319999982	2	6	NA	56.055536431	0	0.04	1.07	1	55.952142034	56.053846354	"8"	591.600261667	589.546034613	1.5	0.1
0.01	1	0.21926857599999	1	106	NA	58.760210659	0	0.01	1.08	1	58.105806104	58.32507468	"9"	591.600261667	589.546034613	1.5	0.1
0.01	1	0.201889993000009	2	106	NA	58.760210659	0	0.01	1.08	1	58.556610181	58.758500174	"9"	591.600261667	589.546034613	1.5	0.1
0.01	1	0.226708559000002	1	21	NA	61.846569754	0	0.02	1.1	1	60.810456172	61.037164731	"10"	591.600261667	589.546034613	1.5	0.1
0.01	1	0.217272008000009	1	21	NA	61.846569754	0	0.02	1.1	1	61.261216864	61.478488872	"10"	591.600261667	589.546034613	1.5	0.1
0.01	1	0.133127587999979	2	21	NA	61.846569754	0	0.02	1.1	1	61.711895544	61.845023132	"10"	591.600261667	589.546034613	1.5	0.1
0.01	1	16.211475272	1	19	84.419682009	NA	1	0	1.1	1	63.882224424	80.093699696	"11"	591.600261667	589.546034613	1.5	0.1
0.01	1	0.00361043699996344	1	19	84.419682009	NA	1	0	1.1	1	80.326519371	80.330129808	"11"	591.600261667	589.546034613	1.5	0.1
0.01	1	0.00379999800003361	1	19	84.419682009	NA	1	0	1.1	1	80.560337244	80.564137242	"11"	591.600261667	589.546034613	1.5	0.1
0.01	1	0.00326716000000715	1	19	84.419682009	NA	1	0	1.1	1	80.794041186	80.797308346	"11"	591.600261667	589.546034613	1.5	0.1
0.01	1	0.003763269999979	1	19	84.419682009	NA	1	0	1.1	1	81.027670316	81.031433586	"11"	591.600261667	589.546034613	1.5	0.1
0.01	1	0.00383492600002455	1	19	84.419682009	NA	1	0	1.1	1	81.261496874	81.2653318	"11"	591.600261667	589.546034613	1.5	0.1
0.01	1	0.00389749400000028	1	19	84.419682009	NA	1	0	1.1	1	81.495183384	81.499080878	"11"	591.600261667	589.546034613	1.5	0.1
0.01	1	0.00444445699997686	1	19	84.419682009	NA	1	0	1.1	1	81.728951884	81.733396341	"11"	591.600261667	589.546034613	1.5	0.1
0.01	1	0.00459415999995372	1	19	84.419682009	NA	1	0	1.1	1	81.962603164	81.967197324	"11"	591.600261667	589.546034613	1.5	0.1
0.01	1	0.00351181499996756	1	19	84.419682009	NA	1	0	1.1	1	82.196444131	82.199955946	"11"	591.600261667	589.546034613	1.5	0.1
0.01	1	0.00336717500005079	1	19	84.419682009	NA	1	0	1.1	1	82.430156309	82.433523484	"11"	591.600261667	589.546034613	1.5	0.1
0.01	1	0.004599565000035	1	19	84.419682009	NA	1	0	1.1	1	82.663729419	82.668328984	"11"	591.600261667	589.546034613	1.5	0.1
0.01	1	0.00398003399999425	1	19	84.419682009	NA	1	0	1.1	1	82.897559404	82.901539438	"11"	591.600261667	589.546034613	1.5	0.1
0.01	1	0.00473298999997951	1	19	84.419682009	NA	1	0	1.1	1	83.131331744	83.136064734	"11"	591.600261667	589.546034613	1.5	0.1
0.01	1	0.00347760300002165	1	19	84.419682009	NA	1	0	1.1	1	83.364894831	83.368372434	"11"	591.600261667	589.546034613	1.5	0.1
0.01	1	0.00369149799996649	1	19	84.419682009	NA	1	0	1.1	1	83.598700046	83.602391544	"11"	591.600261667	589.546034613	1.5	0.1
0.01	1	0.0045520649999844	1	19	84.419682009	NA	1	0	1.1	1	83.832454229	83.837006294	"11"	591.600261667	589.546034613	1.5	0.1
0.01	1	0.00458244700001842	1	19	84.419682009	NA	1	0	1.1	1	84.066137824	84.070720271	"11"	591.600261667	589.546034613	1.5	0.1
0.01	1	0.00377976599997965	1	19	84.419682009	NA	1	0	1.1	1	84.299922404	84.30370217	"11"	591.600261667	589.546034613	1.5	0.1
0.01	1	0.00357908400002316	1	63	NA	90.656625046	0	0.16	1.26	1	86.453406314	86.456985398	"12"	591.600261667	589.546034613	1.5	0.1
0.01	1	0.00400833000003331	1	63	NA	90.656625046	0	0.16	1.26	1	86.687287504	86.691295834	"12"	591.600261667	589.546034613	1.5	0.1
0.01	1	0.00420789000003197	1	63	NA	90.656625046	0	0.16	1.26	1	86.920893449	86.925101339	"12"	591.600261667	589.546034613	1.5	0.1
0.01	1	0.00395189900001469	1	63	NA	90.656625046	0	0.16	1.26	1	87.154663761	87.15861566	"12"	591.600261667	589.546034613	1.5	0.1
0.01	1	0.00375576999999794	1	63	NA	90.656625046	0	0.16	1.26	1	87.388446896	87.392202666	"12"	591.600261667	589.546034613	1.5	0.1
0.01	1	0.0041540090000467	1	63	NA	90.656625046	0	0.16	1.26	1	87.622107149	87.626261158	"12"	591.600261667	589.546034613	1.5	0.1
0.01	1	0.00395766700000877	1	63	NA	90.656625046	0	0.16	1.26	1	87.855904709	87.859862376	"12"	591.600261667	589.546034613	1.5	0.1
0.01	1	0.00213265499996851	1	63	NA	90.656625046	0	0.16	1.26	1	88.089542659	88.091675314	"12"	591.600261667	589.546034613	1.5	0.1
0.01	1	0.00375624299999799	1	63	NA	90.656625046	0	0.16	1.26	1	88.323406139	88.327162382	"12"	591.600261667	589.546034613	1.5	0.1
0.01	1	0.00393384099999139	1	63	NA	90.656625046	0	0.16	1.26	1	88.557021959	88.5609558	"12"	591.600261667	589.546034613	1.5	0.1
0.01	1	0.00380201500001931	1	63	NA	90.656625046	0	0.16	1.26	1	88.790817279	88.794619294	"12"	591.600261667	589.546034613	1.5	0.1
0.01	1	0.00374258300001884	1	63	NA	90.656625046	0	0.16	1.26	1	89.024573859	89.028316442	"12"	591.600261667	589.546034613	1.5	0.1
0.01	1	0.00455504199999268	1	63	NA	90.656625046	0	0.16	1.26	1	89.258273114	89.262828156	"12"	591.600261667	589.546034613	1.5	0.1
0.01	1	0.00457511199999772	1	63	NA	90.656625046	0	0.16	1.26	1	89.491984344	89.496559456	"12"	591.600261667	589.546034613	1.5	0.1
0.01	1	0.00369231999997055	1	63	NA	90.656625046	0	0.16	1.26	1	89.725721484	89.729413804	"12"	591.600261667	589.546034613	1.5	0.1
0.01	1	0.00377279799999997	1	63	NA	90.656625046	0	0.16	1.26	1	89.959393084	89.963165882	"12"	591.600261667	589.546034613	1.5	0.1
0.01	1	0.461777527999971	2	63	NA	90.656625046	0	0.16	1.26	1	90.193169869	90.654947397	"12"	591.600261667	589.546034613	1.5	0.1
0.01	1	0.0135427850000269	1	54	NA	93.279187162	0	0.02	1.28	1	92.680752311	92.694295096	"13"	591.600261667	589.546034613	1.5	0.1
0.01	1	0.00462670500002105	1	54	NA	93.279187162	0	0.02	1.28	1	92.931030674	92.935657379	"13"	591.600261667	589.546034613	1.5	0.1
0.01	1	0.11279998699996	2	54	NA	93.279187162	0	0.02	1.28	1	93.164778649	93.277578636	"13"	591.600261667	589.546034613	1.5	0.1
0.01	1	0.00459602499995526	1	103	NA	97.193920322	0	0.08	1.36	1	95.318349719	95.322945744	"14"	591.600261667	589.546034613	1.5	0.1
0.01	1	0.00321783200001846	1	103	NA	97.193920322	0	0.08	1.36	1	95.552190522	95.555408354	"14"	591.600261667	589.546034613	1.5	0.1
0.01	1	0.00390016500000456	1	103	NA	97.193920322	0	0.08	1.36	1	95.785917059	95.789817224	"14"	591.600261667	589.546034613	1.5	0.1
0.01	1	0.00331572500004995	1	103	NA	97.193920322	0	0.08	1.36	1	96.019536471	96.022852196	"14"	591.600261667	589.546034613	1.5	0.1
0.01	1	0.00345697199998085	1	103	NA	97.193920322	0	0.08	1.36	1	96.253350756	96.256807728	"14"	591.600261667	589.546034613	1.5	0.1
0.01	1	0.00391572900002757	1	103	NA	97.193920322	0	0.08	1.36	1	96.487089819	96.491005548	"14"	591.600261667	589.546034613	1.5	0.1
0.01	1	0.00465251999997918	1	103	NA	97.193920322	0	0.08	1.36	1	96.720743684	96.725396204	"14"	591.600261667	589.546034613	1.5	0.1
0.01	1	0.00385034299995368	1	103	NA	97.193920322	0	0.08	1.36	1	96.954464021	96.958314364	"14"	591.600261667	589.546034613	1.5	0.1
0.01	1	0.00385872999999037	2	103	NA	97.193920322	0	0.08	1.36	1	97.188251374	97.192110104	"14"	591.600261667	589.546034613	1.5	0.1
0.01	1	0.0039745579999817	1	120	NA	106.065189714	0	0.28	1.64	1	99.225008644	99.228983202	"15"	591.600261667	589.546034613	1.5	0.1
0.01	1	0.00386390199997777	1	120	NA	106.065189714	0	0.28	1.64	1	99.458791974	99.462655876	"15"	591.600261667	589.546034613	1.5	0.1
0.01	1	0.00315798000002587	1	120	NA	106.065189714	0	0.28	1.64	1	99.69252228	99.69568026	"15"	591.600261667	589.546034613	1.5	0.1
0.01	1	0.0037943890000065	1	120	NA	106.065189714	0	0.28	1.64	1	99.926129961	99.92992435	"15"	591.600261667	589.546034613	1.5	0.1
0.01	1	0.00390211199999158	1	120	NA	106.065189714	0	0.28	1.64	1	100.159812206	100.163714318	"15"	591.600261667	589.546034613	1.5	0.1
0.01	1	0.0041331699999887	1	120	NA	106.065189714	0	0.28	1.64	1	100.393680706	100.397813876	"15"	591.600261667	589.546034613	1.5	0.1
0.01	1	0.00455993999997872	1	120	NA	106.065189714	0	0.28	1.64	1	100.627343369	100.631903309	"15"	591.600261667	589.546034613	1.5	0.1
0.01	1	0.00338707700001351	1	120	NA	106.065189714	0	0.28	1.64	1	100.861106201	100.864493278	"15"	591.600261667	589.546034613	1.5	0.1
0.01	1	0.00386696900000061	1	120	NA	106.065189714	0	0.28	1.64	1	101.094840601	101.09870757	"15"	591.600261667	589.546034613	1.5	0.1
0.01	1	0.00385781500000348	1	120	NA	106.065189714	0	0.28	1.64	1	101.328438031	101.332295846	"15"	591.600261667	589.546034613	1.5	0.1
0.01	1	0.00384831299999178	1	120	NA	106.065189714	0	0.28	1.64	1	101.562227079	101.566075392	"15"	591.600261667	589.546034613	1.5	0.1
0.01	1	0.00386906599999293	1	120	NA	106.065189714	0	0.28	1.64	1	101.795959244	101.79982831	"15"	591.600261667	589.546034613	1.5	0.1
0.01	1	0.00328578400001334	1	120	NA	106.065189714	0	0.28	1.64	1	102.029627754	102.032913538	"15"	591.600261667	589.546034613	1.5	0.1
0.01	1	0.0033375749999891	1	120	NA	106.065189714	0	0.28	1.64	1	102.263381019	102.266718594	"15"	591.600261667	589.546034613	1.5	0.1
0.01	1	0.00455094000000145	1	120	NA	106.065189714	0	0.28	1.64	1	102.497160154	102.501711094	"15"	591.600261667	589.546034613	1.5	0.1
0.01	1	0.00402425599997969	1	120	NA	106.065189714	0	0.28	1.64	1	102.730917136	102.734941392	"15"	591.600261667	589.546034613	1.5	0.1
0.01	1	0.00464653499994938	1	120	NA	106.065189714	0	0.28	1.64	1	102.964542109	102.969188644	"15"	591.600261667	589.546034613	1.5	0.1
0.01	1	0.00331012599997393	1	120	NA	106.065189714	0	0.28	1.64	1	103.198342402	103.201652528	"15"	591.600261667	589.546034613	1.5	0.1
0.01	1	0.00329446199998529	1	120	NA	106.065189714	0	0.28	1.64	1	103.432046876	103.435341338	"15"	591.600261667	589.546034613	1.5	0.1
0.01	1	0.00456119000000399	1	120	NA	106.065189714	0	0.28	1.64	1	103.665758684	103.670319874	"15"	591.600261667	589.546034613	1.5	0.1
0.01	1	0.00425809899996921	1	120	NA	106.065189714	0	0.28	1.64	1	103.89951237	103.903770469	"15"	591.600261667	589.546034613	1.5	0.1
0.01	1	0.00394268100001227	1	120	NA	106.065189714	0	0.28	1.64	1	104.133251931	104.137194612	"15"	591.600261667	589.546034613	1.5	0.1
0.01	1	0.00329835399998046	1	120	NA	106.065189714	0	0.28	1.64	1	104.36697763	104.370275984	"15"	591.600261667	589.546034613	1.5	0.1
0.01	1	0.00400385799997593	1	120	NA	106.065189714	0	0.28	1.64	1	104.600703014	104.604706872	"15"	591.600261667	589.546034613	1.5	0.1
0.01	1	0.00427397599997903	1	120	NA	106.065189714	0	0.28	1.64	1	104.83447494	104.838748916	"15"	591.600261667	589.546034613	1.5	0.1
0.01	1	0.00330876999998964	1	120	NA	106.065189714	0	0.28	1.64	1	105.06815596	105.07146473	"15"	591.600261667	589.546034613	1.5	0.1
0.01	1	0.00453688699997201	1	120	NA	106.065189714	0	0.28	1.64	1	105.301904684	105.306441571	"15"	591.600261667	589.546034613	1.5	0.1
0.01	1	0.0037032889999864	1	120	NA	106.065189714	0	0.28	1.64	1	105.535573151	105.53927644	"15"	591.600261667	589.546034613	1.5	0.1
0.01	1	0.294088657000032	3	120	NA	106.065189714	0	0.28	1.64	1	105.769360479	106.063449136	"15"	591.600261667	589.546034613	1.5	0.1
0.01	1	2.35488817100003	3	109	NA	110.446474985	0	0	1.64	1	108.089904414	110.444792585	"16"	591.600261667	589.546034613	1.5	0.1
0.01	1	0.49885236800003	NA	71	NA	112.997951022	0	0	1.64	1	112.497358669	112.996211037	"17"	591.600261667	589.546034613	1.5	0.1
0.01	1	0.00362932100000535	1	96	NA	125.486701383	0	0.44	2.08	1	115.051556989	115.05518631	"18"	591.600261667	589.546034613	1.5	0.1
0.01	1	0.00405971499998259	1	96	NA	125.486701383	0	0.44	2.08	1	115.285380963	115.289440678	"18"	591.600261667	589.546034613	1.5	0.1
0.01	1	0.00396538100000043	1	96	NA	125.486701383	0	0.44	2.08	1	115.519025291	115.522990672	"18"	591.600261667	589.546034613	1.5	0.1
0.01	1	0.00336528399998315	1	96	NA	125.486701383	0	0.44	2.08	1	115.752790522	115.756155806	"18"	591.600261667	589.546034613	1.5	0.1
0.01	1	0.00455868200003806	1	96	NA	125.486701383	0	0.44	2.08	1	115.986571159	115.991129841	"18"	591.600261667	589.546034613	1.5	0.1
0.01	1	0.00385316699998839	1	96	NA	125.486701383	0	0.44	2.08	1	116.220149931	116.224003098	"18"	591.600261667	589.546034613	1.5	0.1
0.01	1	0.00395175500000278	1	96	NA	125.486701383	0	0.44	2.08	1	116.453971519	116.457923274	"18"	591.600261667	589.546034613	1.5	0.1
0.01	1	0.00440324400000236	1	96	NA	125.486701383	0	0.44	2.08	1	116.68771102	116.692114264	"18"	591.600261667	589.546034613	1.5	0.1
0.01	1	0.0039254989999904	1	96	NA	125.486701383	0	0.44	2.08	1	116.921385131	116.92531063	"18"	591.600261667	589.546034613	1.5	0.1
0.01	1	0.00369349300001431	1	96	NA	125.486701383	0	0.44	2.08	1	117.155069391	117.158762884	"18"	591.600261667	589.546034613	1.5	0.1
0.01	1	0.00401531300002489	1	96	NA	125.486701383	0	0.44	2.08	1	117.389118591	117.393133904	"18"	591.600261667	589.546034613	1.5	0.1
0.01	1	0.00404146399995398	1	96	NA	125.486701383	0	0.44	2.08	1	117.622667914	117.626709378	"18"	591.600261667	589.546034613	1.5	0.1
0.01	1	0.00400431599996409	1	96	NA	125.486701383	0	0.44	2.08	1	117.856435834	117.86044015	"18"	591.600261667	589.546034613	1.5	0.1
0.01	1	0.00337870800001383	1	96	NA	125.486701383	0	0.44	2.08	1	118.090066746	118.093445454	"18"	591.600261667	589.546034613	1.5	0.1
0.01	1	0.00366703700001381	1	96	NA	125.486701383	0	0.44	2.08	1	118.323742589	118.327409626	"18"	591.600261667	589.546034613	1.5	0.1
0.01	1	0.0039278309999986	1	96	NA	125.486701383	0	0.44	2.08	1	118.557529201	118.561457032	"18"	591.600261667	589.546034613	1.5	0.1
0.01	1	0.00437162999998009	1	96	NA	125.486701383	0	0.44	2.08	1	118.791244306	118.795615936	"18"	591.600261667	589.546034613	1.5	0.1
0.01	1	0.00376357400000416	1	96	NA	125.486701383	0	0.44	2.08	1	119.024880544	119.028644118	"18"	591.600261667	589.546034613	1.5	0.1
0.01	1	0.00460203000000092	1	96	NA	125.486701383	0	0.44	2.08	1	119.258738399	119.263340429	"18"	591.600261667	589.546034613	1.5	0.1
0.01	1	0.00381940100004385	1	96	NA	125.486701383	0	0.44	2.08	1	119.492354531	119.496173932	"18"	591.600261667	589.546034613	1.5	0.1
0.01	1	0.00373927300000787	1	96	NA	125.486701383	0	0.44	2.08	1	119.726135059	119.729874332	"18"	591.600261667	589.546034613	1.5	0.1
0.01	1	0.00376603000000841	1	96	NA	125.486701383	0	0.44	2.08	1	119.959864736	119.963630766	"18"	591.600261667	589.546034613	1.5	0.1
0.01	1	0.00459357199997612	1	96	NA	125.486701383	0	0.44	2.08	1	120.193655449	120.198249021	"18"	591.600261667	589.546034613	1.5	0.1
0.01	1	0.00327527400003191	1	96	NA	125.486701383	0	0.44	2.08	1	120.427314218	120.430589492	"18"	591.600261667	589.546034613	1.5	0.1
0.01	1	0.00387759000000187	1	96	NA	125.486701383	0	0.44	2.08	1	120.661037174	120.664914764	"18"	591.600261667	589.546034613	1.5	0.1
0.01	1	0.00381844800000408	1	96	NA	125.486701383	0	0.44	2.08	1	120.894782876	120.898601324	"18"	591.600261667	589.546034613	1.5	0.1
0.01	1	0.00459705200000826	1	96	NA	125.486701383	0	0.44	2.08	1	121.128603219	121.133200271	"18"	591.600261667	589.546034613	1.5	0.1
0.01	1	0.00384609100001398	1	96	NA	125.486701383	0	0.44	2.08	1	121.362183039	121.36602913	"18"	591.600261667	589.546034613	1.5	0.1
0.01	1	0.00332952499996964	1	96	NA	125.486701383	0	0.44	2.08	1	121.595921329	121.599250854	"18"	591.600261667	589.546034613	1.5	0.1
0.01	1	0.00388268300002892	1	96	NA	125.486701383	0	0.44	2.08	1	121.829664891	121.833547574	"18"	591.600261667	589.546034613	1.5	0.1
0.01	1	0.00366412600004651	1	96	NA	125.486701383	0	0.44	2.08	1	122.063399684	122.06706381	"18"	591.600261667	589.546034613	1.5	0.1
0.01	1	0.00459152799999174	1	96	NA	125.486701383	0	0.44	2.08	1	122.297111213	122.301702741	"18"	591.600261667	589.546034613	1.5	0.1
0.01	1	0.00395886500001552	1	96	NA	125.486701383	0	0.44	2.08	1	122.530896509	122.534855374	"18"	591.600261667	589.546034613	1.5	0.1
0.01	1	0.00366845500002455	1	96	NA	125.486701383	0	0.44	2.08	1	122.764615429	122.768283884	"18"	591.600261667	589.546034613	1.5	0.1
0.01	1	0.00458983499999022	1	96	NA	125.486701383	0	0.44	2.08	1	122.998377919	123.002967754	"18"	591.600261667	589.546034613	1.5	0.1
0.01	1	0.00434006099999351	1	96	NA	125.486701383	0	0.44	2.08	1	123.232075623	123.236415684	"18"	591.600261667	589.546034613	1.5	0.1
0.01	1	0.00393988700000136	1	96	NA	125.486701383	0	0.44	2.08	1	123.465830311	123.469770198	"18"	591.600261667	589.546034613	1.5	0.1
0.01	1	0.00341793000001189	1	96	NA	125.486701383	0	0.44	2.08	1	123.69952263	123.70294056	"18"	591.600261667	589.546034613	1.5	0.1
0.01	1	0.00361940100003721	1	96	NA	125.486701383	0	0.44	2.08	1	123.933149809	123.93676921	"18"	591.600261667	589.546034613	1.5	0.1
0.01	1	0.00378048099997841	1	96	NA	125.486701383	0	0.44	2.08	1	124.166970271	124.170750752	"18"	591.600261667	589.546034613	1.5	0.1
0.01	1	0.00424615000002859	1	96	NA	125.486701383	0	0.44	2.08	1	124.400646759	124.404892909	"18"	591.600261667	589.546034613	1.5	0.1
0.01	1	0.00197382900000775	1	96	NA	125.486701383	0	0.44	2.08	1	124.634318038	124.636291867	"18"	591.600261667	589.546034613	1.5	0.1
0.01	1	0.00351381599995193	1	96	NA	125.486701383	0	0.44	2.08	1	124.868041836	124.871555652	"18"	591.600261667	589.546034613	1.5	0.1
0.01	1	0.00387022600000364	1	96	NA	125.486701383	0	0.44	2.08	1	125.101806484	125.10567671	"18"	591.600261667	589.546034613	1.5	0.1
0.01	1	0.149353712999982	2	96	NA	125.486701383	0	0.44	2.08	1	125.335626641	125.484980354	"18"	591.600261667	589.546034613	1.5	0.1
0.01	1	0.945905802000027	1	91	NA	136.038420896	0	0.32	2.4	1	127.522529664	128.468435466	"19"	591.600261667	589.546034613	1.5	0.1
0.01	1	0.00330149000001256	1	91	NA	136.038420896	0	0.32	2.4	1	128.707938114	128.711239604	"19"	591.600261667	589.546034613	1.5	0.1
0.01	1	0.00394022999995514	1	91	NA	136.038420896	0	0.32	2.4	1	128.941620744	128.945560974	"19"	591.600261667	589.546034613	1.5	0.1
0.01	1	0.00348562300001731	1	91	NA	136.038420896	0	0.32	2.4	1	129.175450039	129.178935662	"19"	591.600261667	589.546034613	1.5	0.1
0.01	1	0.00392646099999183	1	91	NA	136.038420896	0	0.32	2.4	1	129.409115101	129.413041562	"19"	591.600261667	589.546034613	1.5	0.1
0.01	1	0.00366068499999983	1	91	NA	136.038420896	0	0.32	2.4	1	129.642797571	129.646458256	"19"	591.600261667	589.546034613	1.5	0.1
0.01	1	0.00389316000001827	1	91	NA	136.038420896	0	0.32	2.4	1	129.876599054	129.880492214	"19"	591.600261667	589.546034613	1.5	0.1
0.01	1	0.00392462700000351	1	91	NA	136.038420896	0	0.32	2.4	1	130.110189041	130.114113668	"19"	591.600261667	589.546034613	1.5	0.1
0.01	1	0.00381236000004037	1	91	NA	136.038420896	0	0.32	2.4	1	130.344047226	130.347859586	"19"	591.600261667	589.546034613	1.5	0.1
0.01	1	0.00377539900000556	1	91	NA	136.038420896	0	0.32	2.4	1	130.577745409	130.581520808	"19"	591.600261667	589.546034613	1.5	0.1
0.01	1	0.0037715629999866	1	91	NA	136.038420896	0	0.32	2.4	1	130.811452129	130.815223692	"19"	591.600261667	589.546034613	1.5	0.1
0.01	1	0.00358819699999913	1	91	NA	136.038420896	0	0.32	2.4	1	131.045260959	131.048849156	"19"	591.600261667	589.546034613	1.5	0.1
0.01	1	0.0037238539999862	1	91	NA	136.038420896	0	0.32	2.4	1	131.278964276	131.28268813	"19"	591.600261667	589.546034613	1.5	0.1
0.01	1	0.00338113700001941	1	91	NA	136.038420896	0	0.32	2.4	1	131.512666851	131.516047988	"19"	591.600261667	589.546034613	1.5	0.1
0.01	1	0.00356225600000926	1	91	NA	136.038420896	0	0.32	2.4	1	131.746300114	131.74986237	"19"	591.600261667	589.546034613	1.5	0.1
0.01	1	0.00359322499997461	1	91	NA	136.038420896	0	0.32	2.4	1	131.980050149	131.983643374	"19"	591.600261667	589.546034613	1.5	0.1
0.01	1	0.00346122500002366	1	91	NA	136.038420896	0	0.32	2.4	1	132.213781489	132.217242714	"19"	591.600261667	589.546034613	1.5	0.1
0.01	1	0.00463158700000577	1	91	NA	136.038420896	0	0.32	2.4	1	132.447632504	132.452264091	"19"	591.600261667	589.546034613	1.5	0.1
0.01	1	0.00452200000000857	1	91	NA	136.038420896	0	0.32	2.4	1	132.681392489	132.685914489	"19"	591.600261667	589.546034613	1.5	0.1
0.01	1	0.00385678899999675	1	91	NA	136.038420896	0	0.32	2.4	1	132.914992679	132.918849468	"19"	591.600261667	589.546034613	1.5	0.1
0.01	1	0.00393029299999625	1	91	NA	136.038420896	0	0.32	2.4	1	133.148640531	133.152570824	"19"	591.600261667	589.546034613	1.5	0.1
0.01	1	0.00368985500000463	1	91	NA	136.038420896	0	0.32	2.4	1	133.382346181	133.386036036	"19"	591.600261667	589.546034613	1.5	0.1
0.01	1	0.00372530499998902	1	91	NA	136.038420896	0	0.32	2.4	1	133.616086871	133.619812176	"19"	591.600261667	589.546034613	1.5	0.1
0.01	1	0.00398888600000191	1	91	NA	136.038420896	0	0.32	2.4	1	133.849949456	133.853938342	"19"	591.600261667	589.546034613	1.5	0.1
0.01	1	0.00362846499996294	1	91	NA	136.038420896	0	0.32	2.4	1	134.083586661	134.087215126	"19"	591.600261667	589.546034613	1.5	0.1
0.01	1	0.00397627299997794	1	91	NA	136.038420896	0	0.32	2.4	1	134.317327431	134.321303704	"19"	591.600261667	589.546034613	1.5	0.1
0.01	1	0.00388184100000899	1	91	NA	136.038420896	0	0.32	2.4	1	134.550992341	134.554874182	"19"	591.600261667	589.546034613	1.5	0.1
0.01	1	0.00390921100000696	1	91	NA	136.038420896	0	0.32	2.4	1	134.784774571	134.788683782	"19"	591.600261667	589.546034613	1.5	0.1
0.01	1	0.00207797500002016	1	91	NA	136.038420896	0	0.32	2.4	1	135.018474234	135.020552209	"19"	591.600261667	589.546034613	1.5	0.1
0.01	1	0.00380709000000934	1	91	NA	136.038420896	0	0.32	2.4	1	135.252245534	135.256052624	"19"	591.600261667	589.546034613	1.5	0.1
0.01	1	0.00419343200002231	1	91	NA	136.038420896	0	0.32	2.4	1	135.486008524	135.490201956	"19"	591.600261667	589.546034613	1.5	0.1
0.01	1	0.00380649000004496	1	91	NA	136.038420896	0	0.32	2.4	1	135.719743184	135.723549674	"19"	591.600261667	589.546034613	1.5	0.1
0.01	1	0.0831740610000224	2	91	NA	136.038420896	0	0.32	2.4	1	135.953561316	136.036735377	"19"	591.600261667	589.546034613	1.5	0.1
0.01	1	162.860420837	1	5	301.985563734	NA	1	0	2.4	1	138.073658309	300.934079146	"20"	591.600261667	589.546034613	1.5	0.1
0.01	1	0.00383888099997876	1	5	301.985563734	NA	1	0	2.4	1	301.164646059	301.16848494	"20"	591.600261667	589.546034613	1.5	0.1
0.01	1	0.00377903499997956	1	5	301.985563734	NA	1	0	2.4	1	301.398370889	301.402149924	"20"	591.600261667	589.546034613	1.5	0.1
0.01	1	0.00391731300004494	1	5	301.985563734	NA	1	0	2.4	1	301.632077591	301.635994904	"20"	591.600261667	589.546034613	1.5	0.1
0.01	1	0.00373720900000762	1	5	301.985563734	NA	1	0	2.4	1	301.865854931	301.86959214	"20"	591.600261667	589.546034613	1.5	0.1
0.01	1	0.0039897240000073	1	123	NA	308.087179122	0	0.16	2.56	1	304.019368616	304.02335834	"21"	591.600261667	589.546034613	1.5	0.1
0.01	1	0.00453245199997809	1	123	NA	308.087179122	0	0.16	2.56	1	304.253354562	304.257887014	"21"	591.600261667	589.546034613	1.5	0.1
0.01	1	0.00321184400002039	1	123	NA	308.087179122	0	0.16	2.56	1	304.486850392	304.490062236	"21"	591.600261667	589.546034613	1.5	0.1
0.01	1	0.00364604499998222	1	123	NA	308.087179122	0	0.16	2.56	1	304.720529929	304.724175974	"21"	591.600261667	589.546034613	1.5	0.1
0.01	1	0.00377341799998021	1	123	NA	308.087179122	0	0.16	2.56	1	304.954319664	304.958093082	"21"	591.600261667	589.546034613	1.5	0.1
0.01	1	0.00386329100001603	1	123	NA	308.087179122	0	0.16	2.56	1	305.188064111	305.191927402	"21"	591.600261667	589.546034613	1.5	0.1
0.01	1	0.00374321299995017	1	123	NA	308.087179122	0	0.16	2.56	1	305.421853201	305.425596414	"21"	591.600261667	589.546034613	1.5	0.1
0.01	1	0.00331359599999814	1	123	NA	308.087179122	0	0.16	2.56	1	305.655591542	305.658905138	"21"	591.600261667	589.546034613	1.5	0.1
0.01	1	0.00371543200003543	1	123	NA	308.087179122	0	0.16	2.56	1	305.889176154	305.892891586	"21"	591.600261667	589.546034613	1.5	0.1
0.01	1	0.00436729200004038	1	123	NA	308.087179122	0	0.16	2.56	1	306.123158559	306.127525851	"21"	591.600261667	589.546034613	1.5	0.1
0.01	1	0.00377517900000157	1	123	NA	308.087179122	0	0.16	2.56	1	306.356586169	306.360361348	"21"	591.600261667	589.546034613	1.5	0.1
0.01	1	0.00391491999999971	1	123	NA	308.087179122	0	0.16	2.56	1	306.590466714	306.594381634	"21"	591.600261667	589.546034613	1.5	0.1
0.01	1	0.00330123399999138	1	123	NA	308.087179122	0	0.16	2.56	1	306.824182134	306.827483368	"21"	591.600261667	589.546034613	1.5	0.1
0.01	1	0.00332692200004203	1	123	NA	308.087179122	0	0.16	2.56	1	307.057890596	307.061217518	"21"	591.600261667	589.546034613	1.5	0.1
0.01	1	0.00432852799997363	1	123	NA	308.087179122	0	0.16	2.56	1	307.291668016	307.295996544	"21"	591.600261667	589.546034613	1.5	0.1
0.01	1	0.0038314330000162	1	123	NA	308.087179122	0	0.16	2.56	1	307.525348811	307.529180244	"21"	591.600261667	589.546034613	1.5	0.1
0.01	1	0.326484906000019	2	123	NA	308.087179122	0	0.16	2.56	1	307.75902988	308.085514786	"21"	591.600261667	589.546034613	1.5	0.1
0.01	1	0.00424005200000011	1	81	NA	314.806815662	0	0.2	2.76	1	310.113012629	310.117252681	"22"	591.600261667	589.546034613	1.5	0.1
0.01	1	0.00383681400001024	1	81	NA	314.806815662	0	0.2	2.76	1	310.346741436	310.35057825	"22"	591.600261667	589.546034613	1.5	0.1
0.01	1	0.00410236600004055	1	81	NA	314.806815662	0	0.2	2.76	1	310.580535796	310.584638162	"22"	591.600261667	589.546034613	1.5	0.1
0.01	1	0.00456955200002085	1	81	NA	314.806815662	0	0.2	2.76	1	310.814275979	310.818845531	"22"	591.600261667	589.546034613	1.5	0.1
0.01	1	0.00456380200000694	1	81	NA	314.806815662	0	0.2	2.76	1	311.047880729	311.052444531	"22"	591.600261667	589.546034613	1.5	0.1
0.01	1	0.00462524700003542	1	81	NA	314.806815662	0	0.2	2.76	1	311.281684724	311.286309971	"22"	591.600261667	589.546034613	1.5	0.1
0.01	1	0.00351742100002639	1	81	NA	314.806815662	0	0.2	2.76	1	311.515313639	311.51883106	"22"	591.600261667	589.546034613	1.5	0.1
0.01	1	0.00385731400001532	1	81	NA	314.806815662	0	0.2	2.76	1	311.749094824	311.752952138	"22"	591.600261667	589.546034613	1.5	0.1
0.01	1	0.00378696500001752	1	81	NA	314.806815662	0	0.2	2.76	1	311.982803479	311.986590444	"22"	591.600261667	589.546034613	1.5	0.1
0.01	1	0.00374001799997359	1	81	NA	314.806815662	0	0.2	2.76	1	312.216545466	312.220285484	"22"	591.600261667	589.546034613	1.5	0.1
0.01	1	0.00351301400002058	1	81	NA	314.806815662	0	0.2	2.76	1	312.450324894	312.453837908	"22"	591.600261667	589.546034613	1.5	0.1
0.01	1	0.00323668599997973	1	81	NA	314.806815662	0	0.2	2.76	1	312.683990492	312.687227178	"22"	591.600261667	589.546034613	1.5	0.1
0.01	1	0.00394676799999161	1	81	NA	314.806815662	0	0.2	2.76	1	312.917721336	312.921668104	"22"	591.600261667	589.546034613	1.5	0.1
0.01	1	0.00429150100001152	1	81	NA	314.806815662	0	0.2	2.76	1	313.15148917	313.155780671	"22"	591.600261667	589.546034613	1.5	0.1
0.01	1	0.00390515099996946	1	81	NA	314.806815662	0	0.2	2.76	1	313.385151021	313.389056172	"22"	591.600261667	589.546034613	1.5	0.1
0.01	1	0.00397017199998118	1	81	NA	314.806815662	0	0.2	2.76	1	313.618917854	313.622888026	"22"	591.600261667	589.546034613	1.5	0.1
0.01	1	0.00348685400001614	1	81	NA	314.806815662	0	0.2	2.76	1	313.852650504	313.856137358	"22"	591.600261667	589.546034613	1.5	0.1
0.01	1	0.00389977200001113	1	81	NA	314.806815662	0	0.2	2.76	1	314.086315464	314.090215236	"22"	591.600261667	589.546034613	1.5	0.1
0.01	1	0.00392999299998564	1	81	NA	314.806815662	0	0.2	2.76	1	314.320037901	314.323967894	"22"	591.600261667	589.546034613	1.5	0.1
0.01	1	0.00431945799999767	1	81	NA	314.806815662	0	0.2	2.76	1	314.553748973	314.558068431	"22"	591.600261667	589.546034613	1.5	0.1
0.01	1	0.0175241809999989	2	81	NA	314.806815662	0	0.2	2.76	1	314.787593131	314.805117312	"22"	591.600261667	589.546034613	1.5	0.1
0.01	1	0.428058037000028	1	117	NA	324.423454988	0	0.3	3.06	1	316.857670752	317.285728789	"23"	591.600261667	589.546034613	1.5	0.1
0.01	1	0.00396973599998773	1	117	NA	324.423454988	0	0.3	3.06	1	317.525477754	317.52944749	"23"	591.600261667	589.546034613	1.5	0.1
0.01	1	0.00462620700000116	1	117	NA	324.423454988	0	0.3	3.06	1	317.759226224	317.763852431	"23"	591.600261667	589.546034613	1.5	0.1
0.01	1	0.00376206199996432	1	117	NA	324.423454988	0	0.3	3.06	1	317.992933074	317.996695136	"23"	591.600261667	589.546034613	1.5	0.1
0.01	1	0.00391234999995049	1	117	NA	324.423454988	0	0.3	3.06	1	318.226633374	318.230545724	"23"	591.600261667	589.546034613	1.5	0.1
0.01	1	0.00383698899997853	1	117	NA	324.423454988	0	0.3	3.06	1	318.460303541	318.46414053	"23"	591.600261667	589.546034613	1.5	0.1
0.01	1	0.00461822699992354	1	117	NA	324.423454988	0	0.3	3.06	1	318.694139239	318.698757466	"23"	591.600261667	589.546034613	1.5	0.1
0.01	1	0.00455377000002954	1	117	NA	324.423454988	0	0.3	3.06	1	318.927802819	318.932356589	"23"	591.600261667	589.546034613	1.5	0.1
0.01	1	0.00457662199994502	1	117	NA	324.423454988	0	0.3	3.06	1	319.161707889	319.166284511	"23"	591.600261667	589.546034613	1.5	0.1
0.01	1	0.00456366699995669	1	117	NA	324.423454988	0	0.3	3.06	1	319.395295184	319.399858851	"23"	591.600261667	589.546034613	1.5	0.1
0.01	1	0.0033389199999192	1	117	NA	324.423454988	0	0.3	3.06	1	319.629000652	319.632339572	"23"	591.600261667	589.546034613	1.5	0.1
0.01	1	0.00387428800001999	1	117	NA	324.423454988	0	0.3	3.06	1	319.862649674	319.866523962	"23"	591.600261667	589.546034613	1.5	0.1
0.01	1	0.00456810999992285	1	117	NA	324.423454988	0	0.3	3.06	1	320.096523754	320.101091864	"23"	591.600261667	589.546034613	1.5	0.1
0.01	1	0.0043408259999751	1	117	NA	324.423454988	0	0.3	3.06	1	320.33018701	320.334527836	"23"	591.600261667	589.546034613	1.5	0.1
0.01	1	0.00341889300000275	1	117	NA	324.423454988	0	0.3	3.06	1	320.563843339	320.567262232	"23"	591.600261667	589.546034613	1.5	0.1
0.01	1	0.00378830099998595	1	117	NA	324.423454988	0	0.3	3.06	1	320.797645709	320.80143401	"23"	591.600261667	589.546034613	1.5	0.1
0.01	1	0.00344992099996944	1	117	NA	324.423454988	0	0.3	3.06	1	321.031368101	321.034818022	"23"	591.600261667	589.546034613	1.5	0.1
0.01	1	0.00378819100001238	1	117	NA	324.423454988	0	0.3	3.06	1	321.265037319	321.26882551	"23"	591.600261667	589.546034613	1.5	0.1
0.01	1	0.00330689800000528	1	117	NA	324.423454988	0	0.3	3.06	1	321.498802378	321.502109276	"23"	591.600261667	589.546034613	1.5	0.1
0.01	1	0.00442108000004282	1	117	NA	324.423454988	0	0.3	3.06	1	321.732547814	321.736968894	"23"	591.600261667	589.546034613	1.5	0.1
0.01	1	0.00377114000002621	1	117	NA	324.423454988	0	0.3	3.06	1	321.966297544	321.970068684	"23"	591.600261667	589.546034613	1.5	0.1
0.01	1	0.00382648400000107	1	117	NA	324.423454988	0	0.3	3.06	1	322.199937084	322.203763568	"23"	591.600261667	589.546034613	1.5	0.1
0.01	1	0.00217444899999464	1	117	NA	324.423454988	0	0.3	3.06	1	322.433693522	322.435867971	"23"	591.600261667	589.546034613	1.5	0.1
0.01	1	0.00454264699999385	1	117	NA	324.423454988	0	0.3	3.06	1	322.667479924	322.672022571	"23"	591.600261667	589.546034613	1.5	0.1
0.01	1	0.00363596700003654	1	117	NA	324.423454988	0	0.3	3.06	1	322.901130621	322.904766588	"23"	591.600261667	589.546034613	1.5	0.1
0.01	1	0.00398718600001757	1	117	NA	324.423454988	0	0.3	3.06	1	323.134831936	323.138819122	"23"	591.600261667	589.546034613	1.5	0.1
0.01	1	0.00464208500000041	1	117	NA	324.423454988	0	0.3	3.06	1	323.368680619	323.373322704	"23"	591.600261667	589.546034613	1.5	0.1
0.01	1	0.00365887299994938	1	117	NA	324.423454988	0	0.3	3.06	1	323.602277499	323.605936372	"23"	591.600261667	589.546034613	1.5	0.1
0.01	1	0.00351611299993237	1	117	NA	324.423454988	0	0.3	3.06	1	323.836093909	323.839610022	"23"	591.600261667	589.546034613	1.5	0.1
0.01	1	0.00387371799990888	1	117	NA	324.423454988	0	0.3	3.06	1	324.069783514	324.073657232	"23"	591.600261667	589.546034613	1.5	0.1
0.01	1	0.118209527999966	2	117	NA	324.423454988	0	0.3	3.06	1	324.303571154	324.421780682	"23"	591.600261667	589.546034613	1.5	0.1
0.01	1	0.00367026100002477	1	84	NA	340.279407995	0	0.57	3.63	1	326.473817461	326.477487722	"24"	591.600261667	589.546034613	1.5	0.1
0.01	1	0.00530435300004228	1	84	NA	340.279407995	0	0.57	3.63	1	326.707624711	326.712929064	"24"	591.600261667	589.546034613	1.5	0.1
0.01	1	0.00380018000009841	1	84	NA	340.279407995	0	0.57	3.63	1	326.941299344	326.945099524	"24"	591.600261667	589.546034613	1.5	0.1
0.01	1	0.00344210499997644	1	84	NA	340.279407995	0	0.57	3.63	1	327.175015559	327.178457664	"24"	591.600261667	589.546034613	1.5	0.1
0.01	1	0.00389250399996399	1	84	NA	340.279407995	0	0.57	3.63	1	327.408760416	327.41265292	"24"	591.600261667	589.546034613	1.5	0.1
0.01	1	0.0045920270000579	1	84	NA	340.279407995	0	0.57	3.63	1	327.642605409	327.647197436	"24"	591.600261667	589.546034613	1.5	0.1
0.01	1	0.00429275600004075	1	84	NA	340.279407995	0	0.57	3.63	1	327.876290153	327.880582909	"24"	591.600261667	589.546034613	1.5	0.1
0.01	1	0.00334546399994906	1	84	NA	340.279407995	0	0.57	3.63	1	328.109878038	328.113223502	"24"	591.600261667	589.546034613	1.5	0.1
0.01	1	0.00456453499998588	1	84	NA	340.279407995	0	0.57	3.63	1	328.343747314	328.348311849	"24"	591.600261667	589.546034613	1.5	0.1
0.01	1	0.00457567700004802	1	84	NA	340.279407995	0	0.57	3.63	1	328.577378274	328.581953951	"24"	591.600261667	589.546034613	1.5	0.1
0.01	1	0.0032514980000542	1	84	NA	340.279407995	0	0.57	3.63	1	328.811084996	328.814336494	"24"	591.600261667	589.546034613	1.5	0.1
0.01	1	0.00318405199993776	1	84	NA	340.279407995	0	0.57	3.63	1	329.044867122	329.048051174	"24"	591.600261667	589.546034613	1.5	0.1
0.01	1	0.00457944699996915	1	84	NA	340.279407995	0	0.57	3.63	1	329.278581644	329.283161091	"24"	591.600261667	589.546034613	1.5	0.1
0.01	1	0.00371711299999333	1	84	NA	340.279407995	0	0.57	3.63	1	329.512254729	329.515971842	"24"	591.600261667	589.546034613	1.5	0.1
0.01	1	0.00357016799989651	1	84	NA	340.279407995	0	0.57	3.63	1	329.746047304	329.749617472	"24"	591.600261667	589.546034613	1.5	0.1
0.01	1	0.0034659709999687	1	84	NA	340.279407995	0	0.57	3.63	1	329.979719971	329.983185942	"24"	591.600261667	589.546034613	1.5	0.1
0.01	1	0.00382359500008533	1	84	NA	340.279407995	0	0.57	3.63	1	330.213437819	330.217261414	"24"	591.600261667	589.546034613	1.5	0.1
0.01	1	0.0046515650000174	1	84	NA	340.279407995	0	0.57	3.63	1	330.447221389	330.451872954	"24"	591.600261667	589.546034613	1.5	0.1
0.01	1	0.00391596999998001	1	84	NA	340.279407995	0	0.57	3.63	1	330.680952274	330.684868244	"24"	591.600261667	589.546034613	1.5	0.1
0.01	1	0.00364885600004072	1	84	NA	340.279407995	0	0.57	3.63	1	330.914645654	330.91829451	"24"	591.600261667	589.546034613	1.5	0.1
0.01	1	0.00374328700002025	1	84	NA	340.279407995	0	0.57	3.63	1	331.148392421	331.152135708	"24"	591.600261667	589.546034613	1.5	0.1
0.01	1	0.00458026000001155	1	84	NA	340.279407995	0	0.57	3.63	1	331.382216714	331.386796974	"24"	591.600261667	589.546034613	1.5	0.1
0.01	1	0.00386057399998663	1	84	NA	340.279407995	0	0.57	3.63	1	331.615838854	331.619699428	"24"	591.600261667	589.546034613	1.5	0.1
0.01	1	0.00380124399998749	1	84	NA	340.279407995	0	0.57	3.63	1	331.849528396	331.85332964	"24"	591.600261667	589.546034613	1.5	0.1
0.01	1	0.00376830899995184	1	84	NA	340.279407995	0	0.57	3.63	1	332.083222619	332.086990928	"24"	591.600261667	589.546034613	1.5	0.1
0.01	1	0.00389993299995695	1	84	NA	340.279407995	0	0.57	3.63	1	332.316975531	332.320875464	"24"	591.600261667	589.546034613	1.5	0.1
0.01	1	0.00392576199999439	1	84	NA	340.279407995	0	0.57	3.63	1	332.550775824	332.554701586	"24"	591.600261667	589.546034613	1.5	0.1
0.01	1	0.00389740100001745	1	84	NA	340.279407995	0	0.57	3.63	1	332.784543661	332.788441062	"24"	591.600261667	589.546034613	1.5	0.1
0.01	1	0.00390934299991841	1	84	NA	340.279407995	0	0.57	3.63	1	333.018128141	333.022037484	"24"	591.600261667	589.546034613	1.5	0.1
0.01	1	0.00349214300001677	1	84	NA	340.279407995	0	0.57	3.63	1	333.251838549	333.255330692	"24"	591.600261667	589.546034613	1.5	0.1
0.01	1	0.00458709700001236	1	84	NA	340.279407995	0	0.57	3.63	1	333.485682124	333.490269221	"24"	591.600261667	589.546034613	1.5	0.1
0.01	1	0.00397485399992092	1	84	NA	340.279407995	0	0.57	3.63	1	333.719328716	333.72330357	"24"	591.600261667	589.546034613	1.5	0.1
0.01	1	0.00396714099997553	1	84	NA	340.279407995	0	0.57	3.63	1	333.953113369	333.95708051	"24"	591.600261667	589.546034613	1.5	0.1
0.01	1	0.00333030199999484	1	84	NA	340.279407995	0	0.57	3.63	1	334.186895658	334.19022596	"24"	591.600261667	589.546034613	1.5	0.1
0.01	1	0.00464692000002742	1	84	NA	340.279407995	0	0.57	3.63	1	334.420596314	334.425243234	"24"	591.600261667	589.546034613	1.5	0.1
0.01	1	0.00379665900004511	1	84	NA	340.279407995	0	0.57	3.63	1	334.654261209	334.658057868	"24"	591.600261667	589.546034613	1.5	0.1
0.01	1	0.00369770300005712	1	84	NA	340.279407995	0	0.57	3.63	1	334.887996449	334.891694152	"24"	591.600261667	589.546034613	1.5	0.1
0.01	1	0.00452340899994397	1	84	NA	340.279407995	0	0.57	3.63	1	335.12189235	335.126415759	"24"	591.600261667	589.546034613	1.5	0.1
0.01	1	0.0034704329999613	1	84	NA	340.279407995	0	0.57	3.63	1	335.355510541	335.358980974	"24"	591.600261667	589.546034613	1.5	0.1
0.01	1	0.00378118899993751	1	84	NA	340.279407995	0	0.57	3.63	1	335.589148881	335.59293007	"24"	591.600261667	589.546034613	1.5	0.1
0.01	1	0.00452663999999459	1	84	NA	340.279407995	0	0.57	3.63	1	335.822997109	335.827523749	"24"	591.600261667	589.546034613	1.5	0.1
0.01	1	0.0038538559999779	1	84	NA	340.279407995	0	0.57	3.63	1	336.056646704	336.06050056	"24"	591.600261667	589.546034613	1.5	0.1
0.01	1	0.00344895800003542	1	84	NA	340.279407995	0	0.57	3.63	1	336.290420146	336.293869104	"24"	591.600261667	589.546034613	1.5	0.1
0.01	1	0.00373263300002691	1	84	NA	340.279407995	0	0.57	3.63	1	336.524116261	336.527848894	"24"	591.600261667	589.546034613	1.5	0.1
0.01	1	0.00390452199997071	1	84	NA	340.279407995	0	0.57	3.63	1	336.757749704	336.761654226	"24"	591.600261667	589.546034613	1.5	0.1
0.01	1	0.00387578699996993	1	84	NA	340.279407995	0	0.57	3.63	1	336.991492159	336.995367946	"24"	591.600261667	589.546034613	1.5	0.1
0.01	1	0.00385889500000758	1	84	NA	340.279407995	0	0.57	3.63	1	337.225255391	337.229114286	"24"	591.600261667	589.546034613	1.5	0.1
0.01	1	0.0032607979999284	1	84	NA	340.279407995	0	0.57	3.63	1	337.459039916	337.462300714	"24"	591.600261667	589.546034613	1.5	0.1
0.01	1	0.00330906599992886	1	84	NA	340.279407995	0	0.57	3.63	1	337.69276204	337.696071106	"24"	591.600261667	589.546034613	1.5	0.1
0.01	1	0.00449845200000709	1	84	NA	340.279407995	0	0.57	3.63	1	337.926516819	337.931015271	"24"	591.600261667	589.546034613	1.5	0.1
0.01	1	0.00443355200002316	1	84	NA	340.279407995	0	0.57	3.63	1	338.160174149	338.164607701	"24"	591.600261667	589.546034613	1.5	0.1
0.01	1	0.00364537399991605	1	84	NA	340.279407995	0	0.57	3.63	1	338.393861856	338.39750723	"24"	591.600261667	589.546034613	1.5	0.1
0.01	1	0.00347234699995624	1	84	NA	340.279407995	0	0.57	3.63	1	338.627683581	338.631155928	"24"	591.600261667	589.546034613	1.5	0.1
0.01	1	0.00374956699999984	1	84	NA	340.279407995	0	0.57	3.63	1	338.861348079	338.865097646	"24"	591.600261667	589.546034613	1.5	0.1
0.01	1	0.00378723099993294	1	84	NA	340.279407995	0	0.57	3.63	1	339.095158939	339.09894617	"24"	591.600261667	589.546034613	1.5	0.1
0.01	1	0.0045591370000011	1	84	NA	340.279407995	0	0.57	3.63	1	339.328831764	339.333390901	"24"	591.600261667	589.546034613	1.5	0.1
0.01	1	0.00443016299993815	1	84	NA	340.279407995	0	0.57	3.63	1	339.562496396	339.566926559	"24"	591.600261667	589.546034613	1.5	0.1
0.01	1	0.481442658999981	2	84	NA	340.279407995	0	0.57	3.63	1	339.796282374	340.277725033	"24"	591.600261667	589.546034613	1.5	0.1
0.01	1	0.00419499899999209	1	22	347.345178316	NA	1	0	3.63	1	342.31710533	342.321300329	"25"	591.600261667	589.546034613	1.5	0.1
0.01	1	0.00388656500001616	1	22	347.345178316	NA	1	0	3.63	1	342.550930321	342.554816886	"25"	591.600261667	589.546034613	1.5	0.1
0.01	1	0.00463242499995431	1	22	347.345178316	NA	1	0	3.63	1	342.784586629	342.789219054	"25"	591.600261667	589.546034613	1.5	0.1
0.01	1	0.00399787699996068	1	22	347.345178316	NA	1	0	3.63	1	343.018366651	343.022364528	"25"	591.600261667	589.546034613	1.5	0.1
0.01	1	0.00386443299998973	1	22	347.345178316	NA	1	0	3.63	1	343.252047589	343.255912022	"25"	591.600261667	589.546034613	1.5	0.1
0.01	1	0.00453048499991837	1	22	347.345178316	NA	1	0	3.63	1	343.485901524	343.490432009	"25"	591.600261667	589.546034613	1.5	0.1
0.01	1	0.00332114399998318	1	22	347.345178316	NA	1	0	3.63	1	343.719522814	343.722843958	"25"	591.600261667	589.546034613	1.5	0.1
0.01	1	0.00356751799995436	1	22	347.345178316	NA	1	0	3.63	1	343.953206484	343.956774002	"25"	591.600261667	589.546034613	1.5	0.1
0.01	1	0.00371746399991935	1	22	347.345178316	NA	1	0	3.63	1	344.186968854	344.190686318	"25"	591.600261667	589.546034613	1.5	0.1
0.01	1	0.00372908700001062	1	22	347.345178316	NA	1	0	3.63	1	344.420758139	344.424487226	"25"	591.600261667	589.546034613	1.5	0.1
0.01	1	0.00449586500008081	1	22	347.345178316	NA	1	0	3.63	1	344.654458559	344.658954424	"25"	591.600261667	589.546034613	1.5	0.1
0.01	1	0.00398717300004137	1	22	347.345178316	NA	1	0	3.63	1	344.888113559	344.892100732	"25"	591.600261667	589.546034613	1.5	0.1
0.01	1	0.00325691199998346	1	22	347.345178316	NA	1	0	3.63	1	345.121894578	345.12515149	"25"	591.600261667	589.546034613	1.5	0.1
0.01	1	0.00397574300006909	1	22	347.345178316	NA	1	0	3.63	1	345.355587831	345.359563574	"25"	591.600261667	589.546034613	1.5	0.1
0.01	1	0.00396032800006196	1	22	347.345178316	NA	1	0	3.63	1	345.589342354	345.593302682	"25"	591.600261667	589.546034613	1.5	0.1
0.01	1	0.0037546780000639	1	22	347.345178316	NA	1	0	3.63	1	345.822983544	345.826738222	"25"	591.600261667	589.546034613	1.5	0.1
0.01	1	0.00384924300010425	1	22	347.345178316	NA	1	0	3.63	1	346.056734531	346.060583774	"25"	591.600261667	589.546034613	1.5	0.1
0.01	1	0.00400693300002786	1	22	347.345178316	NA	1	0	3.63	1	346.290438969	346.294445902	"25"	591.600261667	589.546034613	1.5	0.1
0.01	1	0.00393195500009824	1	22	347.345178316	NA	1	0	3.63	1	346.524214491	346.528146446	"25"	591.600261667	589.546034613	1.5	0.1
0.01	1	0.00380073299993455	1	22	347.345178316	NA	1	0	3.63	1	346.757952269	346.761753002	"25"	591.600261667	589.546034613	1.5	0.1
0.01	1	0.00342015499995796	1	22	347.345178316	NA	1	0	3.63	1	346.991662719	346.995082874	"25"	591.600261667	589.546034613	1.5	0.1
0.01	1	0.00339918100007708	1	22	347.345178316	NA	1	0	3.63	1	347.225365529	347.22876471	"25"	591.600261667	589.546034613	1.5	0.1
0.01	1	0.003925714999923	1	36	NA	355.495184433	0	0.25	3.88	1	349.378977281	349.382902996	"26"	591.600261667	589.546034613	1.5	0.1
0.01	1	0.00359454499994172	1	36	NA	355.495184433	0	0.25	3.88	1	349.612741599	349.616336144	"26"	591.600261667	589.546034613	1.5	0.1
0.01	1	0.00460979199999656	1	36	NA	355.495184433	0	0.25	3.88	1	349.846508219	349.851118011	"26"	591.600261667	589.546034613	1.5	0.1
0.01	1	0.0038822709999522	1	36	NA	355.495184433	0	0.25	3.88	1	350.080303241	350.084185512	"26"	591.600261667	589.546034613	1.5	0.1
0.01	1	0.00391310500003783	1	36	NA	355.495184433	0	0.25	3.88	1	350.313882971	350.317796076	"26"	591.600261667	589.546034613	1.5	0.1
0.01	1	0.00388913200004026	1	36	NA	355.495184433	0	0.25	3.88	1	350.547695624	350.551584756	"26"	591.600261667	589.546034613	1.5	0.1
0.01	1	0.00347928700000466	1	36	NA	355.495184433	0	0.25	3.88	1	350.781323059	350.784802346	"26"	591.600261667	589.546034613	1.5	0.1
0.01	1	0.0044628969999394	1	36	NA	355.495184433	0	0.25	3.88	1	351.015145024	351.019607921	"26"	591.600261667	589.546034613	1.5	0.1
0.01	1	0.00456263000000945	1	36	NA	355.495184433	0	0.25	3.88	1	351.248872579	351.253435209	"26"	591.600261667	589.546034613	1.5	0.1
0.01	1	0.00466455200000837	1	36	NA	355.495184433	0	0.25	3.88	1	351.482660279	351.487324831	"26"	591.600261667	589.546034613	1.5	0.1
0.01	1	0.00456203999999616	1	36	NA	355.495184433	0	0.25	3.88	1	351.716259904	351.720821944	"26"	591.600261667	589.546034613	1.5	0.1
0.01	1	0.00327332400001978	1	36	NA	355.495184433	0	0.25	3.88	1	351.950019106	351.95329243	"26"	591.600261667	589.546034613	1.5	0.1
0.01	1	0.00389003099996899	1	36	NA	355.495184433	0	0.25	3.88	1	352.183735421	352.187625452	"26"	591.600261667	589.546034613	1.5	0.1
0.01	1	0.00387312299994846	1	36	NA	355.495184433	0	0.25	3.88	1	352.417473561	352.421346684	"26"	591.600261667	589.546034613	1.5	0.1
0.01	1	0.00398739000002024	1	36	NA	355.495184433	0	0.25	3.88	1	352.651210916	352.655198306	"26"	591.600261667	589.546034613	1.5	0.1
0.01	1	0.00397874600002979	1	36	NA	355.495184433	0	0.25	3.88	1	352.885016634	352.88899538	"26"	591.600261667	589.546034613	1.5	0.1
0.01	1	0.00222097900007157	1	36	NA	355.495184433	0	0.25	3.88	1	353.118639972	353.120860951	"26"	591.600261667	589.546034613	1.5	0.1
0.01	1	0.00383885899998404	1	36	NA	355.495184433	0	0.25	3.88	1	353.352357369	353.356196228	"26"	591.600261667	589.546034613	1.5	0.1
0.01	1	0.00366209699996034	1	36	NA	355.495184433	0	0.25	3.88	1	353.586134849	353.589796946	"26"	591.600261667	589.546034613	1.5	0.1
0.01	1	0.003832338000052	1	36	NA	355.495184433	0	0.25	3.88	1	353.819763254	353.823595592	"26"	591.600261667	589.546034613	1.5	0.1
0.01	1	0.00357510699996055	1	36	NA	355.495184433	0	0.25	3.88	1	354.053518371	354.057093478	"26"	591.600261667	589.546034613	1.5	0.1
0.01	1	0.00390635099995507	1	36	NA	355.495184433	0	0.25	3.88	1	354.287189279	354.29109563	"26"	591.600261667	589.546034613	1.5	0.1
0.01	1	0.00396713300006013	1	36	NA	355.495184433	0	0.25	3.88	1	354.520992581	354.524959714	"26"	591.600261667	589.546034613	1.5	0.1
0.01	1	0.0039403159998983	1	36	NA	355.495184433	0	0.25	3.88	1	354.754824574	354.75876489	"26"	591.600261667	589.546034613	1.5	0.1
0.01	1	0.00387823099993057	1	36	NA	355.495184433	0	0.25	3.88	1	354.988533671	354.992411902	"26"	591.600261667	589.546034613	1.5	0.1
0.01	1	0.27131324100003	2	36	NA	355.495184433	0	0.25	3.88	1	355.222188849	355.49350209	"26"	591.600261667	589.546034613	1.5	0.1
0.01	1	0.446965303999946	1	124	NA	370.847761452	0	0.52	4.4	1	357.542757699	357.989723003	"27"	591.600261667	589.546034613	1.5	0.1
0.01	1	0.00390799599995262	1	124	NA	370.847761452	0	0.52	4.4	1	358.227322156	358.231230152	"27"	591.600261667	589.546034613	1.5	0.1
0.01	1	0.0045807669999931	1	124	NA	370.847761452	0	0.52	4.4	1	358.460980129	358.465560896	"27"	591.600261667	589.546034613	1.5	0.1
0.01	1	0.00374089700005698	1	124	NA	370.847761452	0	0.52	4.4	1	358.694636779	358.698377676	"27"	591.600261667	589.546034613	1.5	0.1
0.01	1	0.00454071199999362	1	124	NA	370.847761452	0	0.52	4.4	1	358.928465259	358.933005971	"27"	591.600261667	589.546034613	1.5	0.1
0.01	1	0.00336316099992473	1	124	NA	370.847761452	0	0.52	4.4	1	359.162191041	359.165554202	"27"	591.600261667	589.546034613	1.5	0.1
0.01	1	0.00398034700003791	1	124	NA	370.847761452	0	0.52	4.4	1	359.395828811	359.399809158	"27"	591.600261667	589.546034613	1.5	0.1
0.01	1	0.003813818000026	1	124	NA	370.847761452	0	0.52	4.4	1	359.629569264	359.633383082	"27"	591.600261667	589.546034613	1.5	0.1
0.01	1	0.00454567499991754	1	124	NA	370.847761452	0	0.52	4.4	1	359.863383544	359.867929219	"27"	591.600261667	589.546034613	1.5	0.1
0.01	1	0.00337112199997591	1	124	NA	370.847761452	0	0.52	4.4	1	360.097074354	360.100445476	"27"	591.600261667	589.546034613	1.5	0.1
0.01	1	0.00418297300006998	1	124	NA	370.847761452	0	0.52	4.4	1	360.330808093	360.334991066	"27"	591.600261667	589.546034613	1.5	0.1
0.01	1	0.003894518999914	1	124	NA	370.847761452	0	0.52	4.4	1	360.564489789	360.568384308	"27"	591.600261667	589.546034613	1.5	0.1
0.01	1	0.00389180999991368	1	124	NA	370.847761452	0	0.52	4.4	1	360.798223544	360.802115354	"27"	591.600261667	589.546034613	1.5	0.1
0.01	1	0.00456797999993341	1	124	NA	370.847761452	0	0.52	4.4	1	361.032001839	361.036569819	"27"	591.600261667	589.546034613	1.5	0.1
0.01	1	0.00455928700000641	1	124	NA	370.847761452	0	0.52	4.4	1	361.265741669	361.270300956	"27"	591.600261667	589.546034613	1.5	0.1
0.01	1	0.00440794799999367	1	124	NA	370.847761452	0	0.52	4.4	1	361.499423893	361.503831841	"27"	591.600261667	589.546034613	1.5	0.1
0.01	1	0.00432767500001319	1	124	NA	370.847761452	0	0.52	4.4	1	361.733291359	361.737619034	"27"	591.600261667	589.546034613	1.5	0.1
0.01	1	0.00381490799998119	1	124	NA	370.847761452	0	0.52	4.4	1	361.966887114	361.970702022	"27"	591.600261667	589.546034613	1.5	0.1
0.01	1	0.00338520699995115	1	124	NA	370.847761452	0	0.52	4.4	1	362.200606149	362.203991356	"27"	591.600261667	589.546034613	1.5	0.1
0.01	1	0.00453724999999849	1	124	NA	370.847761452	0	0.52	4.4	1	362.434412724	362.438949974	"27"	591.600261667	589.546034613	1.5	0.1
0.01	1	0.00386722899997949	1	124	NA	370.847761452	0	0.52	4.4	1	362.668093279	362.671960508	"27"	591.600261667	589.546034613	1.5	0.1
0.01	1	0.00399300699996274	1	124	NA	370.847761452	0	0.52	4.4	1	362.901794739	362.905787746	"27"	591.600261667	589.546034613	1.5	0.1
0.01	1	0.00347616299995934	1	124	NA	370.847761452	0	0.52	4.4	1	363.135492849	363.138969012	"27"	591.600261667	589.546034613	1.5	0.1
0.01	1	0.00370237799995721	1	124	NA	370.847761452	0	0.52	4.4	1	363.369325644	363.373028022	"27"	591.600261667	589.546034613	1.5	0.1
0.01	1	0.00363908199994967	1	124	NA	370.847761452	0	0.52	4.4	1	363.602891854	363.606530936	"27"	591.600261667	589.546034613	1.5	0.1
0.01	1	0.00382508399991366	1	124	NA	370.847761452	0	0.52	4.4	1	363.836636006	363.84046109	"27"	591.600261667	589.546034613	1.5	0.1
0.01	1	0.00399143699996785	1	124	NA	370.847761452	0	0.52	4.4	1	364.070352581	364.074344018	"27"	591.600261667	589.546034613	1.5	0.1
0.01	1	0.00457593999999517	1	124	NA	370.847761452	0	0.52	4.4	1	364.304163494	364.308739434	"27"	591.600261667	589.546034613	1.5	0.1
0.01	1	0.00387096700001166	1	124	NA	370.847761452	0	0.52	4.4	1	364.537794089	364.541665056	"27"	591.600261667	589.546034613	1.5	0.1
0.01	1	0.0039531850000003	1	124	NA	370.847761452	0	0.52	4.4	1	364.771609251	364.775562436	"27"	591.600261667	589.546034613	1.5	0.1
0.01	1	0.00358389300004092	1	124	NA	370.847761452	0	0.52	4.4	1	365.006598981	365.010182874	"27"	591.600261667	589.546034613	1.5	0.1
0.01	1	0.00394216699999106	1	124	NA	370.847761452	0	0.52	4.4	1	365.239073139	365.243015306	"27"	591.600261667	589.546034613	1.5	0.1
0.01	1	0.00367133099996408	1	124	NA	370.847761452	0	0.52	4.4	1	365.472746019	365.47641735	"27"	591.600261667	589.546034613	1.5	0.1
0.01	1	0.00379684200004249	1	124	NA	370.847761452	0	0.52	4.4	1	365.706452844	365.710249686	"27"	591.600261667	589.546034613	1.5	0.1
0.01	1	0.00388305299998137	1	124	NA	370.847761452	0	0.52	4.4	1	365.940234659	365.944117712	"27"	591.600261667	589.546034613	1.5	0.1
0.01	1	0.0039520469999843	1	124	NA	370.847761452	0	0.52	4.4	1	366.173991021	366.177943068	"27"	591.600261667	589.546034613	1.5	0.1
0.01	1	0.00389566599994851	1	124	NA	370.847761452	0	0.52	4.4	1	366.407676976	366.411572642	"27"	591.600261667	589.546034613	1.5	0.1
0.01	1	0.00327686799994353	1	124	NA	370.847761452	0	0.52	4.4	1	366.641396478	366.644673346	"27"	591.600261667	589.546034613	1.5	0.1
0.01	1	0.00361582499999713	1	124	NA	370.847761452	0	0.52	4.4	1	366.875252251	366.878868076	"27"	591.600261667	589.546034613	1.5	0.1
0.01	1	0.00384325699997135	1	124	NA	370.847761452	0	0.52	4.4	1	367.108810581	367.112653838	"27"	591.600261667	589.546034613	1.5	0.1
0.01	1	0.00385225399998035	1	124	NA	370.847761452	0	0.52	4.4	1	367.342618376	367.34647063	"27"	591.600261667	589.546034613	1.5	0.1
0.01	1	0.00382740999998532	1	124	NA	370.847761452	0	0.52	4.4	1	367.576290884	367.580118294	"27"	591.600261667	589.546034613	1.5	0.1
0.01	1	0.00340552099999059	1	124	NA	370.847761452	0	0.52	4.4	1	367.810051461	367.813456982	"27"	591.600261667	589.546034613	1.5	0.1
0.01	1	0.00384809000001951	1	124	NA	370.847761452	0	0.52	4.4	1	368.043707706	368.047555796	"27"	591.600261667	589.546034613	1.5	0.1
0.01	1	0.00370441699999446	1	124	NA	370.847761452	0	0.52	4.4	1	368.277461151	368.281165568	"27"	591.600261667	589.546034613	1.5	0.1
0.01	1	0.00363729299999704	1	124	NA	370.847761452	0	0.52	4.4	1	368.511245009	368.514882302	"27"	591.600261667	589.546034613	1.5	0.1
0.01	1	0.00326767799992922	1	124	NA	370.847761452	0	0.52	4.4	1	368.745005844	368.748273522	"27"	591.600261667	589.546034613	1.5	0.1
0.01	1	0.00452580000001035	1	124	NA	370.847761452	0	0.52	4.4	1	368.978598424	368.983124224	"27"	591.600261667	589.546034613	1.5	0.1
0.01	1	0.00400882899998578	1	124	NA	370.847761452	0	0.52	4.4	1	369.212405889	369.216414718	"27"	591.600261667	589.546034613	1.5	0.1
0.01	1	0.00380634900000132	1	124	NA	370.847761452	0	0.52	4.4	1	369.446093051	369.4498994	"27"	591.600261667	589.546034613	1.5	0.1
0.01	1	0.00457116999996288	1	124	NA	370.847761452	0	0.52	4.4	1	369.679849429	369.684420599	"27"	591.600261667	589.546034613	1.5	0.1
0.01	1	0.00465102199996181	1	124	NA	370.847761452	0	0.52	4.4	1	369.913510319	369.918161341	"27"	591.600261667	589.546034613	1.5	0.1
0.01	1	0.698838952999949	2	124	NA	370.847761452	0	0.52	4.4	1	370.147247456	370.846086409	"27"	591.600261667	589.546034613	1.5	0.1
0.01	1	0.119182870000031	1	13	375.943185209	NA	1	0	4.4	1	372.901869409	373.021052279	"28"	591.600261667	589.546034613	1.5	0.1
0.01	1	0.00393261699991854	1	13	375.943185209	NA	1	0	4.4	1	373.252547871	373.256480488	"28"	591.600261667	589.546034613	1.5	0.1
0.01	1	0.00464900999998008	1	13	375.943185209	NA	1	0	4.4	1	373.486290164	373.490939174	"28"	591.600261667	589.546034613	1.5	0.1
0.01	1	0.00423181799999384	1	13	375.943185209	NA	1	0	4.4	1	373.719970473	373.724202291	"28"	591.600261667	589.546034613	1.5	0.1
0.01	1	0.00365143299995907	1	13	375.943185209	NA	1	0	4.4	1	373.953612211	373.957263644	"28"	591.600261667	589.546034613	1.5	0.1
0.01	1	0.00414026199996442	1	13	375.943185209	NA	1	0	4.4	1	374.187527379	374.191667641	"28"	591.600261667	589.546034613	1.5	0.1
0.01	1	0.00387156800002231	1	13	375.943185209	NA	1	0	4.4	1	374.421136944	374.425008512	"28"	591.600261667	589.546034613	1.5	0.1
0.01	1	0.00397064399999181	1	13	375.943185209	NA	1	0	4.4	1	374.654884596	374.65885524	"28"	591.600261667	589.546034613	1.5	0.1
0.01	1	0.00336443500009409	1	13	375.943185209	NA	1	0	4.4	1	374.888554961	374.891919396	"28"	591.600261667	589.546034613	1.5	0.1
0.01	1	0.00451796000004379	1	13	375.943185209	NA	1	0	4.4	1	375.122270489	375.126788449	"28"	591.600261667	589.546034613	1.5	0.1
0.01	1	0.00396593800007849	1	13	375.943185209	NA	1	0	4.4	1	375.356056634	375.360022572	"28"	591.600261667	589.546034613	1.5	0.1
0.01	1	0.0038383779999549	1	13	375.943185209	NA	1	0	4.4	1	375.589805576	375.593643954	"28"	591.600261667	589.546034613	1.5	0.1
0.01	1	0.00377414399997633	1	13	375.943185209	NA	1	0	4.4	1	375.823511056	375.8272852	"28"	591.600261667	589.546034613	1.5	0.1
0.01	1	0.00455743000009079	1	125	NA	385.511518004	0	0.31	4.71	1	377.993793904	377.998351334	"29"	591.600261667	589.546034613	1.5	0.1
0.01	1	0.00396961299998111	1	125	NA	385.511518004	0	0.31	4.71	1	378.227561649	378.231531262	"29"	591.600261667	589.546034613	1.5	0.1
0.01	1	0.00380686400001196	1	125	NA	385.511518004	0	0.31	4.71	1	378.461294344	378.465101208	"29"	591.600261667	589.546034613	1.5	0.1
0.01	1	0.00465723699994669	1	125	NA	385.511518004	0	0.31	4.71	1	378.695021704	378.699678941	"29"	591.600261667	589.546034613	1.5	0.1
0.01	1	0.00460354200004076	1	125	NA	385.511518004	0	0.31	4.71	1	378.928769259	378.933372801	"29"	591.600261667	589.546034613	1.5	0.1
0.01	1	0.00328149200004191	1	125	NA	385.511518004	0	0.31	4.71	1	379.162406122	379.165687614	"29"	591.600261667	589.546034613	1.5	0.1
0.01	1	0.00371790799999872	1	125	NA	385.511518004	0	0.31	4.71	1	379.396181504	379.399899412	"29"	591.600261667	589.546034613	1.5	0.1
0.01	1	0.00371541300000899	1	125	NA	385.511518004	0	0.31	4.71	1	379.629911739	379.633627152	"29"	591.600261667	589.546034613	1.5	0.1
0.01	1	0.00463597499992829	1	125	NA	385.511518004	0	0.31	4.71	1	379.863683904	379.868319879	"29"	591.600261667	589.546034613	1.5	0.1
0.01	1	0.00338275900003282	1	125	NA	385.511518004	0	0.31	4.71	1	380.097443881	380.10082664	"29"	591.600261667	589.546034613	1.5	0.1
0.01	1	0.00379521199999999	1	125	NA	385.511518004	0	0.31	4.71	1	380.331054984	380.334850196	"29"	591.600261667	589.546034613	1.5	0.1
0.01	1	0.00376608800002032	1	125	NA	385.511518004	0	0.31	4.71	1	380.564779804	380.568545892	"29"	591.600261667	589.546034613	1.5	0.1
0.01	1	0.00388977099999011	1	125	NA	385.511518004	0	0.31	4.71	1	380.798540261	380.802430032	"29"	591.600261667	589.546034613	1.5	0.1
0.01	1	0.00328696200006107	1	125	NA	385.511518004	0	0.31	4.71	1	381.032294944	381.035581906	"29"	591.600261667	589.546034613	1.5	0.1
0.01	1	0.00455262699995274	1	125	NA	385.511518004	0	0.31	4.71	1	381.266043694	381.270596321	"29"	591.600261667	589.546034613	1.5	0.1
0.01	1	0.00357428900008472	1	125	NA	385.511518004	0	0.31	4.71	1	381.499753201	381.50332749	"29"	591.600261667	589.546034613	1.5	0.1
0.01	1	0.00450577500009786	1	125	NA	385.511518004	0	0.31	4.71	1	381.733450859	381.737956634	"29"	591.600261667	589.546034613	1.5	0.1
0.01	1	0.00376308299996708	1	125	NA	385.511518004	0	0.31	4.71	1	381.967244769	381.971007852	"29"	591.600261667	589.546034613	1.5	0.1
0.01	1	0.00384878099998787	1	125	NA	385.511518004	0	0.31	4.71	1	382.200890969	382.20473975	"29"	591.600261667	589.546034613	1.5	0.1
0.01	1	0.00328973799992127	1	125	NA	385.511518004	0	0.31	4.71	1	382.434675886	382.437965624	"29"	591.600261667	589.546034613	1.5	0.1
0.01	1	0.00452450199998111	1	125	NA	385.511518004	0	0.31	4.71	1	382.668423339	382.672947841	"29"	591.600261667	589.546034613	1.5	0.1
0.01	1	0.0037908190000735	1	125	NA	385.511518004	0	0.31	4.71	1	382.902139801	382.90593062	"29"	591.600261667	589.546034613	1.5	0.1
0.01	1	0.00381378899999163	1	125	NA	385.511518004	0	0.31	4.71	1	383.135767011	383.1395808	"29"	591.600261667	589.546034613	1.5	0.1
0.01	1	0.0020423229999551	1	125	NA	385.511518004	0	0.31	4.71	1	383.369539829	383.371582152	"29"	591.600261667	589.546034613	1.5	0.1
0.01	1	0.00217002200008665	1	125	NA	385.511518004	0	0.31	4.71	1	383.603241297	383.605411319	"29"	591.600261667	589.546034613	1.5	0.1
0.01	1	0.0038417699998945	1	125	NA	385.511518004	0	0.31	4.71	1	383.836970774	383.840812544	"29"	591.600261667	589.546034613	1.5	0.1
0.01	1	0.00390847099993152	1	125	NA	385.511518004	0	0.31	4.71	1	384.070724689	384.07463316	"29"	591.600261667	589.546034613	1.5	0.1
0.01	1	0.00380968299998585	1	125	NA	385.511518004	0	0.31	4.71	1	384.304470691	384.308280374	"29"	591.600261667	589.546034613	1.5	0.1
0.01	1	0.0046232570000484	1	125	NA	385.511518004	0	0.31	4.71	1	384.538166674	384.542789931	"29"	591.600261667	589.546034613	1.5	0.1
0.01	1	0.00369092799996906	1	125	NA	385.511518004	0	0.31	4.71	1	384.771902026	384.775592954	"29"	591.600261667	589.546034613	1.5	0.1
0.01	1	0.0037561450000112	1	125	NA	385.511518004	0	0.31	4.71	1	385.005556261	385.009312406	"29"	591.600261667	589.546034613	1.5	0.1
0.01	1	0.270453539999949	2	125	NA	385.511518004	0	0.31	4.71	1	385.239381704	385.509835244	"29"	591.600261667	589.546034613	1.5	0.1
0.01	1	0.00434120099998836	1	105	NA	395.264724544	0	0.33	5.04	1	387.54321498	387.547556181	"30"	591.600261667	589.546034613	1.5	0.1
0.01	1	0.00384787000007236	1	105	NA	395.264724544	0	0.33	5.04	1	387.776962544	387.780810414	"30"	591.600261667	589.546034613	1.5	0.1
0.01	1	0.00393439499998749	1	105	NA	395.264724544	0	0.33	5.04	1	388.010670779	388.014605174	"30"	591.600261667	589.546034613	1.5	0.1
0.01	1	0.00367038799993225	1	105	NA	395.264724544	0	0.33	5.04	1	388.244438614	388.248109002	"30"	591.600261667	589.546034613	1.5	0.1
0.01	1	0.00428593499998442	1	105	NA	395.264724544	0	0.33	5.04	1	388.478214186	388.482500121	"30"	591.600261667	589.546034613	1.5	0.1
0.01	1	0.00438889800000197	1	105	NA	395.264724544	0	0.33	5.04	1	388.711794726	388.716183624	"30"	591.600261667	589.546034613	1.5	0.1
0.01	1	0.0039297789999182	1	105	NA	395.264724544	0	0.33	5.04	1	388.945613231	388.94954301	"30"	591.600261667	589.546034613	1.5	0.1
0.01	1	0.00354724299995723	1	105	NA	395.264724544	0	0.33	5.04	1	389.179361051	389.182908294	"30"	591.600261667	589.546034613	1.5	0.1
0.01	1	0.0036916569999903	1	105	NA	395.264724544	0	0.33	5.04	1	389.413055501	389.416747158	"30"	591.600261667	589.546034613	1.5	0.1
0.01	1	0.00366058200006592	1	105	NA	395.264724544	0	0.33	5.04	1	389.646764084	389.650424666	"30"	591.600261667	589.546034613	1.5	0.1
0.01	1	0.00463010199996461	1	105	NA	395.264724544	0	0.33	5.04	1	389.880574429	389.885204531	"30"	591.600261667	589.546034613	1.5	0.1
0.01	1	0.003800004000027	1	105	NA	395.264724544	0	0.33	5.04	1	390.114244654	390.118044658	"30"	591.600261667	589.546034613	1.5	0.1
0.01	1	0.00348956499999531	1	105	NA	395.264724544	0	0.33	5.04	1	390.347857901	390.351347466	"30"	591.600261667	589.546034613	1.5	0.1
0.01	1	0.00379563499996038	1	105	NA	395.264724544	0	0.33	5.04	1	390.581656679	390.585452314	"30"	591.600261667	589.546034613	1.5	0.1
0.01	1	0.00433676700004071	1	105	NA	395.264724544	0	0.33	5.04	1	390.815394049	390.819730816	"30"	591.600261667	589.546034613	1.5	0.1
0.01	1	0.0037347590000536	1	105	NA	395.264724544	0	0.33	5.04	1	391.049118571	391.05285333	"30"	591.600261667	589.546034613	1.5	0.1
0.01	1	0.0045423970000229	1	105	NA	395.264724544	0	0.33	5.04	1	391.282779744	391.287322141	"30"	591.600261667	589.546034613	1.5	0.1
0.01	1	0.00370736899992608	1	105	NA	395.264724544	0	0.33	5.04	1	391.516536639	391.520244008	"30"	591.600261667	589.546034613	1.5	0.1
0.01	1	0.00454611700001806	1	105	NA	395.264724544	0	0.33	5.04	1	391.750326979	391.754873096	"30"	591.600261667	589.546034613	1.5	0.1
0.01	1	0.0038063649999458	1	105	NA	395.264724544	0	0.33	5.04	1	391.983992101	391.987798466	"30"	591.600261667	589.546034613	1.5	0.1
0.01	1	0.00453361500001392	1	105	NA	395.264724544	0	0.33	5.04	1	392.217852809	392.222386424	"30"	591.600261667	589.546034613	1.5	0.1
0.01	1	0.00459361499997613	1	105	NA	395.264724544	0	0.33	5.04	1	392.451588114	392.456181729	"30"	591.600261667	589.546034613	1.5	0.1
0.01	1	0.00368225399995481	1	105	NA	395.264724544	0	0.33	5.04	1	392.685163264	392.688845518	"30"	591.600261667	589.546034613	1.5	0.1
0.01	1	0.0037425280000889	1	105	NA	395.264724544	0	0.33	5.04	1	392.918990734	392.922733262	"30"	591.600261667	589.546034613	1.5	0.1
0.01	1	0.00382032000004529	1	105	NA	395.264724544	0	0.33	5.04	1	393.152658504	393.156478824	"30"	591.600261667	589.546034613	1.5	0.1
0.01	1	0.00330226799997035	1	105	NA	395.264724544	0	0.33	5.04	1	393.386393962	393.38969623	"30"	591.600261667	589.546034613	1.5	0.1
0.01	1	0.00327924399994117	1	105	NA	395.264724544	0	0.33	5.04	1	393.620133672	393.623412916	"30"	591.600261667	589.546034613	1.5	0.1
0.01	1	0.00368560499998694	1	105	NA	395.264724544	0	0.33	5.04	1	393.853799909	393.857485514	"30"	591.600261667	589.546034613	1.5	0.1
0.01	1	0.00384879299997465	1	105	NA	395.264724544	0	0.33	5.04	1	394.087536061	394.091384854	"30"	591.600261667	589.546034613	1.5	0.1
0.01	1	0.00392111299993303	1	105	NA	395.264724544	0	0.33	5.04	1	394.321278189	394.325199302	"30"	591.600261667	589.546034613	1.5	0.1
0.01	1	0.00402298100004828	1	105	NA	395.264724544	0	0.33	5.04	1	394.554931789	394.55895477	"30"	591.600261667	589.546034613	1.5	0.1
0.01	1	0.00386150500003168	1	105	NA	395.264724544	0	0.33	5.04	1	394.788730151	394.792591656	"30"	591.600261667	589.546034613	1.5	0.1
0.01	1	0.00391644499995891	1	105	NA	395.264724544	0	0.33	5.04	1	395.022357741	395.026274186	"30"	591.600261667	589.546034613	1.5	0.1
0.01	1	0.00671914899999138	2	105	NA	395.264724544	0	0.33	5.04	1	395.256226129	395.262945278	"30"	591.600261667	589.546034613	1.5	0.1
