"payoff.level"	"balloon"	"rt"	"resp"	"explode.trial"	"explode.time"	"finish.time"	"exploded"	"trial.total"	"cumulative.total"	"finished"	"trial.start"	"trial.end"	"trial.num"	"secs"	"start.time"	"iti"	"isi"
0.01	1	15.0018316009991	1	64	NA	39.2668855929987	0	0.25	0.25	1	0.0237267519987654	15.0255583529979	"1"	17128.303994886	17120.885808585	1.5	0.1
0.01	1	1.2460856630023	1	64	NA	39.2668855929987	0	0.25	0.25	1	15.3160517939978	16.5621374570001	"1"	17128.303994886	17120.885808585	1.5	0.1
0.01	1	0.00404191499910667	1	64	NA	39.2668855929987	0	0.25	0.25	1	16.801980193999	16.8060221089981	"1"	17128.303994886	17120.885808585	1.5	0.1
0.01	1	5.25422588899892	1	64	NA	39.2668855929987	0	0.25	0.25	1	17.0356903969987	22.2899162859976	"1"	17128.303994886	17120.885808585	1.5	0.1
0.01	1	0.44915774099718	1	64	NA	39.2668855929987	0	0.25	0.25	1	22.5283069760007	22.9774647169979	"1"	17128.303994886	17120.885808585	1.5	0.1
0.01	1	0.404748212000413	1	64	NA	39.2668855929987	0	0.25	0.25	1	23.2127800889975	23.6175283009979	"1"	17128.303994886	17120.885808585	1.5	0.1
0.01	1	0.387026142001559	1	64	NA	39.2668855929987	0	0.25	0.25	1	23.8471656919974	24.2341918339989	"1"	17128.303994886	17120.885808585	1.5	0.1
0.01	1	0.345137429001625	1	64	NA	39.2668855929987	0	0.25	0.25	1	24.4649386069977	24.8100760359994	"1"	17128.303994886	17120.885808585	1.5	0.1
0.01	1	0.313444588002312	1	64	NA	39.2668855929987	0	0.25	0.25	1	25.0325205829977	25.345965171	"1"	17128.303994886	17120.885808585	1.5	0.1
0.01	1	0.307062059997406	1	64	NA	39.2668855929987	0	0.25	0.25	1	25.5834279219998	25.8904899819972	"1"	17128.303994886	17120.885808585	1.5	0.1
0.01	1	0.700729624000815	1	64	NA	39.2668855929987	0	0.25	0.25	1	26.117696426998	26.8184260509988	"1"	17128.303994886	17120.885808585	1.5	0.1
0.01	1	0.292247342000337	1	64	NA	39.2668855929987	0	0.25	0.25	1	27.0526235219986	27.3448708639989	"1"	17128.303994886	17120.885808585	1.5	0.1
0.01	1	0.310813576001237	1	64	NA	39.2668855929987	0	0.25	0.25	1	27.5701115619995	27.8809251380007	"1"	17128.303994886	17120.885808585	1.5	0.1
0.01	1	0.281799510001292	1	64	NA	39.2668855929987	0	0.25	0.25	1	28.1042586269978	28.3860581369991	"1"	17128.303994886	17120.885808585	1.5	0.1
0.01	1	0.395913018997817	1	64	NA	39.2668855929987	0	0.25	0.25	1	28.6219706070005	29.0178836259984	"1"	17128.303994886	17120.885808585	1.5	0.1
0.01	1	0.354083664999052	1	64	NA	39.2668855929987	0	0.25	0.25	1	29.2562238819992	29.6103075469982	"1"	17128.303994886	17120.885808585	1.5	0.1
0.01	1	0.00389383299989277	1	64	NA	39.2668855929987	0	0.25	0.25	1	29.8405641339996	29.8444579669995	"1"	17128.303994886	17120.885808585	1.5	0.1
0.01	1	1.39970558500136	1	64	NA	39.2668855929987	0	0.25	0.25	1	30.0743357969986	31.474041382	"1"	17128.303994886	17120.885808585	1.5	0.1
0.01	1	0.274665606000781	1	64	NA	39.2668855929987	0	0.25	0.25	1	31.7103672989979	31.9850329049987	"1"	17128.303994886	17120.885808585	1.5	0.1
0.01	1	0.310170651999215	1	64	NA	39.2668855929987	0	0.25	0.25	1	32.2112259519999	32.5213966039992	"1"	17128.303994886	17120.885808585	1.5	0.1
0.01	1	1.24805073800235	1	64	NA	39.2668855929987	0	0.25	0.25	1	32.745429276998	33.9934800150004	"1"	17128.303994886	17120.885808585	1.5	0.1
0.01	1	0.409940528999869	1	64	NA	39.2668855929987	0	0.25	0.25	1	34.2313636469989	34.6413041759988	"1"	17128.303994886	17120.885808585	1.5	0.1
0.01	1	0.383859993999067	1	64	NA	39.2668855929987	0	0.25	0.25	1	34.8823234269985	35.2661834209975	"1"	17128.303994886	17120.885808585	1.5	0.1
0.01	1	0.381758475999959	1	64	NA	39.2668855929987	0	0.25	0.25	1	35.5000946469991	35.881853122999	"1"	17128.303994886	17120.885808585	1.5	0.1
0.01	1	1.70720462000099	1	64	NA	39.2668855929987	0	0.25	0.25	1	36.1177097639993	37.8249143840003	"1"	17128.303994886	17120.885808585	1.5	0.1
0.01	1	1.21082354499958	2	64	NA	39.2668855929987	0	0.25	0.25	1	38.0543583420003	39.2651818869999	"1"	17128.303994886	17120.885808585	1.5	0.1
0.01	1	0.61037193300217	1	63	NA	76.2521886009999	0	0.5	0.75	1	41.3266053089974	41.9369772419996	"2"	17128.303994886	17120.885808585	1.5	0.1
0.01	1	0.719138770000427	1	63	NA	76.2521886009999	0	0.5	0.75	1	42.1779717619975	42.8971105319979	"2"	17128.303994886	17120.885808585	1.5	0.1
0.01	1	0.43964694999886	1	63	NA	76.2521886009999	0	0.5	0.75	1	43.1296531240005	43.5693000739993	"2"	17128.303994886	17120.885808585	1.5	0.1
0.01	1	0.259445404997678	1	63	NA	76.2521886009999	0	0.5	0.75	1	43.7974189720007	44.0568643769984	"2"	17128.303994886	17120.885808585	1.5	0.1
0.01	1	0.255307015002472	1	63	NA	76.2521886009999	0	0.5	0.75	1	44.281500451998	44.5368074670005	"2"	17128.303994886	17120.885808585	1.5	0.1
0.01	1	0.252744649998931	1	63	NA	76.2521886009999	0	0.5	0.75	1	44.7655855140001	45.0183301639991	"2"	17128.303994886	17120.885808585	1.5	0.1
0.01	1	0.239528767000593	1	63	NA	76.2521886009999	0	0.5	0.75	1	45.2497960919973	45.4893248589979	"2"	17128.303994886	17120.885808585	1.5	0.1
0.01	1	0.275954557000659	1	63	NA	76.2521886009999	0	0.5	0.75	1	45.7171537239992	45.9931082809999	"2"	17128.303994886	17120.885808585	1.5	0.1
0.01	1	0.294905653001479	1	63	NA	76.2521886009999	0	0.5	0.75	1	46.2180850089971	46.5129906619986	"2"	17128.303994886	17120.885808585	1.5	0.1
0.01	1	0.282077456999104	1	63	NA	76.2521886009999	0	0.5	0.75	1	46.7356154949994	47.0176929519985	"2"	17128.303994886	17120.885808585	1.5	0.1
0.01	1	0.259718273999169	1	63	NA	76.2521886009999	0	0.5	0.75	1	47.2532515419989	47.5129698159981	"2"	17128.303994886	17120.885808585	1.5	0.1
0.01	1	0.280434237000009	1	63	NA	76.2521886009999	0	0.5	0.75	1	47.7373248769982	48.0177591139982	"2"	17128.303994886	17120.885808585	1.5	0.1
0.01	1	0.281834941997658	1	63	NA	76.2521886009999	0	0.5	0.75	1	48.2549620419995	48.5367969839972	"2"	17128.303994886	17120.885808585	1.5	0.1
0.01	1	0.333997874000488	1	63	NA	76.2521886009999	0	0.5	0.75	1	48.772421832	49.1064197060005	"2"	17128.303994886	17120.885808585	1.5	0.1
0.01	1	0.341364398002042	1	63	NA	76.2521886009999	0	0.5	0.75	1	49.3400265139971	49.6813909119992	"2"	17128.303994886	17120.885808585	1.5	0.1
0.01	1	0.309305340997525	1	63	NA	76.2521886009999	0	0.5	0.75	1	49.9076564370007	50.2169617779982	"2"	17128.303994886	17120.885808585	1.5	0.1
0.01	1	0.375328456000716	1	63	NA	76.2521886009999	0	0.5	0.75	1	50.4418151369973	50.817143592998	"2"	17128.303994886	17120.885808585	1.5	0.1
0.01	1	0.334577126999648	1	63	NA	76.2521886009999	0	0.5	0.75	1	51.0428625370005	51.3774396640001	"2"	17128.303994886	17120.885808585	1.5	0.1
0.01	1	0.328072205000353	1	63	NA	76.2521886009999	0	0.5	0.75	1	51.6104763019976	51.9385485069979	"2"	17128.303994886	17120.885808585	1.5	0.1
0.01	1	0.329139448000205	1	63	NA	76.2521886009999	0	0.5	0.75	1	52.1613821469982	52.4905215949984	"2"	17128.303994886	17120.885808585	1.5	0.1
0.01	1	0.320017063000705	1	63	NA	76.2521886009999	0	0.5	0.75	1	52.729085783998	53.0491028469987	"2"	17128.303994886	17120.885808585	1.5	0.1
0.01	1	1.91307461500037	1	63	NA	76.2521886009999	0	0.5	0.75	1	53.2800034719985	55.1930780869989	"2"	17128.303994886	17120.885808585	1.5	0.1
0.01	1	0.256739736996678	1	63	NA	76.2521886009999	0	0.5	0.75	1	55.4337170670005	55.6904568039972	"2"	17128.303994886	17120.885808585	1.5	0.1
0.01	1	0.28487290799967	1	63	NA	76.2521886009999	0	0.5	0.75	1	55.9176844419999	56.2025573499996	"2"	17128.303994886	17120.885808585	1.5	0.1
0.01	1	0.294829529000708	1	63	NA	76.2521886009999	0	0.5	0.75	1	56.4353011719977	56.7301307009984	"2"	17128.303994886	17120.885808585	1.5	0.1
0.01	1	0.296857034001732	1	63	NA	76.2521886009999	0	0.5	0.75	1	56.9527389469986	57.2495959810003	"2"	17128.303994886	17120.885808585	1.5	0.1
0.01	1	0.291167063998728	1	63	NA	76.2521886009999	0	0.5	0.75	1	57.487093189	57.7782602529987	"2"	17128.303994886	17120.885808585	1.5	0.1
0.01	1	0.357564901998558	1	63	NA	76.2521886009999	0	0.5	0.75	1	58.0045377819988	58.3621026839974	"2"	17128.303994886	17120.885808585	1.5	0.1
0.01	1	0.301625651001814	1	63	NA	76.2521886009999	0	0.5	0.75	1	58.588934561998	58.8905602129998	"2"	17128.303994886	17120.885808585	1.5	0.1
0.01	1	0.503237973000068	1	63	NA	76.2521886009999	0	0.5	0.75	1	59.1231140719974	59.6263520449975	"2"	17128.303994886	17120.885808585	1.5	0.1
0.01	1	1.06459307499972	1	63	NA	76.2521886009999	0	0.5	0.75	1	59.8576544690004	60.9222475440001	"2"	17128.303994886	17120.885808585	1.5	0.1
0.01	1	0.21829192199948	1	63	NA	76.2521886009999	0	0.5	0.75	1	61.1599011090002	61.3781930309997	"2"	17128.303994886	17120.885808585	1.5	0.1
0.01	1	0.29559336300008	1	63	NA	76.2521886009999	0	0.5	0.75	1	61.6106462719981	61.9062396349982	"2"	17128.303994886	17120.885808585	1.5	0.1
0.01	1	0.304008568997233	1	63	NA	76.2521886009999	0	0.5	0.75	1	62.1448099640002	62.4488185329974	"2"	17128.303994886	17120.885808585	1.5	0.1
0.01	1	0.385986784996931	1	63	NA	76.2521886009999	0	0.5	0.75	1	62.6790576370004	63.0650444219973	"2"	17128.303994886	17120.885808585	1.5	0.1
0.01	1	0.336387559000286	1	63	NA	76.2521886009999	0	0.5	0.75	1	63.2968075719982	63.6331951309985	"2"	17128.303994886	17120.885808585	1.5	0.1
0.01	1	0.401079572999151	1	63	NA	76.2521886009999	0	0.5	0.75	1	63.864390142	64.2654697149992	"2"	17128.303994886	17120.885808585	1.5	0.1
0.01	1	0.287137610997888	1	63	NA	76.2521886009999	0	0.5	0.75	1	64.4988105619996	64.7859481729975	"2"	17128.303994886	17120.885808585	1.5	0.1
0.01	1	0.369173112998396	1	63	NA	76.2521886009999	0	0.5	0.75	1	65.0163870270007	65.3855601399991	"2"	17128.303994886	17120.885808585	1.5	0.1
0.01	1	1.15148827699886	1	63	NA	76.2521886009999	0	0.5	0.75	1	65.6173846749989	66.7688729519978	"2"	17128.303994886	17120.885808585	1.5	0.1
0.01	1	1.13398987500113	1	63	NA	76.2521886009999	0	0.5	0.75	1	67.0031494469986	68.1371393219997	"2"	17128.303994886	17120.885808585	1.5	0.1
0.01	1	0.269471534997137	1	63	NA	76.2521886009999	0	0.5	0.75	1	68.3722018070002	68.6416733419974	"2"	17128.303994886	17120.885808585	1.5	0.1
0.01	1	0.312850616002834	1	63	NA	76.2521886009999	0	0.5	0.75	1	68.8729364619976	69.1857870780004	"2"	17128.303994886	17120.885808585	1.5	0.1
0.01	1	0.345938509999542	1	63	NA	76.2521886009999	0	0.5	0.75	1	69.4238744869981	69.7698129969976	"2"	17128.303994886	17120.885808585	1.5	0.1
0.01	1	0.45750329600196	1	63	NA	76.2521886009999	0	0.5	0.75	1	69.9914018889976	70.4489051849996	"2"	17128.303994886	17120.885808585	1.5	0.1
0.01	1	1.5181979830013	1	63	NA	76.2521886009999	0	0.5	0.75	1	70.6759037919983	72.1941017749996	"2"	17128.303994886	17120.885808585	1.5	0.1
0.01	1	0.372500315999787	1	63	NA	76.2521886009999	0	0.5	0.75	1	72.428858059	72.8013583749998	"2"	17128.303994886	17120.885808585	1.5	0.1
0.01	1	0.396495404002053	1	63	NA	76.2521886009999	0	0.5	0.75	1	73.0298742489977	73.4263696529997	"2"	17128.303994886	17120.885808585	1.5	0.1
0.01	1	0.338351800997771	1	63	NA	76.2521886009999	0	0.5	0.75	1	73.6643156520004	74.0026674529981	"2"	17128.303994886	17120.885808585	1.5	0.1
0.01	1	0.858025688001362	1	63	NA	76.2521886009999	0	0.5	0.75	1	74.2318543359979	75.0898800239993	"2"	17128.303994886	17120.885808585	1.5	0.1
0.01	1	0.933408729997609	2	63	NA	76.2521886009999	0	0.5	0.75	1	75.3170845770001	76.2504933069977	"2"	17128.303994886	17120.885808585	1.5	0.1
0.01	1	1.32783134500278	1	74	NA	86.7548987359987	0	0.22	0.97	1	78.3054189369977	79.6332502820005	"3"	17128.303994886	17120.885808585	1.5	0.1
0.01	1	0.126968959000806	1	74	NA	86.7548987359987	0	0.22	0.97	1	79.8746413739973	80.0016103329981	"3"	17128.303994886	17120.885808585	1.5	0.1
0.01	1	0.00395880799987935	1	74	NA	86.7548987359987	0	0.22	0.97	1	80.2252674970005	80.2292263050003	"3"	17128.303994886	17120.885808585	1.5	0.1
0.01	1	0.022631279000052	1	74	NA	86.7548987359987	0	0.22	0.97	1	80.4590515819982	80.4816828609983	"3"	17128.303994886	17120.885808585	1.5	0.1
0.01	1	0.027320288001647	1	74	NA	86.7548987359987	0	0.22	0.97	1	80.709471883998	80.7367921719997	"3"	17128.303994886	17120.885808585	1.5	0.1
0.01	1	0.0497627090007882	1	74	NA	86.7548987359987	0	0.22	0.97	1	80.9598373119989	81.0096000209996	"3"	17128.303994886	17120.885808585	1.5	0.1
0.01	1	0.054098928001622	1	74	NA	86.7548987359987	0	0.22	0.97	1	81.2436296069973	81.2977285349989	"3"	17128.303994886	17120.885808585	1.5	0.1
0.01	1	0.026468259999092	1	74	NA	86.7548987359987	0	0.22	0.97	1	81.5274546069995	81.5539228669986	"3"	17128.303994886	17120.885808585	1.5	0.1
0.01	1	0.0710244660003809	1	74	NA	86.7548987359987	0	0.22	0.97	1	81.7779945519978	81.8490190179982	"3"	17128.303994886	17120.885808585	1.5	0.1
0.01	1	0.498704382000142	1	74	NA	86.7548987359987	0	0.22	0.97	1	82.0784065089974	82.5771108909976	"3"	17128.303994886	17120.885808585	1.5	0.1
0.01	1	0.0767863239998405	1	74	NA	86.7548987359987	0	0.22	0.97	1	82.8128760769978	82.8896624009976	"3"	17128.303994886	17120.885808585	1.5	0.1
0.01	1	0.00464570699841715	1	74	NA	86.7548987359987	0	0.22	0.97	1	83.1135269469996	83.118172653998	"3"	17128.303994886	17120.885808585	1.5	0.1
0.01	1	0.00386549299946637	1	74	NA	86.7548987359987	0	0.22	0.97	1	83.3472187119987	83.3510842049982	"3"	17128.303994886	17120.885808585	1.5	0.1
0.01	1	0.00338157499936642	1	74	NA	86.7548987359987	0	0.22	0.97	1	83.5809339019979	83.5843154769973	"3"	17128.303994886	17120.885808585	1.5	0.1
0.01	1	0.00381631200070842	1	74	NA	86.7548987359987	0	0.22	0.97	1	83.8146207869977	83.8184370989984	"3"	17128.303994886	17120.885808585	1.5	0.1
0.01	1	0.00374614099928294	1	74	NA	86.7548987359987	0	0.22	0.97	1	84.0483894919998	84.0521356329991	"3"	17128.303994886	17120.885808585	1.5	0.1
0.01	1	0.00383519900060492	1	74	NA	86.7548987359987	0	0.22	0.97	1	84.2820805419979	84.2859157409985	"3"	17128.303994886	17120.885808585	1.5	0.1
0.01	1	0.670704968000791	1	74	NA	86.7548987359987	0	0.22	0.97	1	84.5159370869987	85.1866420549995	"3"	17128.303994886	17120.885808585	1.5	0.1
0.01	1	0.00209059700137004	1	74	NA	86.7548987359987	0	0.22	0.97	1	85.4174261989974	85.4195167959988	"3"	17128.303994886	17120.885808585	1.5	0.1
0.01	1	0.00437819199942169	1	74	NA	86.7548987359987	0	0.22	0.97	1	85.6512162219988	85.6555944139982	"3"	17128.303994886	17120.885808585	1.5	0.1
0.01	1	0.00202046699996572	1	74	NA	86.7548987359987	0	0.22	0.97	1	85.8848360230004	85.8868564900004	"3"	17128.303994886	17120.885808585	1.5	0.1
0.01	1	0.00203156700081308	1	74	NA	86.7548987359987	0	0.22	0.97	1	86.1185668529979	86.1205984199987	"3"	17128.303994886	17120.885808585	1.5	0.1
0.01	1	0.400997945002018	2	74	NA	86.7548987359987	0	0.22	0.97	1	86.352288498998	86.753286444	"3"	17128.303994886	17120.885808585	1.5	0.1
0.01	1	1.73868530099935	1	9	NA	93.3001365220007	0	0.02	0.99	1	88.8064382970006	90.5451235979999	"4"	17128.303994886	17120.885808585	1.5	0.1
0.01	1	0.0890099710013601	1	9	NA	93.3001365220007	0	0.02	0.99	1	90.7763818239982	90.8653917949996	"4"	17128.303994886	17120.885808585	1.5	0.1
0.01	1	2.20492336400275	2	9	NA	93.3001365220007	0	0.02	0.99	1	91.0936520369978	93.2985754010006	"4"	17128.303994886	17120.885808585	1.5	0.1
0.01	1	0.72371657199983	1	39	NA	112.947825374999	0	0.19	1.18	1	95.3507079689989	96.0744245409987	"5"	17128.303994886	17120.885808585	1.5	0.1
0.01	1	1.2754069190014	1	39	NA	112.947825374999	0	0.19	1.18	1	96.3023290419987	97.5777359610001	"5"	17128.303994886	17120.885808585	1.5	0.1
0.01	1	0.292888570002106	1	39	NA	112.947825374999	0	0.19	1.18	1	97.8048629419973	98.0977515119994	"5"	17128.303994886	17120.885808585	1.5	0.1
0.01	1	0.277689023001585	1	39	NA	112.947825374999	0	0.19	1.18	1	98.3390319069986	98.6167209300002	"5"	17128.303994886	17120.885808585	1.5	0.1
0.01	1	0.704941498002881	1	39	NA	112.947825374999	0	0.19	1.18	1	98.8398981369974	99.5448396350002	"5"	17128.303994886	17120.885808585	1.5	0.1
0.01	1	2.90631303500049	1	39	NA	112.947825374999	0	0.19	1.18	1	99.7748374319999	102.681150467	"5"	17128.303994886	17120.885808585	1.5	0.1
0.01	1	1.00786150700151	1	39	NA	112.947825374999	0	0.19	1.18	1	102.913503568998	103.921365075999	"5"	17128.303994886	17120.885808585	1.5	0.1
0.01	1	0.149050178002653	1	39	NA	112.947825374999	0	0.19	1.18	1	104.148908626998	104.297958805	"5"	17128.303994886	17120.885808585	1.5	0.1
0.01	1	0.549360166998667	1	39	NA	112.947825374999	0	0.19	1.18	1	104.532823029	105.082183195998	"5"	17128.303994886	17120.885808585	1.5	0.1
0.01	1	0.69200394100335	1	39	NA	112.947825374999	0	0.19	1.18	1	105.317466811997	106.009470753001	"5"	17128.303994886	17120.885808585	1.5	0.1
0.01	1	0.373643301998527	1	39	NA	112.947825374999	0	0.19	1.18	1	106.235674124	106.609317425999	"5"	17128.303994886	17120.885808585	1.5	0.1
0.01	1	0.84476502400139	1	39	NA	112.947825374999	0	0.19	1.18	1	106.836658471999	107.681423496	"5"	17128.303994886	17120.885808585	1.5	0.1
0.01	1	0.511413701002311	1	39	NA	112.947825374999	0	0.19	1.18	1	107.921915021998	108.433328723	"5"	17128.303994886	17120.885808585	1.5	0.1
0.01	1	0.00380984900039039	1	39	NA	112.947825374999	0	0.19	1.18	1	108.656571273998	108.660381122998	"5"	17128.303994886	17120.885808585	1.5	0.1
0.01	1	0.191500184002507	1	39	NA	112.947825374999	0	0.19	1.18	1	108.890131093998	109.081631278001	"5"	17128.303994886	17120.885808585	1.5	0.1
0.01	1	0.39793874300085	1	39	NA	112.947825374999	0	0.19	1.18	1	109.307543362	109.705482105001	"5"	17128.303994886	17120.885808585	1.5	0.1
0.01	1	0.00385130799986655	1	39	NA	112.947825374999	0	0.19	1.18	1	109.941999437	109.945850745	"5"	17128.303994886	17120.885808585	1.5	0.1
0.01	1	0.162190056002146	1	39	NA	112.947825374999	0	0.19	1.18	1	110.175754436998	110.337944493	"5"	17128.303994886	17120.885808585	1.5	0.1
0.01	1	0.00389600600101403	1	39	NA	112.947825374999	0	0.19	1.18	1	110.559771187	110.563667193001	"5"	17128.303994886	17120.885808585	1.5	0.1
0.01	1	2.15276870099842	2	39	NA	112.947825374999	0	0.19	1.18	1	110.793427212	112.946195912999	"5"	17128.303994886	17120.885808585	1.5	0.1
0.01	1	0.952835808002419	1	31	137.141836663999	NA	1	0	1.18	1	115.000436096998	115.953271905	"6"	17128.303994886	17120.885808585	1.5	0.1
0.01	1	0.896420424000098	1	31	137.141836663999	NA	1	0	1.18	1	116.185776391998	117.082196815998	"6"	17128.303994886	17120.885808585	1.5	0.1
0.01	1	0.377831068999512	1	31	137.141836663999	NA	1	0	1.18	1	117.304264688999	117.682095757998	"6"	17128.303994886	17120.885808585	1.5	0.1
0.01	1	1.29582419899816	1	31	137.141836663999	NA	1	0	1.18	1	117.905381597	119.201205795998	"6"	17128.303994886	17120.885808585	1.5	0.1
0.01	1	0.535361764999834	1	31	137.141836663999	NA	1	0	1.18	1	119.441287646998	119.976649411998	"6"	17128.303994886	17120.885808585	1.5	0.1
0.01	1	0.51359618999777	1	31	137.141836663999	NA	1	0	1.18	1	120.209133042001	120.722729231999	"6"	17128.303994886	17120.885808585	1.5	0.1
0.01	1	0.440670797001076	1	31	137.141836663999	NA	1	0	1.18	1	120.960410306998	121.401081103999	"6"	17128.303994886	17120.885808585	1.5	0.1
0.01	1	0.389844690002064	1	31	137.141836663999	NA	1	0	1.18	1	121.628256561999	122.018101252001	"6"	17128.303994886	17120.885808585	1.5	0.1
0.01	1	0.435260894002568	1	31	137.141836663999	NA	1	0	1.18	1	122.246055166997	122.681316061	"6"	17128.303994886	17120.885808585	1.5	0.1
0.01	1	0.424619966997852	1	31	137.141836663999	NA	1	0	1.18	1	122.913798512	123.338418478997	"6"	17128.303994886	17120.885808585	1.5	0.1
0.01	1	0.437133355000697	1	31	137.141836663999	NA	1	0	1.18	1	123.564873996998	124.002007351999	"6"	17128.303994886	17120.885808585	1.5	0.1
0.01	1	0.568492982998578	1	31	137.141836663999	NA	1	0	1.18	1	124.232619192	124.801112174999	"6"	17128.303994886	17120.885808585	1.5	0.1
0.01	1	0.350857662000635	1	31	137.141836663999	NA	1	0	1.18	1	125.033973498998	125.384831160998	"6"	17128.303994886	17120.885808585	1.5	0.1
0.01	1	0.384259054000722	1	31	137.141836663999	NA	1	0	1.18	1	125.618285331999	126.002544385999	"6"	17128.303994886	17120.885808585	1.5	0.1
0.01	1	0.382613173998834	1	31	137.141836663999	NA	1	0	1.18	1	126.235993404	126.618606577998	"6"	17128.303994886	17120.885808585	1.5	0.1
0.01	1	0.444599552	1	31	137.141836663999	NA	1	0	1.18	1	126.853733011998	127.298332563998	"6"	17128.303994886	17120.885808585	1.5	0.1
0.01	1	0.424034186999052	1	31	137.141836663999	NA	1	0	1.18	1	127.521547377	127.945581563999	"6"	17128.303994886	17120.885808585	1.5	0.1
0.01	1	0.413801259001048	1	31	137.141836663999	NA	1	0	1.18	1	128.172624573999	128.586425833	"6"	17128.303994886	17120.885808585	1.5	0.1
0.01	1	0.384981057002733	1	31	137.141836663999	NA	1	0	1.18	1	128.823713563997	129.208694621	"6"	17128.303994886	17120.885808585	1.5	0.1
0.01	1	0.431903548000264	1	31	137.141836663999	NA	1	0	1.18	1	129.441346916999	129.873250465	"6"	17128.303994886	17120.885808585	1.5	0.1
0.01	1	0.477414921999298	1	31	137.141836663999	NA	1	0	1.18	1	130.109185993999	130.586600915998	"6"	17128.303994886	17120.885808585	1.5	0.1
0.01	1	0.438408460999199	1	31	137.141836663999	NA	1	0	1.18	1	130.810314232	131.248722692999	"6"	17128.303994886	17120.885808585	1.5	0.1
0.01	1	0.410615183001937	1	31	137.141836663999	NA	1	0	1.18	1	131.478108626998	131.88872381	"6"	17128.303994886	17120.885808585	1.5	0.1
0.01	1	0.416142801001115	1	31	137.141836663999	NA	1	0	1.18	1	132.129327521998	132.545470322999	"6"	17128.303994886	17120.885808585	1.5	0.1
0.01	1	0.381459492997237	1	31	137.141836663999	NA	1	0	1.18	1	132.780376332001	133.161835824998	"6"	17128.303994886	17120.885808585	1.5	0.1
0.01	1	0.38774444199953	1	31	137.141836663999	NA	1	0	1.18	1	133.397993521998	133.785737963997	"6"	17128.303994886	17120.885808585	1.5	0.1
0.01	1	0.377446598999086	1	31	137.141836663999	NA	1	0	1.18	1	134.015769033998	134.393215632997	"6"	17128.303994886	17120.885808585	1.5	0.1
0.01	1	0.433629693998228	1	31	137.141836663999	NA	1	0	1.18	1	134.616710062	135.050339755999	"6"	17128.303994886	17120.885808585	1.5	0.1
0.01	1	0.381650154999079	1	31	137.141836663999	NA	1	0	1.18	1	135.284524552	135.666174706999	"6"	17128.303994886	17120.885808585	1.5	0.1
0.01	1	0.436064908000844	1	31	137.141836663999	NA	1	0	1.18	1	135.902280556998	136.338345464999	"6"	17128.303994886	17120.885808585	1.5	0.1
0.01	1	0.455303770999308	1	31	137.141836663999	NA	1	0	1.18	1	136.570150852	137.025454622999	"6"	17128.303994886	17120.885808585	1.5	0.1
0.01	1	2.58609172400247	1	120	NA	143.299192243998	0	0.01	1.19	1	139.191187968998	141.777279693	"7"	17128.303994886	17120.885808585	1.5	0.1
0.01	1	1.28500394200091	2	120	NA	143.299192243998	0	0.01	1.19	1	142.012542356999	143.297546299	"7"	17128.303994886	17120.885808585	1.5	0.1
0.01	1	2.05748171199957	1	86	NA	150.811800502997	0	0.06	1.25	1	145.351486741998	147.408968453998	"8"	17128.303994886	17120.885808585	1.5	0.1
0.01	1	0.291777144997468	1	86	NA	150.811800502997	0	0.06	1.25	1	147.638647009	147.930424153998	"8"	17128.303994886	17120.885808585	1.5	0.1
0.01	1	0.318426080000791	1	86	NA	150.811800502997	0	0.06	1.25	1	148.156183823998	148.474609903998	"8"	17128.303994886	17120.885808585	1.5	0.1
0.01	1	0.294386378001946	1	86	NA	150.811800502997	0	0.06	1.25	1	148.707198446999	149.001584825	"8"	17128.303994886	17120.885808585	1.5	0.1
0.01	1	0.360455575999367	1	86	NA	150.811800502997	0	0.06	1.25	1	149.224739788999	149.585195364998	"8"	17128.303994886	17120.885808585	1.5	0.1
0.01	1	0.425719915001537	1	86	NA	150.811800502997	0	0.06	1.25	1	149.808958728998	150.234678643999	"8"	17128.303994886	17120.885808585	1.5	0.1
0.01	1	0.350094276000164	2	86	NA	150.811800502997	0	0.06	1.25	1	150.460099974	150.81019425	"8"	17128.303994886	17120.885808585	1.5	0.1
0.01	1	0.889070963999984	1	92	NA	190.130447953998	0	0.5	1.75	1	152.864187272	153.753258236	"9"	17128.303994886	17120.885808585	1.5	0.1
0.01	1	0.394873220000591	1	92	NA	190.130447953998	0	0.5	1.75	1	153.982679591998	154.377552811999	"9"	17128.303994886	17120.885808585	1.5	0.1
0.01	1	0.408962036002777	1	92	NA	190.130447953998	0	0.5	1.75	1	154.617015838998	155.025977875001	"9"	17128.303994886	17120.885808585	1.5	0.1
0.01	1	0.406217198000377	1	92	NA	190.130447953998	0	0.5	1.75	1	155.251393991999	155.657611189999	"9"	17128.303994886	17120.885808585	1.5	0.1
0.01	1	0.372751955997956	1	92	NA	190.130447953998	0	0.5	1.75	1	155.885877262001	156.258629217999	"9"	17128.303994886	17120.885808585	1.5	0.1
0.01	1	0.35392019199935	1	92	NA	190.130447953998	0	0.5	1.75	1	156.487026887	156.840947078999	"9"	17128.303994886	17120.885808585	1.5	0.1
0.01	1	0.402550745002372	1	92	NA	190.130447953998	0	0.5	1.75	1	157.071190678998	157.473741424001	"9"	17128.303994886	17120.885808585	1.5	0.1
0.01	1	0.39962841900342	1	92	NA	190.130447953998	0	0.5	1.75	1	157.705524908997	158.105153328001	"9"	17128.303994886	17120.885808585	1.5	0.1
0.01	1	0.349012114998914	1	92	NA	190.130447953998	0	0.5	1.75	1	158.339996444	158.689008558998	"9"	17128.303994886	17120.885808585	1.5	0.1
0.01	1	0.428850577998674	1	92	NA	190.130447953998	0	0.5	1.75	1	158.924248797	159.353099374999	"9"	17128.303994886	17120.885808585	1.5	0.1
0.01	1	0.427204993000487	1	92	NA	190.130447953998	0	0.5	1.75	1	159.575402328999	160.002607322	"9"	17128.303994886	17120.885808585	1.5	0.1
0.01	1	0.358411036002508	1	92	NA	190.130447953998	0	0.5	1.75	1	160.226494808998	160.584905845	"9"	17128.303994886	17120.885808585	1.5	0.1
0.01	1	0.414408740001818	1	92	NA	190.130447953998	0	0.5	1.75	1	160.810878061999	161.225286802	"9"	17128.303994886	17120.885808585	1.5	0.1
0.01	1	0.355694836998737	1	92	NA	190.130447953998	0	0.5	1.75	1	161.461905324999	161.817600161998	"9"	17128.303994886	17120.885808585	1.5	0.1
0.01	1	0.338990878000914	1	92	NA	190.130447953998	0	0.5	1.75	1	162.046246476999	162.385237355	"9"	17128.303994886	17120.885808585	1.5	0.1
0.01	1	0.347129345998837	1	92	NA	190.130447953998	0	0.5	1.75	1	162.613772704	162.960902049999	"9"	17128.303994886	17120.885808585	1.5	0.1
0.01	1	0.371324018997257	1	92	NA	190.130447953998	0	0.5	1.75	1	163.198161196	163.569485214997	"9"	17128.303994886	17120.885808585	1.5	0.1
0.01	1	0.3541773859979	1	92	NA	190.130447953998	0	0.5	1.75	1	163.799186967	164.153364352998	"9"	17128.303994886	17120.885808585	1.5	0.1
0.01	1	0.354410829997505	1	92	NA	190.130447953998	0	0.5	1.75	1	164.383558129	164.737968958998	"9"	17128.303994886	17120.885808585	1.5	0.1
0.01	1	0.409545770002296	1	92	NA	190.130447953998	0	0.5	1.75	1	164.967741131997	165.377286901999	"9"	17128.303994886	17120.885808585	1.5	0.1
0.01	1	0.430423331999918	1	92	NA	190.130447953998	0	0.5	1.75	1	165.602224486	166.032647818	"9"	17128.303994886	17120.885808585	1.5	0.1
0.01	1	0.419655255001999	1	92	NA	190.130447953998	0	0.5	1.75	1	166.269949073998	166.689604329	"9"	17128.303994886	17120.885808585	1.5	0.1
0.01	1	0.383462812998914	1	92	NA	190.130447953998	0	0.5	1.75	1	166.921205142	167.304667954999	"9"	17128.303994886	17120.885808585	1.5	0.1
0.01	1	0.390118768998946	1	92	NA	190.130447953998	0	0.5	1.75	1	167.538809102	167.928927870998	"9"	17128.303994886	17120.885808585	1.5	0.1
0.01	1	0.413012247001461	1	92	NA	190.130447953998	0	0.5	1.75	1	168.156479428999	168.569491676	"9"	17128.303994886	17120.885808585	1.5	0.1
0.01	1	0.386463725000795	1	92	NA	190.130447953998	0	0.5	1.75	1	168.790922331998	169.177386056999	"9"	17128.303994886	17120.885808585	1.5	0.1
0.01	1	0.49019666499953	1	92	NA	190.130447953998	0	0.5	1.75	1	169.408595123998	169.898791788997	"9"	17128.303994886	17120.885808585	1.5	0.1
0.01	1	0.490967298002943	1	92	NA	190.130447953998	0	0.5	1.75	1	170.126507893998	170.617475192001	"9"	17128.303994886	17120.885808585	1.5	0.1
0.01	1	0.573747992999415	1	92	NA	190.130447953998	0	0.5	1.75	1	170.844438053999	171.418186046998	"9"	17128.303994886	17120.885808585	1.5	0.1
0.01	1	0.956299432000378	1	92	NA	190.130447953998	0	0.5	1.75	1	171.645664971998	172.601964403999	"9"	17128.303994886	17120.885808585	1.5	0.1
0.01	1	0.778804972997023	1	92	NA	190.130447953998	0	0.5	1.75	1	172.831104982	173.609909954997	"9"	17128.303994886	17120.885808585	1.5	0.1
0.01	1	0.567483882001397	1	92	NA	190.130447953998	0	0.5	1.75	1	173.849358781998	174.416842663999	"9"	17128.303994886	17120.885808585	1.5	0.1
0.01	1	0.542119714002183	1	92	NA	190.130447953998	0	0.5	1.75	1	174.650818243997	175.192937958	"9"	17128.303994886	17120.885808585	1.5	0.1
0.01	1	0.485954515999765	1	92	NA	190.130447953998	0	0.5	1.75	1	175.418768197	175.904722713	"9"	17128.303994886	17120.885808585	1.5	0.1
0.01	1	0.425725094999507	1	92	NA	190.130447953998	0	0.5	1.75	1	176.136607241999	176.562332336998	"9"	17128.303994886	17120.885808585	1.5	0.1
0.01	1	0.503175031000865	1	92	NA	190.130447953998	0	0.5	1.75	1	176.787684581999	177.290859613	"9"	17128.303994886	17120.885808585	1.5	0.1
0.01	1	0.456709289999708	1	92	NA	190.130447953998	0	0.5	1.75	1	177.522219901999	177.978929191999	"9"	17128.303994886	17120.885808585	1.5	0.1
0.01	1	0.482827455001825	1	92	NA	190.130447953998	0	0.5	1.75	1	178.206869221998	178.689696677	"9"	17128.303994886	17120.885808585	1.5	0.1
0.01	1	0.45294657499835	1	92	NA	190.130447953998	0	0.5	1.75	1	178.924640036999	179.377586611998	"9"	17128.303994886	17120.885808585	1.5	0.1
0.01	1	0.496085270999174	1	92	NA	190.130447953998	0	0.5	1.75	1	179.609089342001	180.105174613	"9"	17128.303994886	17120.885808585	1.5	0.1
0.01	1	0.40965500799939	1	92	NA	190.130447953998	0	0.5	1.75	1	180.343733368998	180.753388376997	"9"	17128.303994886	17120.885808585	1.5	0.1
0.01	1	0.390818271000171	1	92	NA	190.130447953998	0	0.5	1.75	1	180.978064682	181.368882953	"9"	17128.303994886	17120.885808585	1.5	0.1
0.01	1	0.469798671998433	1	92	NA	190.130447953998	0	0.5	1.75	1	181.595752846999	182.065551518997	"9"	17128.303994886	17120.885808585	1.5	0.1
0.01	1	0.969630395000422	1	92	NA	190.130447953998	0	0.5	1.75	1	182.296941656998	183.266572051998	"9"	17128.303994886	17120.885808585	1.5	0.1
0.01	1	0.399851930000295	1	92	NA	190.130447953998	0	0.5	1.75	1	183.498934722	183.898786652	"9"	17128.303994886	17120.885808585	1.5	0.1
0.01	1	0.00385371599986684	1	92	NA	190.130447953998	0	0.5	1.75	1	184.133473116999	184.137326832999	"9"	17128.303994886	17120.885808585	1.5	0.1
0.01	1	1.75397916099973	1	92	NA	190.130447953998	0	0.5	1.75	1	184.367008708999	186.120987869999	"9"	17128.303994886	17120.885808585	1.5	0.1
0.01	1	0.392955044000701	1	92	NA	190.130447953998	0	0.5	1.75	1	186.353791501999	186.746746545999	"9"	17128.303994886	17120.885808585	1.5	0.1
0.01	1	0.413977844000328	1	92	NA	190.130447953998	0	0.5	1.75	1	186.988161416997	187.402139260998	"9"	17128.303994886	17120.885808585	1.5	0.1
0.01	1	0.53854334800053	1	92	NA	190.130447953998	0	0.5	1.75	1	187.639281718999	188.177825067	"9"	17128.303994886	17120.885808585	1.5	0.1
0.01	1	1.72155641400241	2	92	NA	190.130447953998	0	0.5	1.75	1	188.407299791998	190.128856206	"9"	17128.303994886	17120.885808585	1.5	0.1
0.01	1	1.11809940899911	1	19	198.060164376999	NA	1	0	1.75	1	192.180193032	193.298292440999	"10"	17128.303994886	17120.885808585	1.5	0.1
0.01	1	0.0523736210016068	1	19	198.060164376999	NA	1	0	1.75	1	193.532544393998	193.584918015	"10"	17128.303994886	17120.885808585	1.5	0.1
0.01	1	0.00457780500073568	1	19	198.060164376999	NA	1	0	1.75	1	193.816416016998	193.820993821999	"10"	17128.303994886	17120.885808585	1.5	0.1
0.01	1	0.0959303820018249	1	19	198.060164376999	NA	1	0	1.75	1	194.050053528998	194.145983910999	"10"	17128.303994886	17120.885808585	1.5	0.1
0.01	1	0.0038856629980728	1	19	198.060164376999	NA	1	0	1.75	1	194.383933292	194.387818954998	"10"	17128.303994886	17120.885808585	1.5	0.1
0.01	1	0.0633946850030043	1	19	198.060164376999	NA	1	0	1.75	1	194.617674621997	194.681069307	"10"	17128.303994886	17120.885808585	1.5	0.1
0.01	1	0.00460700199982966	1	19	198.060164376999	NA	1	0	1.75	1	194.918215361999	194.922822363998	"10"	17128.303994886	17120.885808585	1.5	0.1
0.01	1	0.00424950999877183	1	19	198.060164376999	NA	1	0	1.75	1	195.151917031999	195.156166541998	"10"	17128.303994886	17120.885808585	1.5	0.1
0.01	1	0.0959032200007641	1	19	198.060164376999	NA	1	0	1.75	1	195.385627076997	195.481530296998	"10"	17128.303994886	17120.885808585	1.5	0.1
0.01	1	0.00369421700088424	1	19	198.060164376999	NA	1	0	1.75	1	195.719590781999	195.723284999	"10"	17128.303994886	17120.885808585	1.5	0.1
0.01	1	0.0156108480005059	1	19	198.060164376999	NA	1	0	1.75	1	195.953247401998	195.968858249998	"10"	17128.303994886	17120.885808585	1.5	0.1
0.01	1	0.00462183499985258	1	19	198.060164376999	NA	1	0	1.75	1	196.203734301998	196.208356136998	"10"	17128.303994886	17120.885808585	1.5	0.1
0.01	1	0.00223783500041463	1	19	198.060164376999	NA	1	0	1.75	1	196.437344566999	196.439582401999	"10"	17128.303994886	17120.885808585	1.5	0.1
0.01	1	0.0356368779976037	1	19	198.060164376999	NA	1	0	1.75	1	196.671061112	196.706697989997	"10"	17128.303994886	17120.885808585	1.5	0.1
0.01	1	0.0316179559995362	1	19	198.060164376999	NA	1	0	1.75	1	196.938137536999	196.969755492999	"10"	17128.303994886	17120.885808585	1.5	0.1
0.01	1	0.0137896550004371	1	19	198.060164376999	NA	1	0	1.75	1	197.205572986997	197.219362641998	"10"	17128.303994886	17120.885808585	1.5	0.1
0.01	1	0.00983624000218697	1	19	198.060164376999	NA	1	0	1.75	1	197.455657236998	197.465493477001	"10"	17128.303994886	17120.885808585	1.5	0.1
0.01	1	0.0045622280013049	1	19	198.060164376999	NA	1	0	1.75	1	197.689435808999	197.693998037001	"10"	17128.303994886	17120.885808585	1.5	0.1
0.01	1	0.0153175439991173	1	19	198.060164376999	NA	1	0	1.75	1	197.923237596999	197.938555140998	"10"	17128.303994886	17120.885808585	1.5	0.1
0.01	1	0.363348781000241	1	85	NA	204.195525052	0	0.13	1.88	1	200.110212852	200.473561633	"11"	17128.303994886	17120.885808585	1.5	0.1
0.01	1	0.0658953390011447	1	85	NA	204.195525052	0	0.13	1.88	1	200.711302341999	200.777197681	"11"	17128.303994886	17120.885808585	1.5	0.1
0.01	1	0.00376607900034287	1	85	NA	204.195525052	0	0.13	1.88	1	201.011775491999	201.015541571	"11"	17128.303994886	17120.885808585	1.5	0.1
0.01	1	0.0357978600004571	1	85	NA	204.195525052	0	0.13	1.88	1	201.245561651998	201.281359511999	"11"	17128.303994886	17120.885808585	1.5	0.1
0.01	1	0.00458029999936116	1	85	NA	204.195525052	0	0.13	1.88	1	201.512814566999	201.517394866998	"11"	17128.303994886	17120.885808585	1.5	0.1
0.01	1	0.0557885470007022	1	85	NA	204.195525052	0	0.13	1.88	1	201.746333714	201.802122261	"11"	17128.303994886	17120.885808585	1.5	0.1
0.01	1	0.00429417800114607	1	85	NA	204.195525052	0	0.13	1.88	1	202.030140048999	202.034434227	"11"	17128.303994886	17120.885808585	1.5	0.1
0.01	1	0.0498695029964438	1	85	NA	204.195525052	0	0.13	1.88	1	202.263868407001	202.313737909997	"11"	17128.303994886	17120.885808585	1.5	0.1
0.01	1	0.00462413700006437	1	85	NA	204.195525052	0	0.13	1.88	1	202.547738612	202.552362749	"11"	17128.303994886	17120.885808585	1.5	0.1
0.01	1	0.00389372499921592	1	85	NA	204.195525052	0	0.13	1.88	1	202.781419981999	202.785313706998	"11"	17128.303994886	17120.885808585	1.5	0.1
0.01	1	0.058863755002676	1	85	NA	204.195525052	0	0.13	1.88	1	203.015203028997	203.074066784	"11"	17128.303994886	17120.885808585	1.5	0.1
0.01	1	0.022536645999935	1	85	NA	204.195525052	0	0.13	1.88	1	203.298981846998	203.321518492998	"11"	17128.303994886	17120.885808585	1.5	0.1
0.01	1	0.00456831200062879	1	85	NA	204.195525052	0	0.13	1.88	1	203.549444071999	203.554012384	"11"	17128.303994886	17120.885808585	1.5	0.1
0.01	1	0.410920031001297	2	85	NA	204.195525052	0	0.13	1.88	1	203.783037221998	204.193957252999	"11"	17128.303994886	17120.885808585	1.5	0.1
0.01	1	0.443152359999658	1	108	NA	209.451534993997	0	0.01	1.89	1	206.253877404	206.697029764	"12"	17128.303994886	17120.885808585	1.5	0.1
0.01	1	2.51162338900031	2	108	NA	209.451534993997	0	0.01	1.89	1	206.938354113998	209.449977502998	"12"	17128.303994886	17120.885808585	1.5	0.1
0.01	1	1.86680414199873	1	113	NA	219.060059772	0	0.11	2	1	211.496022437001	213.362826578999	"13"	17128.303994886	17120.885808585	1.5	0.1
0.01	1	0.233445195000968	1	113	NA	219.060059772	0	0.11	2	1	213.599549123999	213.832994319	"13"	17128.303994886	17120.885808585	1.5	0.1
0.01	1	0.367494811001961	1	113	NA	219.060059772	0	0.11	2	1	214.067011373998	214.434506185	"13"	17128.303994886	17120.885808585	1.5	0.1
0.01	1	0.27685045799808	1	113	NA	219.060059772	0	0.11	2	1	214.668093071999	214.944943529998	"13"	17128.303994886	17120.885808585	1.5	0.1
0.01	1	0.272077568002715	1	113	NA	219.060059772	0	0.11	2	1	215.168894676997	215.440972245	"13"	17128.303994886	17120.885808585	1.5	0.1
0.01	1	0.22760131099858	1	113	NA	219.060059772	0	0.11	2	1	215.669808519	215.897409829999	"13"	17128.303994886	17120.885808585	1.5	0.1
0.01	1	0.281781855002919	1	113	NA	219.060059772	0	0.11	2	1	216.120464051997	216.402245907	"13"	17128.303994886	17120.885808585	1.5	0.1
0.01	1	0.284683578000113	1	113	NA	219.060059772	0	0.11	2	1	216.638044063999	216.922727641999	"13"	17128.303994886	17120.885808585	1.5	0.1
0.01	1	0.286010454998177	1	113	NA	219.060059772	0	0.11	2	1	217.155571837	217.441582291998	"13"	17128.303994886	17120.885808585	1.5	0.1
0.01	1	0.28773382700092	1	113	NA	219.060059772	0	0.11	2	1	217.673066404997	217.960800231998	"13"	17128.303994886	17120.885808585	1.5	0.1
0.01	1	0.315721055998438	1	113	NA	219.060059772	0	0.11	2	1	218.190687847	218.506408902998	"13"	17128.303994886	17120.885808585	1.5	0.1
0.01	1	0.316931972996827	2	113	NA	219.060059772	0	0.11	2	1	218.741558129001	219.058490101997	"13"	17128.303994886	17120.885808585	1.5	0.1
0.01	1	0.994207879997703	1	66	NA	234.010332807	0	0.25	2.25	1	221.112265787	222.106473666998	"14"	17128.303994886	17120.885808585	1.5	0.1
0.01	1	0.222752910998679	1	66	NA	234.010332807	0	0.25	2.25	1	222.347649404001	222.570402314999	"14"	17128.303994886	17120.885808585	1.5	0.1
0.01	1	0.20311537499947	1	66	NA	234.010332807	0	0.25	2.25	1	222.798347633998	223.001463008997	"14"	17128.303994886	17120.885808585	1.5	0.1
0.01	1	0.200346829999035	1	66	NA	234.010332807	0	0.25	2.25	1	223.232409811	223.432756640999	"14"	17128.303994886	17120.885808585	1.5	0.1
0.01	1	0.207355802998791	1	66	NA	234.010332807	0	0.25	2.25	1	223.666575042	223.873930844999	"14"	17128.303994886	17120.885808585	1.5	0.1
0.01	1	0.197350463000475	1	66	NA	234.010332807	0	0.25	2.25	1	224.100595296997	224.297945759998	"14"	17128.303994886	17120.885808585	1.5	0.1
0.01	1	0.211214831000689	1	66	NA	234.010332807	0	0.25	2.25	1	224.534567161998	224.745781992999	"14"	17128.303994886	17120.885808585	1.5	0.1
0.01	1	0.257658958998945	1	66	NA	234.010332807	0	0.25	2.25	1	224.968731272998	225.226390231997	"14"	17128.303994886	17120.885808585	1.5	0.1
0.01	1	0.228856077999808	1	66	NA	234.010332807	0	0.25	2.25	1	225.452807731999	225.681663809999	"14"	17128.303994886	17120.885808585	1.5	0.1
0.01	1	0.192880067999795	1	66	NA	234.010332807	0	0.25	2.25	1	225.920312243998	226.113192311997	"14"	17128.303994886	17120.885808585	1.5	0.1
0.01	1	0.19974202800222	1	66	NA	234.010332807	0	0.25	2.25	1	226.337671401998	226.53741343	"14"	17128.303994886	17120.885808585	1.5	0.1
0.01	1	0.253725260998181	1	66	NA	234.010332807	0	0.25	2.25	1	226.771665017	227.025390277999	"14"	17128.303994886	17120.885808585	1.5	0.1
0.01	1	0.193814949001535	1	66	NA	234.010332807	0	0.25	2.25	1	227.255812586998	227.449627536	"14"	17128.303994886	17120.885808585	1.5	0.1
0.01	1	0.248411494998436	1	66	NA	234.010332807	0	0.25	2.25	1	227.673194793999	227.921606288997	"14"	17128.303994886	17120.885808585	1.5	0.1
0.01	1	0.204837540997687	1	66	NA	234.010332807	0	0.25	2.25	1	228.157462502	228.362300042998	"14"	17128.303994886	17120.885808585	1.5	0.1
0.01	1	0.234239408000576	1	66	NA	234.010332807	0	0.25	2.25	1	228.591444962	228.82568437	"14"	17128.303994886	17120.885808585	1.5	0.1
0.01	1	0.223390264000045	1	66	NA	234.010332807	0	0.25	2.25	1	229.058892846999	229.282283110999	"14"	17128.303994886	17120.885808585	1.5	0.1
0.01	1	0.251274233000004	1	66	NA	234.010332807	0	0.25	2.25	1	229.509662794	229.760937027	"14"	17128.303994886	17120.885808585	1.5	0.1
0.01	1	0.231903914002032	1	66	NA	234.010332807	0	0.25	2.25	1	229.993933146998	230.225837061	"14"	17128.303994886	17120.885808585	1.5	0.1
0.01	1	0.236218305002694	1	66	NA	234.010332807	0	0.25	2.25	1	230.461234693998	230.697452999	"14"	17128.303994886	17120.885808585	1.5	0.1
0.01	1	0.224153569000919	1	66	NA	234.010332807	0	0.25	2.25	1	230.928774051998	231.152927620999	"14"	17128.303994886	17120.885808585	1.5	0.1
0.01	1	0.270596095997462	1	66	NA	234.010332807	0	0.25	2.25	1	231.379512797001	231.650108892998	"14"	17128.303994886	17120.885808585	1.5	0.1
0.01	1	0.256380777998857	1	66	NA	234.010332807	0	0.25	2.25	1	231.880376907	232.136757684999	"14"	17128.303994886	17120.885808585	1.5	0.1
0.01	1	0.221935136996763	1	66	NA	234.010332807	0	0.25	2.25	1	232.364470402001	232.586405538997	"14"	17128.303994886	17120.885808585	1.5	0.1
0.01	1	0.250686212999426	1	66	NA	234.010332807	0	0.25	2.25	1	232.815196636999	233.065882849998	"14"	17128.303994886	17120.885808585	1.5	0.1
0.01	1	0.709272659001726	2	66	NA	234.010332807	0	0.25	2.25	1	233.299458321999	234.008730981001	"14"	17128.303994886	17120.885808585	1.5	0.1
0.01	1	0.83654281499912	1	64	NA	249.370318524998	0	0.25	2.5	1	236.053967877	236.890510691999	"1"	17128.303994886	17120.885808585	1.5	0.1
0.01	1	0.151623538000422	1	64	NA	249.370318524998	0	0.25	2.5	1	237.122508244	237.274131782	"1"	17128.303994886	17120.885808585	1.5	0.1
0.01	1	0.190737995002564	1	64	NA	249.370318524998	0	0.25	2.5	1	237.506446601998	237.697184597	"1"	17128.303994886	17120.885808585	1.5	0.1
0.01	1	0.142197690998728	1	64	NA	249.370318524998	0	0.25	2.5	1	237.923801614001	238.065999304999	"1"	17128.303994886	17120.885808585	1.5	0.1
0.01	1	0.206421446000604	1	64	NA	249.370318524998	0	0.25	2.5	1	238.291081146999	238.497502593	"1"	17128.303994886	17120.885808585	1.5	0.1
0.01	1	0.172199172000546	1	64	NA	249.370318524998	0	0.25	2.5	1	238.725165591997	238.897364763998	"1"	17128.303994886	17120.885808585	1.5	0.1
0.01	1	0.179072357001132	1	64	NA	249.370318524998	0	0.25	2.5	1	239.125861041997	239.304933398998	"1"	17128.303994886	17120.885808585	1.5	0.1
0.01	1	0.162970179000695	1	64	NA	249.370318524998	0	0.25	2.5	1	239.543277286997	239.706247465998	"1"	17128.303994886	17120.885808585	1.5	0.1
0.01	1	0.137312081998971	1	64	NA	249.370318524998	0	0.25	2.5	1	239.943945182	240.081257263999	"1"	17128.303994886	17120.885808585	1.5	0.1
0.01	1	0.147396879998269	1	64	NA	249.370318524998	0	0.25	2.5	1	240.311211572	240.458608451998	"1"	17128.303994886	17120.885808585	1.5	0.1
0.01	1	0.171382169999561	1	64	NA	249.370318524998	0	0.25	2.5	1	240.695156346999	240.866538516999	"1"	17128.303994886	17120.885808585	1.5	0.1
0.01	1	0.169921517001058	1	64	NA	249.370318524998	0	0.25	2.5	1	241.095893301997	241.265814818998	"1"	17128.303994886	17120.885808585	1.5	0.1
0.01	1	0.114135913001519	1	64	NA	249.370318524998	0	0.25	2.5	1	241.496503488997	241.610639401999	"1"	17128.303994886	17120.885808585	1.5	0.1
0.01	1	0.147051762996853	1	64	NA	249.370318524998	0	0.25	2.5	1	241.847061287001	241.994113049997	"1"	17128.303994886	17120.885808585	1.5	0.1
0.01	1	0.745740607999323	1	64	NA	249.370318524998	0	0.25	2.5	1	242.231077834	242.976818441999	"1"	17128.303994886	17120.885808585	1.5	0.1
0.01	1	0.353658398998959	1	64	NA	249.370318524998	0	0.25	2.5	1	243.216050456998	243.569708855997	"1"	17128.303994886	17120.885808585	1.5	0.1
0.01	1	0.313815334997344	1	64	NA	249.370318524998	0	0.25	2.5	1	243.800430862	244.114246196998	"1"	17128.303994886	17120.885808585	1.5	0.1
0.01	1	0.267049111000233	1	64	NA	249.370318524998	0	0.25	2.5	1	244.351298641999	244.618347752999	"1"	17128.303994886	17120.885808585	1.5	0.1
0.01	1	0.229213243997947	1	64	NA	249.370318524998	0	0.25	2.5	1	244.852138184	245.081351427998	"1"	17128.303994886	17120.885808585	1.5	0.1
0.01	1	0.314818454000488	1	64	NA	249.370318524998	0	0.25	2.5	1	245.319610286999	245.634428740999	"1"	17128.303994886	17120.885808585	1.5	0.1
0.01	1	0.795451286998286	1	64	NA	249.370318524998	0	0.25	2.5	1	245.870572337	246.666023623999	"1"	17128.303994886	17120.885808585	1.5	0.1
0.01	1	0.239945177003392	1	64	NA	249.370318524998	0	0.25	2.5	1	246.905559446997	247.145504624001	"1"	17128.303994886	17120.885808585	1.5	0.1
0.01	1	0.301754682001047	1	64	NA	249.370318524998	0	0.25	2.5	1	247.373015554	247.674770236001	"1"	17128.303994886	17120.885808585	1.5	0.1
0.01	1	0.229710517000058	1	64	NA	249.370318524998	0	0.25	2.5	1	247.907281475	248.136991992	"1"	17128.303994886	17120.885808585	1.5	0.1
0.01	1	0.274231343999418	1	64	NA	249.370318524998	0	0.25	2.5	1	248.374719161999	248.648950505998	"1"	17128.303994886	17120.885808585	1.5	0.1
0.01	1	0.493106969999644	2	64	NA	249.370318524998	0	0.25	2.5	1	248.875570082	249.368677052	"1"	17128.303994886	17120.885808585	1.5	0.1
0.01	1	0.700911487001576	1	98	NA	267.452333183999	0	0.25	2.75	1	251.413218836999	252.114130324	"15"	17128.303994886	17120.885808585	1.5	0.1
0.01	1	0.180721311000525	1	98	NA	267.452333183999	0	0.25	2.75	1	252.348157946999	252.528879258	"15"	17128.303994886	17120.885808585	1.5	0.1
0.01	1	0.18063442499988	1	98	NA	267.452333183999	0	0.25	2.75	1	252.765389247001	252.946023672001	"15"	17128.303994886	17120.885808585	1.5	0.1
0.01	1	0.153885871997772	1	98	NA	267.452333183999	0	0.25	2.75	1	253.182818062	253.336703933997	"15"	17128.303994886	17120.885808585	1.5	0.1
0.01	1	0.274244519998319	1	98	NA	267.452333183999	0	0.25	2.75	1	253.566808891999	253.841053411998	"15"	17128.303994886	17120.885808585	1.5	0.1
0.01	1	0.334435797001788	1	98	NA	267.452333183999	0	0.25	2.75	1	254.067580563998	254.402016361	"15"	17128.303994886	17120.885808585	1.5	0.1
0.01	1	0.237631153999246	1	98	NA	267.452333183999	0	0.25	2.75	1	254.635286986999	254.872918140998	"15"	17128.303994886	17120.885808585	1.5	0.1
0.01	1	0.227461520997167	1	98	NA	267.452333183999	0	0.25	2.75	1	255.102761816001	255.330223336998	"15"	17128.303994886	17120.885808585	1.5	0.1
0.01	1	0.255921239997406	1	98	NA	267.452333183999	0	0.25	2.75	1	255.570270852	255.826192091998	"15"	17128.303994886	17120.885808585	1.5	0.1
0.01	1	0.268004780999036	1	98	NA	267.452333183999	0	0.25	2.75	1	256.054483147	256.322487927999	"15"	17128.303994886	17120.885808585	1.5	0.1
0.01	1	0.581532408999919	1	98	NA	267.452333183999	0	0.25	2.75	1	256.555224363998	257.136756772998	"15"	17128.303994886	17120.885808585	1.5	0.1
0.01	1	0.100243295997643	1	98	NA	267.452333183999	0	0.25	2.75	1	257.373148757	257.473392052998	"15"	17128.303994886	17120.885808585	1.5	0.1
0.01	1	0.686478747000365	1	98	NA	267.452333183999	0	0.25	2.75	1	257.707048511998	258.393527258999	"15"	17128.303994886	17120.885808585	1.5	0.1
0.01	1	0.00206929400155786	1	98	NA	267.452333183999	0	0.25	2.75	1	258.625356150998	258.627425445	"15"	17128.303994886	17120.885808585	1.5	0.1
0.01	1	0.783833004999906	1	98	NA	267.452333183999	0	0.25	2.75	1	258.859020686999	259.642853691999	"15"	17128.303994886	17120.885808585	1.5	0.1
0.01	1	0.00383170100030839	1	98	NA	267.452333183999	0	0.25	2.75	1	259.877435373997	259.881267074998	"15"	17128.303994886	17120.885808585	1.5	0.1
0.01	1	0.611366024000745	1	98	NA	267.452333183999	0	0.25	2.75	1	260.111231586998	260.722597610998	"15"	17128.303994886	17120.885808585	1.5	0.1
0.01	1	0.00395782199848327	1	98	NA	267.452333183999	0	0.25	2.75	1	260.945840287	260.949798108999	"15"	17128.303994886	17120.885808585	1.5	0.1
0.01	1	0.829876781001076	1	98	NA	267.452333183999	0	0.25	2.75	1	261.179647543999	262.009524325	"15"	17128.303994886	17120.885808585	1.5	0.1
0.01	1	0.00391972500074189	1	98	NA	267.452333183999	0	0.25	2.75	1	262.248027414	262.251947139001	"15"	17128.303994886	17120.885808585	1.5	0.1
0.01	1	0.911074777999602	1	98	NA	267.452333183999	0	0.25	2.75	1	262.481819737	263.392894515	"15"	17128.303994886	17120.885808585	1.5	0.1
0.01	1	0.257228872000269	1	98	NA	267.452333183999	0	0.25	2.75	1	263.617015931999	263.874244803999	"15"	17128.303994886	17120.885808585	1.5	0.1
0.01	1	1.14866086899929	1	98	NA	267.452333183999	0	0.25	2.75	1	264.101124846999	265.249785715998	"15"	17128.303994886	17120.885808585	1.5	0.1
0.01	1	0.835734929001774	1	98	NA	267.452333183999	0	0.25	2.75	1	265.486792316999	266.322527246	"15"	17128.303994886	17120.885808585	1.5	0.1
0.01	1	0.150096928999119	1	98	NA	267.452333183999	0	0.25	2.75	1	266.555375942	266.705472870999	"15"	17128.303994886	17120.885808585	1.5	0.1
0.01	1	0.511481482997624	2	98	NA	267.452333183999	0	0.25	2.75	1	266.939252689001	267.450734171998	"15"	17128.303994886	17120.885808585	1.5	0.1
0.01	1	1.15589549099968	1	84	NA	299.355736769998	0	0.5	3.25	1	269.493580345999	270.649475836999	"16"	17128.303994886	17120.885808585	1.5	0.1
0.01	1	0.234436308001023	1	84	NA	299.355736769998	0	0.5	3.25	1	270.879218656999	271.113654965	"16"	17128.303994886	17120.885808585	1.5	0.1
0.01	1	0.246694102999754	1	84	NA	299.355736769998	0	0.5	3.25	1	271.346793957	271.59348806	"16"	17128.303994886	17120.885808585	1.5	0.1
0.01	1	0.266568747003475	1	84	NA	299.355736769998	0	0.5	3.25	1	271.830838161997	272.097406909001	"16"	17128.303994886	17120.885808585	1.5	0.1
0.01	1	0.213978288000362	1	84	NA	299.355736769998	0	0.5	3.25	1	272.331675694	272.545653982001	"16"	17128.303994886	17120.885808585	1.5	0.1
0.01	1	0.242790169999353	1	84	NA	299.355736769998	0	0.5	3.25	1	272.782423141998	273.025213311998	"16"	17128.303994886	17120.885808585	1.5	0.1
0.01	1	0.255237737001153	1	84	NA	299.355736769998	0	0.5	3.25	1	273.249857798997	273.505095535998	"16"	17128.303994886	17120.885808585	1.5	0.1
0.01	1	0.218864927002869	1	84	NA	299.355736769998	0	0.5	3.25	1	273.734036031998	273.952900959001	"16"	17128.303994886	17120.885808585	1.5	0.1
0.01	1	0.224997508998058	1	84	NA	299.355736769998	0	0.5	3.25	1	274.184784327001	274.409781835999	"16"	17128.303994886	17120.885808585	1.5	0.1
0.01	1	0.261147657998663	1	84	NA	299.355736769998	0	0.5	3.25	1	274.635592477	274.896740134998	"16"	17128.303994886	17120.885808585	1.5	0.1
0.01	1	0.250634610001725	1	84	NA	299.355736769998	0	0.5	3.25	1	275.119654301998	275.370288912	"16"	17128.303994886	17120.885808585	1.5	0.1
0.01	1	0.286798822999117	1	84	NA	299.355736769998	0	0.5	3.25	1	275.603867604001	275.890666427	"16"	17128.303994886	17120.885808585	1.5	0.1
0.01	1	0.241160327001126	1	84	NA	299.355736769998	0	0.5	3.25	1	276.121390193999	276.362550521	"16"	17128.303994886	17120.885808585	1.5	0.1
0.01	1	0.252561713998148	1	84	NA	299.355736769998	0	0.5	3.25	1	276.588821162	276.841382875999	"16"	17128.303994886	17120.885808585	1.5	0.1
0.01	1	0.233710905999033	1	84	NA	299.355736769998	0	0.5	3.25	1	277.072960902999	277.306671808998	"16"	17128.303994886	17120.885808585	1.5	0.1
0.01	1	0.20536969600289	1	84	NA	299.355736769998	0	0.5	3.25	1	277.540407181998	277.745776878	"16"	17128.303994886	17120.885808585	1.5	0.1
0.01	1	0.212193242001376	1	84	NA	299.355736769998	0	0.5	3.25	1	277.974541233998	278.186734475999	"16"	17128.303994886	17120.885808585	1.5	0.1
0.01	1	0.208187794996775	1	84	NA	299.355736769998	0	0.5	3.25	1	278.425238084001	278.633425878998	"16"	17128.303994886	17120.885808585	1.5	0.1
0.01	1	0.221663661002822	1	84	NA	299.355736769998	0	0.5	3.25	1	278.859343099997	279.081006761	"16"	17128.303994886	17120.885808585	1.5	0.1
0.01	1	0.258616709998023	1	84	NA	299.355736769998	0	0.5	3.25	1	279.310130062	279.568746771998	"16"	17128.303994886	17120.885808585	1.5	0.1
0.01	1	0.575310387001082	1	84	NA	299.355736769998	0	0.5	3.25	1	279.794249808998	280.369560195999	"16"	17128.303994886	17120.885808585	1.5	0.1
0.01	1	0.238623432996974	1	84	NA	299.355736769998	0	0.5	3.25	1	280.595565362	280.834188794997	"16"	17128.303994886	17120.885808585	1.5	0.1
0.01	1	0.257674942000449	1	84	NA	299.355736769998	0	0.5	3.25	1	281.063011966999	281.320686908999	"16"	17128.303994886	17120.885808585	1.5	0.1
0.01	1	0.22172522099936	1	84	NA	299.355736769998	0	0.5	3.25	1	281.547260746	281.768985966999	"16"	17128.303994886	17120.885808585	1.5	0.1
0.01	1	0.220768379000219	1	84	NA	299.355736769998	0	0.5	3.25	1	281.997914611999	282.218682990999	"16"	17128.303994886	17120.885808585	1.5	0.1
0.01	1	0.248261919001379	1	84	NA	299.355736769998	0	0.5	3.25	1	282.448683573999	282.696945493	"16"	17128.303994886	17120.885808585	1.5	0.1
0.01	1	0.220106998000119	1	84	NA	299.355736769998	0	0.5	3.25	1	282.932948166999	283.153055164999	"16"	17128.303994886	17120.885808585	1.5	0.1
0.01	1	0.338543601999845	1	84	NA	299.355736769998	0	0.5	3.25	1	283.383571332	283.722114934	"16"	17128.303994886	17120.885808585	1.5	0.1
0.01	1	0.281897126998956	1	84	NA	299.355736769998	0	0.5	3.25	1	283.951186458999	284.233083585998	"16"	17128.303994886	17120.885808585	1.5	0.1
0.01	1	0.293775835998531	1	84	NA	299.355736769998	0	0.5	3.25	1	284.468721202	284.762497037998	"16"	17128.303994886	17120.885808585	1.5	0.1
0.01	1	0.766534568003408	1	84	NA	299.355736769998	0	0.5	3.25	1	285.002912476997	285.769447045001	"16"	17128.303994886	17120.885808585	1.5	0.1
0.01	1	0.213860949999798	1	84	NA	299.355736769998	0	0.5	3.25	1	286.004613453999	286.218474403999	"16"	17128.303994886	17120.885808585	1.5	0.1
0.01	1	0.202142659996753	1	84	NA	299.355736769998	0	0.5	3.25	1	286.455355177	286.657497836997	"16"	17128.303994886	17120.885808585	1.5	0.1
0.01	1	0.183398896999279	1	84	NA	299.355736769998	0	0.5	3.25	1	286.889488731998	287.072887628998	"16"	17128.303994886	17120.885808585	1.5	0.1
0.01	1	0.223777844999859	1	84	NA	299.355736769998	0	0.5	3.25	1	287.306855906998	287.530633751998	"16"	17128.303994886	17120.885808585	1.5	0.1
0.01	1	0.268953000999318	1	84	NA	299.355736769998	0	0.5	3.25	1	287.757649891999	288.026602892998	"16"	17128.303994886	17120.885808585	1.5	0.1
0.01	1	0.286782331997529	1	84	NA	299.355736769998	0	0.5	3.25	1	288.258475207	288.545257538997	"16"	17128.303994886	17120.885808585	1.5	0.1
0.01	1	0.264835886999208	1	84	NA	299.355736769998	0	0.5	3.25	1	288.775956336998	289.040792223997	"16"	17128.303994886	17120.885808585	1.5	0.1
0.01	1	0.261041517998819	1	84	NA	299.355736769998	0	0.5	3.25	1	289.276834934	289.537876451999	"16"	17128.303994886	17120.885808585	1.5	0.1
0.01	1	0.311846830001741	1	84	NA	299.355736769998	0	0.5	3.25	1	289.761025201999	290.072872032	"16"	17128.303994886	17120.885808585	1.5	0.1
0.01	1	3.851190718	1	84	NA	299.355736769998	0	0.5	3.25	1	290.295281913997	294.146472631997	"16"	17128.303994886	17120.885808585	1.5	0.1
0.01	1	0.199267226002121	1	84	NA	299.355736769998	0	0.5	3.25	1	294.385376343998	294.58464357	"16"	17128.303994886	17120.885808585	1.5	0.1
0.01	1	0.262993642998481	1	84	NA	299.355736769998	0	0.5	3.25	1	294.819483531999	295.082477174998	"16"	17128.303994886	17120.885808585	1.5	0.1
0.01	1	0.224433387997124	1	84	NA	299.355736769998	0	0.5	3.25	1	295.320271777	295.544705164997	"16"	17128.303994886	17120.885808585	1.5	0.1
0.01	1	0.23803086299813	1	84	NA	299.355736769998	0	0.5	3.25	1	295.771199264	296.009230126998	"16"	17128.303994886	17120.885808585	1.5	0.1
0.01	1	0.186210968000523	1	84	NA	299.355736769998	0	0.5	3.25	1	296.238545827	296.424756795001	"16"	17128.303994886	17120.885808585	1.5	0.1
0.01	1	0.274140556997736	1	84	NA	299.355736769998	0	0.5	3.25	1	296.655976429	296.930116985997	"16"	17128.303994886	17120.885808585	1.5	0.1
0.01	1	0.331875978998141	1	84	NA	299.355736769998	0	0.5	3.25	1	297.156856576999	297.488732555998	"16"	17128.303994886	17120.885808585	1.5	0.1
0.01	1	0.334286789999169	1	84	NA	299.355736769998	0	0.5	3.25	1	297.724393881999	298.058680671998	"16"	17128.303994886	17120.885808585	1.5	0.1
0.01	1	0.301588973001344	1	84	NA	299.355736769998	0	0.5	3.25	1	298.291965781998	298.593554755	"16"	17128.303994886	17120.885808585	1.5	0.1
0.01	1	0.527927178001846	2	84	NA	299.355736769998	0	0.5	3.25	1	298.826231251998	299.35415843	"16"	17128.303994886	17120.885808585	1.5	0.1
0.01	1	0.916515248998621	1	88	NA	309.362700654998	0	0.25	3.5	1	301.397209082999	302.313724331998	"17"	17128.303994886	17120.885808585	1.5	0.1
0.01	1	0.00199695099945529	1	88	NA	309.362700654998	0	0.25	3.5	1	302.549199436999	302.551196387998	"17"	17128.303994886	17120.885808585	1.5	0.1
0.01	1	0.00210839300052612	1	88	NA	309.362700654998	0	0.25	3.5	1	302.782863151999	302.784971544999	"17"	17128.303994886	17120.885808585	1.5	0.1
0.01	1	0.0046821549985907	1	88	NA	309.362700654998	0	0.25	3.5	1	303.016612452	303.021294606999	"17"	17128.303994886	17120.885808585	1.5	0.1
0.01	1	0.00206874799914658	1	88	NA	309.362700654998	0	0.25	3.5	1	303.250380232999	303.252448980998	"17"	17128.303994886	17120.885808585	1.5	0.1
0.01	1	0.00323812599890516	1	88	NA	309.362700654998	0	0.25	3.5	1	303.484085620999	303.487323746998	"17"	17128.303994886	17120.885808585	1.5	0.1
0.01	1	0.00718040399806341	1	88	NA	309.362700654998	0	0.25	3.5	1	303.717809407	303.724989810999	"17"	17128.303994886	17120.885808585	1.5	0.1
0.01	1	0.00386783999783802	1	88	NA	309.362700654998	0	0.25	3.5	1	303.951527806999	303.955395646997	"17"	17128.303994886	17120.885808585	1.5	0.1
0.01	1	0.0166055929985305	1	88	NA	309.362700654998	0	0.25	3.5	1	304.185251588999	304.201857181997	"17"	17128.303994886	17120.885808585	1.5	0.1
0.01	1	0.00220290200013551	1	88	NA	309.362700654998	0	0.25	3.5	1	304.435618495998	304.437821397998	"17"	17128.303994886	17120.885808585	1.5	0.1
0.01	1	0.34819786099979	1	88	NA	309.362700654998	0	0.25	3.5	1	304.669299765999	305.017497626999	"17"	17128.303994886	17120.885808585	1.5	0.1
0.01	1	0.0117672110027343	1	88	NA	309.362700654998	0	0.25	3.5	1	305.253660841998	305.265428053001	"17"	17128.303994886	17120.885808585	1.5	0.1
0.01	1	0.00223495999671286	1	88	NA	309.362700654998	0	0.25	3.5	1	305.504206277001	305.506441236997	"17"	17128.303994886	17120.885808585	1.5	0.1
0.01	1	0.00204629699874204	1	88	NA	309.362700654998	0	0.25	3.5	1	305.73791498	305.739961276999	"17"	17128.303994886	17120.885808585	1.5	0.1
0.01	1	0.00209563200041885	1	88	NA	309.362700654998	0	0.25	3.5	1	305.971678963	305.973774595001	"17"	17128.303994886	17120.885808585	1.5	0.1
0.01	1	0.00325106599848368	1	88	NA	309.362700654998	0	0.25	3.5	1	306.205249691	306.208500756999	"17"	17128.303994886	17120.885808585	1.5	0.1
0.01	1	0.0021826880001754	1	88	NA	309.362700654998	0	0.25	3.5	1	306.438923526999	306.441106214999	"17"	17128.303994886	17120.885808585	1.5	0.1
0.01	1	0.00467345699871657	1	88	NA	309.362700654998	0	0.25	3.5	1	306.672794292001	306.677467748999	"17"	17128.303994886	17120.885808585	1.5	0.1
0.01	1	0.00206497800172656	1	88	NA	309.362700654998	0	0.25	3.5	1	306.906487263997	306.908552241999	"17"	17128.303994886	17120.885808585	1.5	0.1
0.01	1	0.00206731899743318	1	88	NA	309.362700654998	0	0.25	3.5	1	307.140182527	307.142249845998	"17"	17128.303994886	17120.885808585	1.5	0.1
0.01	1	0.56497609500002	1	88	NA	309.362700654998	0	0.25	3.5	1	307.373884068998	307.938860163998	"17"	17128.303994886	17120.885808585	1.5	0.1
0.01	1	0.00354650900044362	1	88	NA	309.362700654998	0	0.25	3.5	1	308.175342203998	308.178888712999	"17"	17128.303994886	17120.885808585	1.5	0.1
0.01	1	0.00390692699875217	1	88	NA	309.362700654998	0	0.25	3.5	1	308.409000854001	308.412907780999	"17"	17128.303994886	17120.885808585	1.5	0.1
0.01	1	0.00217911300205742	1	88	NA	309.362700654998	0	0.25	3.5	1	308.642668281998	308.644847395	"17"	17128.303994886	17120.885808585	1.5	0.1
0.01	1	0.00733968499844195	1	88	NA	309.362700654998	0	0.25	3.5	1	308.876463511999	308.883803196997	"17"	17128.303994886	17120.885808585	1.5	0.1
0.01	1	0.250950480000029	2	88	NA	309.362700654998	0	0.25	3.5	1	309.110178822	309.361129302	"17"	17128.303994886	17120.885808585	1.5	0.1
0.01	1	1.40456436000022	1	28	320.081827328999	NA	1	0	3.5	1	311.397370749	312.801935109001	"18"	17128.303994886	17120.885808585	1.5	0.1
0.01	1	0.00455410200083861	1	28	320.081827328999	NA	1	0	3.5	1	313.033432241999	313.037986343999	"18"	17128.303994886	17120.885808585	1.5	0.1
0.01	1	0.134475974999077	1	28	320.081827328999	NA	1	0	3.5	1	313.267143068999	313.401619043998	"18"	17128.303994886	17120.885808585	1.5	0.1
0.01	1	0.00207356000100845	1	28	320.081827328999	NA	1	0	3.5	1	313.634354962	313.636428522001	"18"	17128.303994886	17120.885808585	1.5	0.1
0.01	1	0.00198638000074425	1	28	320.081827328999	NA	1	0	3.5	1	313.868186741998	313.870173121999	"18"	17128.303994886	17120.885808585	1.5	0.1
0.01	1	0.00223114300024463	1	28	320.081827328999	NA	1	0	3.5	1	314.101890332	314.104121475	"18"	17128.303994886	17120.885808585	1.5	0.1
0.01	1	0.00464918700163253	1	28	320.081827328999	NA	1	0	3.5	1	314.335668176998	314.340317364	"18"	17128.303994886	17120.885808585	1.5	0.1
0.01	1	0.0020847479972872	1	28	320.081827328999	NA	1	0	3.5	1	314.569287667	314.571372414997	"18"	17128.303994886	17120.885808585	1.5	0.1
0.01	1	0.00387878000037745	1	28	320.081827328999	NA	1	0	3.5	1	314.803092046997	314.806970826998	"18"	17128.303994886	17120.885808585	1.5	0.1
0.01	1	0.221393099000124	1	28	320.081827328999	NA	1	0	3.5	1	315.036777318997	315.258170417997	"18"	17128.303994886	17120.885808585	1.5	0.1
0.01	1	0.0270991120014514	1	28	320.081827328999	NA	1	0	3.5	1	315.487527886999	315.514626999	"18"	17128.303994886	17120.885808585	1.5	0.1
0.01	1	0.00270000800082926	1	28	320.081827328999	NA	1	0	3.5	1	315.737908366998	315.740608374999	"18"	17128.303994886	17120.885808585	1.5	0.1
0.01	1	0.00203365400011535	1	28	320.081827328999	NA	1	0	3.5	1	315.971784419999	315.973818073999	"18"	17128.303994886	17120.885808585	1.5	0.1
0.01	1	0.00218880400279886	1	28	320.081827328999	NA	1	0	3.5	1	316.205432111998	316.207620916	"18"	17128.303994886	17120.885808585	1.5	0.1
0.01	1	0.00391509999826667	1	28	320.081827328999	NA	1	0	3.5	1	316.439164107	316.443079206998	"18"	17128.303994886	17120.885808585	1.5	0.1
0.01	1	0.128666641001473	1	28	320.081827328999	NA	1	0	3.5	1	316.672803451998	316.801470093	"18"	17128.303994886	17120.885808585	1.5	0.1
0.01	1	0.00202182800057926	1	28	320.081827328999	NA	1	0	3.5	1	317.040226818997	317.042248646998	"18"	17128.303994886	17120.885808585	1.5	0.1
0.01	1	0.00203893500292907	1	28	320.081827328999	NA	1	0	3.5	1	317.273948776998	317.275987712001	"18"	17128.303994886	17120.885808585	1.5	0.1
0.01	1	0.326438175998192	1	28	320.081827328999	NA	1	0	3.5	1	317.507675309	317.834113484998	"18"	17128.303994886	17120.885808585	1.5	0.1
0.01	1	0.0158543779980391	1	28	320.081827328999	NA	1	0	3.5	1	318.058622856999	318.074477234997	"18"	17128.303994886	17120.885808585	1.5	0.1
0.01	1	0.00671566400342272	1	28	320.081827328999	NA	1	0	3.5	1	318.308989916997	318.315705581001	"18"	17128.303994886	17120.885808585	1.5	0.1
0.01	1	0.00215493200084893	1	28	320.081827328999	NA	1	0	3.5	1	318.542699458998	318.544854390999	"18"	17128.303994886	17120.885808585	1.5	0.1
0.01	1	0.00219693500184803	1	28	320.081827328999	NA	1	0	3.5	1	318.776509757998	318.778706693	"18"	17128.303994886	17120.885808585	1.5	0.1
0.01	1	0.00813386999652721	1	28	320.081827328999	NA	1	0	3.5	1	319.010205537001	319.018339406997	"18"	17128.303994886	17120.885808585	1.5	0.1
0.01	1	0.00706080799864139	1	28	320.081827328999	NA	1	0	3.5	1	319.243888957	319.250949764999	"18"	17128.303994886	17120.885808585	1.5	0.1
0.01	1	0.0191686079997453	1	28	320.081827328999	NA	1	0	3.5	1	319.477585187	319.496753795	"18"	17128.303994886	17120.885808585	1.5	0.1
0.01	1	0.00207958499959204	1	28	320.081827328999	NA	1	0	3.5	1	319.728052181999	319.730131766999	"18"	17128.303994886	17120.885808585	1.5	0.1
0.01	1	0.00199805100055528	1	28	320.081827328999	NA	1	0	3.5	1	319.961803376998	319.963801427999	"18"	17128.303994886	17120.885808585	1.5	0.1
0.01	1	0.445510585999727	1	15	326.859780446997	NA	1	0	3.5	1	322.132145028998	322.577655614998	"19"	17128.303994886	17120.885808585	1.5	0.1
0.01	1	0.0323836220013618	1	15	326.859780446997	NA	1	0	3.5	1	322.816495396997	322.848879018999	"19"	17128.303994886	17120.885808585	1.5	0.1
0.01	1	0.00378704799732077	1	15	326.859780446997	NA	1	0	3.5	1	323.083736957	323.087524004997	"19"	17128.303994886	17120.885808585	1.5	0.1
0.01	1	0.0842645900011121	1	15	326.859780446997	NA	1	0	3.5	1	323.317617896999	323.401882487	"19"	17128.303994886	17120.885808585	1.5	0.1
0.01	1	0.00462924000021303	1	15	326.859780446997	NA	1	0	3.5	1	323.634568652	323.639197892	"19"	17128.303994886	17120.885808585	1.5	0.1
0.01	1	0.108685562001483	1	15	326.859780446997	NA	1	0	3.5	1	323.868402863998	323.977088426	"19"	17128.303994886	17120.885808585	1.5	0.1
0.01	1	0.00204826199842501	1	15	326.859780446997	NA	1	0	3.5	1	324.202195341	324.204243602999	"19"	17128.303994886	17120.885808585	1.5	0.1
0.01	1	0.461784046001412	1	15	326.859780446997	NA	1	0	3.5	1	324.436007328997	324.897791374999	"19"	17128.303994886	17120.885808585	1.5	0.1
0.01	1	0.00201765499878093	1	15	326.859780446997	NA	1	0	3.5	1	325.120464066	325.122481720999	"19"	17128.303994886	17120.885808585	1.5	0.1
0.01	1	0.119353164998756	1	15	326.859780446997	NA	1	0	3.5	1	325.354272982	325.473626146999	"19"	17128.303994886	17120.885808585	1.5	0.1
0.01	1	0.00206547000198043	1	15	326.859780446997	NA	1	0	3.5	1	325.704611270998	325.706676741	"19"	17128.303994886	17120.885808585	1.5	0.1
0.01	1	0.0043533429998206	1	15	326.859780446997	NA	1	0	3.5	1	325.938574978998	325.942928321998	"19"	17128.303994886	17120.885808585	1.5	0.1
0.01	1	0.110630429000594	1	15	326.859780446997	NA	1	0	3.5	1	326.172184593997	326.282815022998	"19"	17128.303994886	17120.885808585	1.5	0.1
0.01	1	0.00221602500096196	1	15	326.859780446997	NA	1	0	3.5	1	326.506122364997	326.508338389998	"19"	17128.303994886	17120.885808585	1.5	0.1
0.01	1	0.00398151000263169	1	15	326.859780446997	NA	1	0	3.5	1	326.739804296998	326.743785807001	"19"	17128.303994886	17120.885808585	1.5	0.1
0.01	1	0.331620356002531	1	60	NA	331.346597745	0	0.07	3.57	1	328.893483108997	329.225103465	"20"	17128.303994886	17120.885808585	1.5	0.1
0.01	1	0.101243444001739	1	60	NA	331.346597745	0	0.07	3.57	1	329.461039916998	329.562283361	"20"	17128.303994886	17120.885808585	1.5	0.1
0.01	1	0.0945958289994451	1	60	NA	331.346597745	0	0.07	3.57	1	329.794928992	329.889524820999	"20"	17128.303994886	17120.885808585	1.5	0.1
0.01	1	0.00459316499836859	1	60	NA	331.346597745	0	0.07	3.57	1	330.112252077	330.116845241999	"20"	17128.303994886	17120.885808585	1.5	0.1
0.01	1	0.112015142000018	1	60	NA	331.346597745	0	0.07	3.57	1	330.345870893998	330.457886035998	"20"	17128.303994886	17120.885808585	1.5	0.1
0.01	1	0.00390530400181888	1	60	NA	331.346597745	0	0.07	3.57	1	330.696395316998	330.700300621	"20"	17128.303994886	17120.885808585	1.5	0.1
0.01	1	0.00461173499934375	1	60	NA	331.346597745	0	0.07	3.57	1	330.930206681998	330.934818416998	"20"	17128.303994886	17120.885808585	1.5	0.1
0.01	1	0.181026182999631	3	60	NA	331.346597745	0	0.07	3.57	1	331.163956896999	331.344983079998	"20"	17128.303994886	17120.885808585	1.5	0.1
0.01	1	0.407696018999559	1	68	NA	334.715912967	0	0.03	3.6	1	333.401020141999	333.808716160998	"21"	17128.303994886	17120.885808585	1.5	0.1
0.01	1	0.00215086699972744	1	68	NA	334.715912967	0	0.03	3.6	1	334.035449841998	334.037600708998	"21"	17128.303994886	17120.885808585	1.5	0.1
0.01	1	0.00201139300042996	1	68	NA	334.715912967	0	0.03	3.6	1	334.269198116999	334.27120951	"21"	17128.303994886	17120.885808585	1.5	0.1
0.01	1	0.211389674001111	2	68	NA	334.715912967	0	0.03	3.6	1	334.502967156997	334.714356830998	"21"	17128.303994886	17120.885808585	1.5	0.1
0.01	1	0.278826039000705	1	50	NA	352.811126748999	0	0.3	3.9	1	336.739932983997	337.018759022998	"22"	17128.303994886	17120.885808585	1.5	0.1
0.01	1	0.135922890000074	1	50	NA	352.811126748999	0	0.3	3.9	1	337.257491647	337.393414537	"22"	17128.303994886	17120.885808585	1.5	0.1
0.01	1	0.22586731499905	1	50	NA	352.811126748999	0	0.3	3.9	1	337.624814887	337.850682201999	"22"	17128.303994886	17120.885808585	1.5	0.1
0.01	1	0.22193088199856	1	50	NA	352.811126748999	0	0.3	3.9	1	338.075632417	338.297563298998	"22"	17128.303994886	17120.885808585	1.5	0.1
0.01	1	0.242835544999252	1	50	NA	352.811126748999	0	0.3	3.9	1	338.526395792	338.769231336999	"22"	17128.303994886	17120.885808585	1.5	0.1
0.01	1	0.247580855000706	1	50	NA	352.811126748999	0	0.3	3.9	1	338.993790277	339.241371132	"22"	17128.303994886	17120.885808585	1.5	0.1
0.01	1	0.242851956998493	1	50	NA	352.811126748999	0	0.3	3.9	1	339.477836631999	339.720688588997	"22"	17128.303994886	17120.885808585	1.5	0.1
0.01	1	0.280651523000415	1	50	NA	352.811126748999	0	0.3	3.9	1	339.945447721999	340.226099244999	"22"	17128.303994886	17120.885808585	1.5	0.1
0.01	1	0.234108189000835	1	50	NA	352.811126748999	0	0.3	3.9	1	340.462951447	340.697059636001	"22"	17128.303994886	17120.885808585	1.5	0.1
0.01	1	0.254918062997604	1	50	NA	352.811126748999	0	0.3	3.9	1	340.930365247001	341.185283309998	"22"	17128.303994886	17120.885808585	1.5	0.1
0.01	1	0.803623517000233	1	50	NA	352.811126748999	0	0.3	3.9	1	341.414564586998	342.218188103998	"22"	17128.303994886	17120.885808585	1.5	0.1
0.01	1	0.249165800996707	1	50	NA	352.811126748999	0	0.3	3.9	1	342.449551334001	342.698717134997	"22"	17128.303994886	17120.885808585	1.5	0.1
0.01	1	0.221148827000434	1	50	NA	352.811126748999	0	0.3	3.9	1	342.933730321998	343.154879148999	"22"	17128.303994886	17120.885808585	1.5	0.1
0.01	1	0.232519086999673	1	50	NA	352.811126748999	0	0.3	3.9	1	343.384494462	343.617013548999	"22"	17128.303994886	17120.885808585	1.5	0.1
0.01	1	0.238629300001776	1	50	NA	352.811126748999	0	0.3	3.9	1	343.852004601998	344.090633902	"22"	17128.303994886	17120.885808585	1.5	0.1
0.01	1	0.233668460001354	1	50	NA	352.811126748999	0	0.3	3.9	1	344.319390542998	344.553059002999	"22"	17128.303994886	17120.885808585	1.5	0.1
0.01	1	0.286477705001744	1	50	NA	352.811126748999	0	0.3	3.9	1	344.786938296998	345.073416002	"22"	17128.303994886	17120.885808585	1.5	0.1
0.01	1	0.240342594999674	1	50	NA	352.811126748999	0	0.3	3.9	1	345.304367686	345.544710280999	"22"	17128.303994886	17120.885808585	1.5	0.1
0.01	1	0.237102855000558	1	50	NA	352.811126748999	0	0.3	3.9	1	345.771857506999	346.008960362	"22"	17128.303994886	17120.885808585	1.5	0.1
0.01	1	0.26583809099975	1	50	NA	352.811126748999	0	0.3	3.9	1	346.239359927	346.505198018	"22"	17128.303994886	17120.885808585	1.5	0.1
0.01	1	0.70257023099839	1	50	NA	352.811126748999	0	0.3	3.9	1	346.740246183999	347.442816414998	"22"	17128.303994886	17120.885808585	1.5	0.1
0.01	1	0.223587411997869	1	50	NA	352.811126748999	0	0.3	3.9	1	347.675008029	347.898595440998	"22"	17128.303994886	17120.885808585	1.5	0.1
0.01	1	0.2597457999982	1	50	NA	352.811126748999	0	0.3	3.9	1	348.125819147001	348.385564946999	"22"	17128.303994886	17120.885808585	1.5	0.1
0.01	1	0.216839315999096	1	50	NA	352.811126748999	0	0.3	3.9	1	348.609863227	348.826702543	"22"	17128.303994886	17120.885808585	1.5	0.1
0.01	1	0.22903089600004	1	50	NA	352.811126748999	0	0.3	3.9	1	349.060771356999	349.289802252999	"22"	17128.303994886	17120.885808585	1.5	0.1
0.01	1	0.22522537900295	1	50	NA	352.811126748999	0	0.3	3.9	1	349.528270716997	349.753496096	"22"	17128.303994886	17120.885808585	1.5	0.1
0.01	1	0.238209497998469	1	50	NA	352.811126748999	0	0.3	3.9	1	349.978993637	350.217203134998	"22"	17128.303994886	17120.885808585	1.5	0.1
0.01	1	0.234863049998239	1	50	NA	352.811126748999	0	0.3	3.9	1	350.446326799	350.681189848998	"22"	17128.303994886	17120.885808585	1.5	0.1
0.01	1	0.23245785799736	1	50	NA	352.811126748999	0	0.3	3.9	1	350.913861097	351.146318954998	"22"	17128.303994886	17120.885808585	1.5	0.1
0.01	1	0.236821037000482	1	50	NA	352.811126748999	0	0.3	3.9	1	351.381388006997	351.618209043998	"22"	17128.303994886	17120.885808585	1.5	0.1
0.01	1	0.960792376998143	2	50	NA	352.811126748999	0	0.3	3.9	1	351.848701469	352.809493845998	"22"	17128.303994886	17120.885808585	1.5	0.1
0.01	1	0.236488269001711	1	40	NA	369.492076627001	0	0.35	4.25	1	354.853752906998	355.090241176	"23"	17128.303994886	17120.885808585	1.5	0.1
0.01	1	0.160259398999187	1	40	NA	369.492076627001	0	0.35	4.25	1	355.321261677	355.481521075999	"23"	17128.303994886	17120.885808585	1.5	0.1
0.01	1	0.215621170998929	1	40	NA	369.492076627001	0	0.35	4.25	1	355.705267832	355.920889002999	"23"	17128.303994886	17120.885808585	1.5	0.1
0.01	1	0.204745382998226	1	40	NA	369.492076627001	0	0.35	4.25	1	356.156006924	356.360752306999	"23"	17128.303994886	17120.885808585	1.5	0.1
0.01	1	0.186780957999872	1	40	NA	369.492076627001	0	0.35	4.25	1	356.589997517	356.776778474999	"23"	17128.303994886	17120.885808585	1.5	0.1
0.01	1	0.210406592002983	1	40	NA	369.492076627001	0	0.35	4.25	1	357.007354023997	357.217760616	"23"	17128.303994886	17120.885808585	1.5	0.1
0.01	1	0.247387382998568	1	40	NA	369.492076627001	0	0.35	4.25	1	357.441526234001	357.688913616999	"23"	17128.303994886	17120.885808585	1.5	0.1
0.01	1	0.180843187998107	1	40	NA	369.492076627001	0	0.35	4.25	1	357.925645427	358.106488614998	"23"	17128.303994886	17120.885808585	1.5	0.1
0.01	1	0.178346173001046	1	40	NA	369.492076627001	0	0.35	4.25	1	358.342950483999	358.521296657	"23"	17128.303994886	17120.885808585	1.5	0.1
0.01	1	0.177792679998674	1	40	NA	369.492076627001	0	0.35	4.25	1	358.743641177	358.921433856998	"23"	17128.303994886	17120.885808585	1.5	0.1
0.01	1	1.59344802100168	1	40	NA	369.492076627001	0	0.35	4.25	1	359.144259123997	360.737707144999	"23"	17128.303994886	17120.885808585	1.5	0.1
0.01	1	0.117895973002305	1	40	NA	369.492076627001	0	0.35	4.25	1	360.964012248998	361.081908222	"23"	17128.303994886	17120.885808585	1.5	0.1
0.01	1	0.0795198919986433	1	40	NA	369.492076627001	0	0.35	4.25	1	361.314653911999	361.394173803998	"23"	17128.303994886	17120.885808585	1.5	0.1
0.01	1	0.106330508002429	1	40	NA	369.492076627001	0	0.35	4.25	1	361.631842143997	361.738172652	"23"	17128.303994886	17120.885808585	1.5	0.1
0.01	1	0.0991065759990306	1	40	NA	369.492076627001	0	0.35	4.25	1	361.965726933999	362.064833509998	"23"	17128.303994886	17120.885808585	1.5	0.1
0.01	1	0.0625510729987582	1	40	NA	369.492076627001	0	0.35	4.25	1	362.299746342	362.362297414998	"23"	17128.303994886	17120.885808585	1.5	0.1
0.01	1	0.0731603229978646	1	40	NA	369.492076627001	0	0.35	4.25	1	362.600149684	362.673310006998	"23"	17128.303994886	17120.885808585	1.5	0.1
0.01	1	0.0286525429983158	1	40	NA	369.492076627001	0	0.35	4.25	1	362.900662532	362.929315074998	"23"	17128.303994886	17120.885808585	1.5	0.1
0.01	1	0.0417020310014777	1	40	NA	369.492076627001	0	0.35	4.25	1	363.167832701998	363.209534733	"23"	17128.303994886	17120.885808585	1.5	0.1
0.01	1	0.0539614230001462	1	40	NA	369.492076627001	0	0.35	4.25	1	363.434911185999	363.488872608999	"23"	17128.303994886	17120.885808585	1.5	0.1
0.01	1	0.515463152998564	1	40	NA	369.492076627001	0	0.35	4.25	1	363.718708285	364.234171437998	"23"	17128.303994886	17120.885808585	1.5	0.1
0.01	1	0.0595002810005099	1	40	NA	369.492076627001	0	0.35	4.25	1	364.469862161997	364.529362442998	"23"	17128.303994886	17120.885808585	1.5	0.1
0.01	1	0.0324399860000995	1	40	NA	369.492076627001	0	0.35	4.25	1	364.753720683999	364.786160669999	"23"	17128.303994886	17120.885808585	1.5	0.1
0.01	1	0.0280453429986665	1	40	NA	369.492076627001	0	0.35	4.25	1	365.020822001999	365.048867344998	"23"	17128.303994886	17120.885808585	1.5	0.1
0.01	1	0.0501338650028629	1	40	NA	369.492076627001	0	0.35	4.25	1	365.271306053997	365.321439919	"23"	17128.303994886	17120.885808585	1.5	0.1
0.01	1	0.0470312830002513	1	40	NA	369.492076627001	0	0.35	4.25	1	365.555116241998	365.602147524998	"23"	17128.303994886	17120.885808585	1.5	0.1
0.01	1	0.0337672189998557	1	40	NA	369.492076627001	0	0.35	4.25	1	365.838943264	365.872710483	"23"	17128.303994886	17120.885808585	1.5	0.1
0.01	1	0.0395523820006929	1	40	NA	369.492076627001	0	0.35	4.25	1	366.106057926998	366.145610308999	"23"	17128.303994886	17120.885808585	1.5	0.1
0.01	1	0.0275844629977655	1	40	NA	369.492076627001	0	0.35	4.25	1	366.373131427001	366.400715889999	"23"	17128.303994886	17120.885808585	1.5	0.1
0.01	1	0.0663555060018552	1	40	NA	369.492076627001	0	0.35	4.25	1	366.623626183999	366.68998169	"23"	17128.303994886	17120.885808585	1.5	0.1
0.01	1	0.598179330998391	1	40	NA	369.492076627001	0	0.35	4.25	1	366.924090582001	367.522269912999	"23"	17128.303994886	17120.885808585	1.5	0.1
0.01	1	0.0758888000018487	1	40	NA	369.492076627001	0	0.35	4.25	1	367.758790313997	367.834679113999	"23"	17128.303994886	17120.885808585	1.5	0.1
0.01	1	0.0784862559994508	1	40	NA	369.492076627001	0	0.35	4.25	1	368.059261826998	368.137748082998	"23"	17128.303994886	17120.885808585	1.5	0.1
0.01	1	0.0735592900018673	1	40	NA	369.492076627001	0	0.35	4.25	1	368.359893181998	368.433452472	"23"	17128.303994886	17120.885808585	1.5	0.1
0.01	1	0.0690865640026459	1	40	NA	369.492076627001	0	0.35	4.25	1	368.660286153998	368.729372718	"23"	17128.303994886	17120.885808585	1.5	0.1
0.01	1	0.529186743002356	2	40	NA	369.492076627001	0	0.35	4.25	1	368.960773251998	369.489959995	"23"	17128.303994886	17120.885808585	1.5	0.1
0.01	1	1.766074940002	1	96	NA	382.266957766999	0	0.25	4.5	1	371.531794875998	373.297869816	"24"	17128.303994886	17120.885808585	1.5	0.1
0.01	1	0.00223263700172538	1	96	NA	382.266957766999	0	0.25	4.5	1	373.535197025998	373.537429663	"24"	17128.303994886	17120.885808585	1.5	0.1
0.01	1	0.056736753002042	1	96	NA	382.266957766999	0	0.25	4.5	1	373.768923316999	373.825660070001	"24"	17128.303994886	17120.885808585	1.5	0.1
0.01	1	0.0690801000018837	1	96	NA	382.266957766999	0	0.25	4.5	1	374.052710193999	374.121790294001	"24"	17128.303994886	17120.885808585	1.5	0.1
0.01	1	0.0799189289973583	1	96	NA	382.266957766999	0	0.25	4.5	1	374.353199809	374.433118737998	"24"	17128.303994886	17120.885808585	1.5	0.1
0.01	1	0.0834873359999619	1	96	NA	382.266957766999	0	0.25	4.5	1	374.670454113999	374.753941449999	"24"	17128.303994886	17120.885808585	1.5	0.1
0.01	1	0.0699266049996368	1	96	NA	382.266957766999	0	0.25	4.5	1	374.987597481999	375.057524086998	"24"	17128.303994886	17120.885808585	1.5	0.1
0.01	1	0.0902859399975569	1	96	NA	382.266957766999	0	0.25	4.5	1	375.288055064	375.378341003998	"24"	17128.303994886	17120.885808585	1.5	0.1
0.01	1	0.0681339750008192	1	96	NA	382.266957766999	0	0.25	4.5	1	375.605347457	375.673481432001	"24"	17128.303994886	17120.885808585	1.5	0.1
0.01	1	0.0878531050002493	1	96	NA	382.266957766999	0	0.25	4.5	1	375.905892696999	375.993745801999	"24"	17128.303994886	17120.885808585	1.5	0.1
0.01	1	0.634910409997246	1	96	NA	382.266957766999	0	0.25	4.5	1	376.223087552	376.857997961997	"24"	17128.303994886	17120.885808585	1.5	0.1
0.01	1	0.0792561550006212	1	96	NA	382.266957766999	0	0.25	4.5	1	377.091100037	377.170356192	"24"	17128.303994886	17120.885808585	1.5	0.1
0.01	1	0.0581753559999925	1	96	NA	382.266957766999	0	0.25	4.5	1	377.408323836	377.466499192	"24"	17128.303994886	17120.885808585	1.5	0.1
0.01	1	0.069665740000346	1	96	NA	382.266957766999	0	0.25	4.5	1	377.692113269	377.761779009001	"24"	17128.303994886	17120.885808585	1.5	0.1
0.01	1	0.0644024610010092	1	96	NA	382.266957766999	0	0.25	4.5	1	377.992649614	378.057052075001	"24"	17128.303994886	17120.885808585	1.5	0.1
0.01	1	0.0612655089971668	1	96	NA	382.266957766999	0	0.25	4.5	1	378.293178222	378.354443730997	"24"	17128.303994886	17120.885808585	1.5	0.1
0.01	1	0.10437963500226	1	96	NA	382.266957766999	0	0.25	4.5	1	378.577043106998	378.681422742	"24"	17128.303994886	17120.885808585	1.5	0.1
0.01	1	0.0660477390010783	1	96	NA	382.266957766999	0	0.25	4.5	1	378.910919726997	378.976967465998	"24"	17128.303994886	17120.885808585	1.5	0.1
0.01	1	0.0534358669974608	1	96	NA	382.266957766999	0	0.25	4.5	1	379.211480242	379.264916108998	"24"	17128.303994886	17120.885808585	1.5	0.1
0.01	1	0.0994069219996163	1	96	NA	382.266957766999	0	0.25	4.5	1	379.495285561999	379.594692483999	"24"	17128.303994886	17120.885808585	1.5	0.1
0.01	1	0.628863227000693	1	96	NA	382.266957766999	0	0.25	4.5	1	379.829167216998	380.458030443999	"24"	17128.303994886	17120.885808585	1.5	0.1
0.01	1	0.0811932569995406	1	96	NA	382.266957766999	0	0.25	4.5	1	380.697319603998	380.778512860998	"24"	17128.303994886	17120.885808585	1.5	0.1
0.01	1	0.0592299769996316	1	96	NA	382.266957766999	0	0.25	4.5	1	381.014446974001	381.073676951	"24"	17128.303994886	17120.885808585	1.5	0.1
0.01	1	0.104252900000574	1	96	NA	382.266957766999	0	0.25	4.5	1	381.298289381997	381.402542281998	"24"	17128.303994886	17120.885808585	1.5	0.1
0.01	1	0.0903152430000773	1	96	NA	382.266957766999	0	0.25	4.5	1	381.632134543997	381.722449786997	"24"	17128.303994886	17120.885808585	1.5	0.1
0.01	1	0.315949723000813	2	96	NA	382.266957766999	0	0.25	4.5	1	381.949394226998	382.265343949999	"24"	17128.303994886	17120.885808585	1.5	0.1
0.01	1	0.585368700998515	1	81	NA	403.436199362	0	0.5	5	1	384.320020073999	384.905388774998	"25"	17128.303994886	17120.885808585	1.5	0.1
0.01	1	0.0881351319985697	1	81	NA	403.436199362	0	0.5	5	1	385.138034084001	385.226169215999	"25"	17128.303994886	17120.885808585	1.5	0.1
0.01	1	0.107234115999745	1	81	NA	403.436199362	0	0.5	5	1	385.455249717001	385.562483833	"25"	17128.303994886	17120.885808585	1.5	0.1
0.01	1	0.1336560560012	1	81	NA	403.436199362	0	0.5	5	1	385.789157816998	385.922813873	"25"	17128.303994886	17120.885808585	1.5	0.1
0.01	1	0.0778688079990388	1	81	NA	403.436199362	0	0.5	5	1	386.156428969	386.234297776999	"25"	17128.303994886	17120.885808585	1.5	0.1
0.01	1	0.112347002999741	1	81	NA	403.436199362	0	0.5	5	1	386.456909352	386.569256355	"25"	17128.303994886	17120.885808585	1.5	0.1
0.01	1	0.0812511740004993	1	81	NA	403.436199362	0	0.5	5	1	386.807521143997	386.888772317998	"25"	17128.303994886	17120.885808585	1.5	0.1
0.01	1	0.109504621999804	1	81	NA	403.436199362	0	0.5	5	1	387.124781423998	387.234286045998	"25"	17128.303994886	17120.885808585	1.5	0.1
0.01	1	0.0716412719993968	1	81	NA	403.436199362	0	0.5	5	1	387.458607543998	387.530248815998	"25"	17128.303994886	17120.885808585	1.5	0.1
0.01	1	0.0975648729981913	1	81	NA	403.436199362	0	0.5	5	1	387.759128972	387.856693844999	"25"	17128.303994886	17120.885808585	1.5	0.1
0.01	1	0.412176335001277	1	81	NA	403.436199362	0	0.5	5	1	388.092981911999	388.505158247001	"25"	17128.303994886	17120.885808585	1.5	0.1
0.01	1	0.122628863999125	1	81	NA	403.436199362	0	0.5	5	1	388.727361817	388.849990680999	"25"	17128.303994886	17120.885808585	1.5	0.1
0.01	1	0.0831354040019505	1	81	NA	403.436199362	0	0.5	5	1	389.078040886998	389.161176291	"25"	17128.303994886	17120.885808585	1.5	0.1
0.01	1	0.0868865529992036	1	81	NA	403.436199362	0	0.5	5	1	389.395238114001	389.482124667	"25"	17128.303994886	17120.885808585	1.5	0.1
0.01	1	0.0899187180002627	1	81	NA	403.436199362	0	0.5	5	1	389.712341031998	389.802259749998	"25"	17128.303994886	17120.885808585	1.5	0.1
0.01	1	0.0918703830029699	1	81	NA	403.436199362	0	0.5	5	1	390.029578801998	390.121449185001	"25"	17128.303994886	17120.885808585	1.5	0.1
0.01	1	0.0947816789994249	1	81	NA	403.436199362	0	0.5	5	1	390.346810128998	390.441591807998	"25"	17128.303994886	17120.885808585	1.5	0.1
0.01	1	0.105877642999985	1	81	NA	403.436199362	0	0.5	5	1	390.663955421998	390.769833064998	"25"	17128.303994886	17120.885808585	1.5	0.1
0.01	1	0.108609663999232	1	81	NA	403.436199362	0	0.5	5	1	390.997839866999	391.106449530998	"25"	17128.303994886	17120.885808585	1.5	0.1
0.01	1	0.133150260000548	1	81	NA	403.436199362	0	0.5	5	1	391.331726026998	391.464876286998	"25"	17128.303994886	17120.885808585	1.5	0.1
0.01	1	0.766967846000625	1	81	NA	403.436199362	0	0.5	5	1	391.698987126998	392.465954972999	"25"	17128.303994886	17120.885808585	1.5	0.1
0.01	1	0.109504464002384	1	81	NA	403.436199362	0	0.5	5	1	392.700806796998	392.810311261001	"25"	17128.303994886	17120.885808585	1.5	0.1
0.01	1	0.0950411160010844	1	81	NA	403.436199362	0	0.5	5	1	393.034668796998	393.129709912999	"25"	17128.303994886	17120.885808585	1.5	0.1
0.01	1	0.113962687999447	1	81	NA	403.436199362	0	0.5	5	1	393.351866721998	393.465829409997	"25"	17128.303994886	17120.885808585	1.5	0.1
0.01	1	0.0999742339990917	1	81	NA	403.436199362	0	0.5	5	1	393.702353343	393.802327576999	"25"	17128.303994886	17120.885808585	1.5	0.1
0.01	1	0.0857980719993066	1	81	NA	403.436199362	0	0.5	5	1	394.036310831998	394.122108903997	"25"	17128.303994886	17120.885808585	1.5	0.1
0.01	1	0.0881151709982078	1	81	NA	403.436199362	0	0.5	5	1	394.353583427001	394.441698597999	"25"	17128.303994886	17120.885808585	1.5	0.1
0.01	1	0.122084401999018	1	81	NA	403.436199362	0	0.5	5	1	394.670763307	394.792847708999	"25"	17128.303994886	17120.885808585	1.5	0.1
0.01	1	0.116605420000269	1	81	NA	403.436199362	0	0.5	5	1	395.021416986998	395.138022406998	"25"	17128.303994886	17120.885808585	1.5	0.1
0.01	1	0.125794781000877	1	81	NA	403.436199362	0	0.5	5	1	395.371869084	395.497663865001	"25"	17128.303994886	17120.885808585	1.5	0.1
0.01	1	0.463384269001835	1	81	NA	403.436199362	0	0.5	5	1	395.722546351997	396.185930620999	"25"	17128.303994886	17120.885808585	1.5	0.1
0.01	1	0.0895725660011522	1	81	NA	403.436199362	0	0.5	5	1	396.423689017	396.513261583001	"25"	17128.303994886	17120.885808585	1.5	0.1
0.01	1	0.109412071000406	1	81	NA	403.436199362	0	0.5	5	1	396.740869202	396.850281273	"25"	17128.303994886	17120.885808585	1.5	0.1
0.01	1	0.087219389002712	1	81	NA	403.436199362	0	0.5	5	1	397.074762452998	397.161981842	"25"	17128.303994886	17120.885808585	1.5	0.1
0.01	1	0.114070649000496	1	81	NA	403.436199362	0	0.5	5	1	397.392067727	397.506138376	"25"	17128.303994886	17120.885808585	1.5	0.1
0.01	1	0.106594540000515	1	81	NA	403.436199362	0	0.5	5	1	397.742564936998	397.849159476998	"25"	17128.303994886	17120.885808585	1.5	0.1
0.01	1	0.108526208001422	1	81	NA	403.436199362	0	0.5	5	1	398.076440306999	398.184966515	"25"	17128.303994886	17120.885808585	1.5	0.1
0.01	1	0.0961474460018508	1	81	NA	403.436199362	0	0.5	5	1	398.410355616998	398.506503062999	"25"	17128.303994886	17120.885808585	1.5	0.1
0.01	1	0.0818159369991918	1	81	NA	403.436199362	0	0.5	5	1	398.744299081998	398.826115018997	"25"	17128.303994886	17120.885808585	1.5	0.1
0.01	1	0.0836771069989481	1	81	NA	403.436199362	0	0.5	5	1	399.061459996999	399.145137103998	"25"	17128.303994886	17120.885808585	1.5	0.1
0.01	1	0.454828322002868	1	81	NA	403.436199362	0	0.5	5	1	399.378698361998	399.833526684	"25"	17128.303994886	17120.885808585	1.5	0.1
0.01	1	0.138335494000785	1	81	NA	403.436199362	0	0.5	5	1	400.063078747	400.201414241001	"25"	17128.303994886	17120.885808585	1.5	0.1
0.01	1	0.0662729840005341	1	81	NA	403.436199362	0	0.5	5	1	400.430446836999	400.496719821	"25"	17128.303994886	17120.885808585	1.5	0.1
0.01	1	0.0778695400003926	1	81	NA	403.436199362	0	0.5	5	1	400.730899796999	400.808769337	"25"	17128.303994886	17120.885808585	1.5	0.1
0.01	1	0.0973202229979506	1	81	NA	403.436199362	0	0.5	5	1	401.031412942	401.128733164998	"25"	17128.303994886	17120.885808585	1.5	0.1
0.01	1	0.0770661989990913	1	81	NA	403.436199362	0	0.5	5	1	401.365291347	401.442357545999	"25"	17128.303994886	17120.885808585	1.5	0.1
0.01	1	0.0637153099996794	1	81	NA	403.436199362	0	0.5	5	1	401.682537831999	401.746253141999	"25"	17128.303994886	17120.885808585	1.5	0.1
0.01	1	0.0826103149993287	1	81	NA	403.436199362	0	0.5	5	1	401.983018814	402.065629129	"25"	17128.303994886	17120.885808585	1.5	0.1
0.01	1	0.0940644919974147	1	81	NA	403.436199362	0	0.5	5	1	402.300218082	402.394282573998	"25"	17128.303994886	17120.885808585	1.5	0.1
0.01	1	0.143856584996684	1	81	NA	403.436199362	0	0.5	5	1	402.617544164001	402.761400748997	"25"	17128.303994886	17120.885808585	1.5	0.1
0.01	1	0.449874920999719	2	81	NA	403.436199362	0	0.5	5	1	402.984703131999	403.434578052998	"25"	17128.303994886	17120.885808585	1.5	0.1
0.01	1	2.81646355900011	1	125	NA	410.156075458999	0	0.07	5.07	1	405.488861217	408.305324776	"26"	17128.303994886	17120.885808585	1.5	0.1
0.01	1	0.0492012120012078	1	125	NA	410.156075458999	0	0.07	5.07	1	408.544065361999	408.593266574	"26"	17128.303994886	17120.885808585	1.5	0.1
0.01	1	0.00458525200156146	1	125	NA	410.156075458999	0	0.07	5.07	1	408.827813011998	408.832398263999	"26"	17128.303994886	17120.885808585	1.5	0.1
0.01	1	0.00377727799786953	1	125	NA	410.156075458999	0	0.07	5.07	1	409.061577277	409.065354554998	"26"	17128.303994886	17120.885808585	1.5	0.1
0.01	1	0.033911607999471	1	125	NA	410.156075458999	0	0.07	5.07	1	409.295284576998	409.329196184997	"26"	17128.303994886	17120.885808585	1.5	0.1
0.01	1	0.00202761900072801	1	125	NA	410.156075458999	0	0.07	5.07	1	409.562446095999	409.564473715	"26"	17128.303994886	17120.885808585	1.5	0.1
0.01	1	0.0462014920012734	1	125	NA	410.156075458999	0	0.07	5.07	1	409.796163211999	409.842364704	"26"	17128.303994886	17120.885808585	1.5	0.1
0.01	1	0.0744974529989122	2	125	NA	410.156075458999	0	0.07	5.07	1	410.080014264	410.154511716999	"26"	17128.303994886	17120.885808585	1.5	0.1
0.01	1	0.00265874400065513	1	75	NA	432.458674698999	0	0.56	5.63	1	412.200194368997	412.202853112998	"27"	17128.303994886	17120.885808585	1.5	0.1
0.01	1	0.080397334000736	1	75	NA	432.458674698999	0	0.56	5.63	1	412.433937796999	412.514335131	"27"	17128.303994886	17120.885808585	1.5	0.1
0.01	1	0.0664076049979485	1	75	NA	432.458674698999	0	0.56	5.63	1	412.751083712999	412.817491317997	"27"	17128.303994886	17120.885808585	1.5	0.1
0.01	1	0.102133198000956	1	75	NA	432.458674698999	0	0.56	5.63	1	413.051712983997	413.153846181998	"27"	17128.303994886	17120.885808585	1.5	0.1
0.01	1	0.00201535499945749	1	75	NA	432.458674698999	0	0.56	5.63	1	413.385497602998	413.387512957997	"27"	17128.303994886	17120.885808585	1.5	0.1
0.01	1	0.0616813150008966	1	75	NA	432.458674698999	0	0.56	5.63	1	413.619325576998	413.681006891999	"27"	17128.303994886	17120.885808585	1.5	0.1
0.01	1	0.115099467999244	1	75	NA	432.458674698999	0	0.56	5.63	1	413.903060773999	414.018160241998	"27"	17128.303994886	17120.885808585	1.5	0.1
0.01	1	0.00209107399859931	1	75	NA	432.458674698999	0	0.56	5.63	1	414.253663541	414.255754614998	"27"	17128.303994886	17120.885808585	1.5	0.1
0.01	1	0.0819560080017254	1	75	NA	432.458674698999	0	0.56	5.63	1	414.487554486997	414.569510494999	"27"	17128.303994886	17120.885808585	1.5	0.1
0.01	1	0.00403657599963481	1	75	NA	432.458674698999	0	0.56	5.63	1	414.804586389	414.808622965	"27"	17128.303994886	17120.885808585	1.5	0.1
0.01	1	0.0672150880018307	1	75	NA	432.458674698999	0	0.56	5.63	1	415.038291328998	415.105506417	"27"	17128.303994886	17120.885808585	1.5	0.1
0.01	1	0.11034356899836	1	75	NA	432.458674698999	0	0.56	5.63	1	415.338798187	415.449141755998	"27"	17128.303994886	17120.885808585	1.5	0.1
0.01	1	0.00207807100014179	1	75	NA	432.458674698999	0	0.56	5.63	1	415.672731513998	415.674809584998	"27"	17128.303994886	17120.885808585	1.5	0.1
0.01	1	0.0874313220010663	1	75	NA	432.458674698999	0	0.56	5.63	1	415.906411898999	415.993843221	"27"	17128.303994886	17120.885808585	1.5	0.1
0.01	1	0.00207043900081771	1	75	NA	432.458674698999	0	0.56	5.63	1	416.223640904998	416.225711343999	"27"	17128.303994886	17120.885808585	1.5	0.1
0.01	1	0.0650359719984408	1	75	NA	432.458674698999	0	0.56	5.63	1	416.457406903999	416.522442875998	"27"	17128.303994886	17120.885808585	1.5	0.1
0.01	1	0.00206614499984425	1	75	NA	432.458674698999	0	0.56	5.63	1	416.757875611998	416.759941756998	"27"	17128.303994886	17120.885808585	1.5	0.1
0.01	1	0.0660068869983661	1	75	NA	432.458674698999	0	0.56	5.63	1	416.991514857	417.057521743998	"27"	17128.303994886	17120.885808585	1.5	0.1
0.01	1	0.00367437800014159	1	75	NA	432.458674698999	0	0.56	5.63	1	417.292140169	417.295814547	"27"	17128.303994886	17120.885808585	1.5	0.1
0.01	1	0.0607748120019096	1	75	NA	432.458674698999	0	0.56	5.63	1	417.525833078998	417.586607891	"27"	17128.303994886	17120.885808585	1.5	0.1
0.01	1	0.00214473700179951	1	75	NA	432.458674698999	0	0.56	5.63	1	417.809682325998	417.811827063	"27"	17128.303994886	17120.885808585	1.5	0.1
0.01	1	0.102589713002089	1	75	NA	432.458674698999	0	0.56	5.63	1	418.043435633997	418.146025347	"27"	17128.303994886	17120.885808585	1.5	0.1
0.01	1	0.00464791500053252	1	75	NA	432.458674698999	0	0.56	5.63	1	418.377336217	418.381984132	"27"	17128.303994886	17120.885808585	1.5	0.1
0.01	1	0.078609330998006	1	75	NA	432.458674698999	0	0.56	5.63	1	418.611095287	418.689704617998	"27"	17128.303994886	17120.885808585	1.5	0.1
0.01	1	0.00392548899981193	1	75	NA	432.458674698999	0	0.56	5.63	1	418.928158651997	418.932084140997	"27"	17128.303994886	17120.885808585	1.5	0.1
0.01	1	0.0880640799987304	1	75	NA	432.458674698999	0	0.56	5.63	1	419.161968672001	419.250032751999	"27"	17128.303994886	17120.885808585	1.5	0.1
0.01	1	0.00206811799944262	1	75	NA	432.458674698999	0	0.56	5.63	1	419.479174636999	419.481242754999	"27"	17128.303994886	17120.885808585	1.5	0.1
0.01	1	0.0894153530025505	1	75	NA	432.458674698999	0	0.56	5.63	1	419.712866761998	419.802282115001	"27"	17128.303994886	17120.885808585	1.5	0.1
0.01	1	0.00202852599977632	1	75	NA	432.458674698999	0	0.56	5.63	1	420.03000757	420.032036096	"27"	17128.303994886	17120.885808585	1.5	0.1
0.01	1	0.00459185699946829	1	75	NA	432.458674698999	0	0.56	5.63	1	420.263857012	420.268448868999	"27"	17128.303994886	17120.885808585	1.5	0.1
0.01	1	0.184347014001105	1	75	NA	432.458674698999	0	0.56	5.63	1	420.497571283999	420.681918298	"27"	17128.303994886	17120.885808585	1.5	0.1
0.01	1	0.222903891000897	1	75	NA	432.458674698999	0	0.56	5.63	1	420.914871104	421.137774995001	"27"	17128.303994886	17120.885808585	1.5	0.1
0.01	1	0.179160350002348	1	75	NA	432.458674698999	0	0.56	5.63	1	421.365641451997	421.544801802	"27"	17128.303994886	17120.885808585	1.5	0.1
0.01	1	0.170697551999183	1	75	NA	432.458674698999	0	0.56	5.63	1	421.783071656999	421.953769208998	"27"	17128.303994886	17120.885808585	1.5	0.1
0.01	1	0.114427844000602	1	75	NA	432.458674698999	0	0.56	5.63	1	422.183760549	422.298188393001	"27"	17128.303994886	17120.885808585	1.5	0.1
0.01	1	0.17033800399804	1	75	NA	432.458674698999	0	0.56	5.63	1	422.534232012	422.704570015998	"27"	17128.303994886	17120.885808585	1.5	0.1
0.01	1	0.210557095000695	1	75	NA	432.458674698999	0	0.56	5.63	1	422.934960496998	423.145517591998	"27"	17128.303994886	17120.885808585	1.5	0.1
0.01	1	0.176075314000627	1	75	NA	432.458674698999	0	0.56	5.63	1	423.369043921997	423.545119235998	"27"	17128.303994886	17120.885808585	1.5	0.1
0.01	1	0.223891737001395	1	75	NA	432.458674698999	0	0.56	5.63	1	423.769619456998	423.993511193999	"27"	17128.303994886	17120.885808585	1.5	0.1
0.01	1	0.229116493002948	1	75	NA	432.458674698999	0	0.56	5.63	1	424.220406148997	424.449522642	"27"	17128.303994886	17120.885808585	1.5	0.1
0.01	1	0.16281391099983	1	75	NA	432.458674698999	0	0.56	5.63	1	424.687868204001	424.850682115	"27"	17128.303994886	17120.885808585	1.5	0.1
0.01	1	0.122169112000847	1	75	NA	432.458674698999	0	0.56	5.63	1	425.088501628998	425.210670740998	"27"	17128.303994886	17120.885808585	1.5	0.1
0.01	1	0.162043697000627	1	75	NA	432.458674698999	0	0.56	5.63	1	425.439184617	425.601228314001	"27"	17128.303994886	17120.885808585	1.5	0.1
0.01	1	0.186415369997121	1	75	NA	432.458674698999	0	0.56	5.63	1	425.823161934	426.009577303998	"27"	17128.303994886	17120.885808585	1.5	0.1
0.01	1	0.112932367999747	1	75	NA	432.458674698999	0	0.56	5.63	1	426.240464443999	426.353396811999	"27"	17128.303994886	17120.885808585	1.5	0.1
0.01	1	0.154465941999661	1	75	NA	432.458674698999	0	0.56	5.63	1	426.574360387	426.728826328999	"27"	17128.303994886	17120.885808585	1.5	0.1
0.01	1	0.106216813001083	1	75	NA	432.458674698999	0	0.56	5.63	1	426.958418271999	427.064635085	"27"	17128.303994886	17120.885808585	1.5	0.1
0.01	1	0.11020850299974	1	75	NA	432.458674698999	0	0.56	5.63	1	427.292217883998	427.402426386998	"27"	17128.303994886	17120.885808585	1.5	0.1
0.01	1	0.0946411410004657	1	75	NA	432.458674698999	0	0.56	5.63	1	427.642878351999	427.737519492999	"27"	17128.303994886	17120.885808585	1.5	0.1
0.01	1	0.1206258050006	1	75	NA	432.458674698999	0	0.56	5.63	1	427.960156357	428.080782162	"27"	17128.303994886	17120.885808585	1.5	0.1
0.01	1	0.091878633997112	1	75	NA	432.458674698999	0	0.56	5.63	1	428.310583012	428.402461645997	"27"	17128.303994886	17120.885808585	1.5	0.1
0.01	1	0.101928807998775	1	75	NA	432.458674698999	0	0.56	5.63	1	428.627919117	428.729847924998	"27"	17128.303994886	17120.885808585	1.5	0.1
0.01	1	0.528057560997695	1	75	NA	432.458674698999	0	0.56	5.63	1	428.961778129	429.489835689998	"27"	17128.303994886	17120.885808585	1.5	0.1
0.01	1	0.00458388000333798	1	75	NA	432.458674698999	0	0.56	5.63	1	429.712958206997	429.717542087001	"27"	17128.303994886	17120.885808585	1.5	0.1
0.01	1	0.838731566000206	1	75	NA	432.458674698999	0	0.56	5.63	1	429.946722656998	430.785454222998	"27"	17128.303994886	17120.885808585	1.5	0.1
0.01	1	0.00210638999851653	1	75	NA	432.458674698999	0	0.56	5.63	1	431.015217873999	431.017324263998	"27"	17128.303994886	17120.885808585	1.5	0.1
0.01	1	1.20817225499923	2	75	NA	432.458674698999	0	0.56	5.63	1	431.248914881999	432.457087136998	"27"	17128.303994886	17120.885808585	1.5	0.1
0.01	1	0.658843960998638	1	65	NA	437.204032046	0	0.04	5.67	1	434.487797792	435.146641752999	"28"	17128.303994886	17120.885808585	1.5	0.1
0.01	1	0.0942349799988733	1	65	NA	437.204032046	0	0.04	5.67	1	435.372445986999	435.466680966998	"28"	17128.303994886	17120.885808585	1.5	0.1
0.01	1	0.134409169997525	1	65	NA	437.204032046	0	0.04	5.67	1	435.706375227001	435.840784396998	"28"	17128.303994886	17120.885808585	1.5	0.1
0.01	1	0.183451483000681	1	65	NA	437.204032046	0	0.04	5.67	1	436.073685611998	436.257137094999	"28"	17128.303994886	17120.885808585	1.5	0.1
0.01	1	0.711331174999941	2	65	NA	437.204032046	0	0.04	5.67	1	436.491127832	437.202459007	"28"	17128.303994886	17120.885808585	1.5	0.1
0.01	1	0.893103886999597	1	52	NA	441.699970307	0	0.03	5.7	1	439.245679831998	440.138783718998	"29"	17128.303994886	17120.885808585	1.5	0.1
0.01	1	0.254064267999638	1	52	NA	441.699970307	0	0.03	5.7	1	440.364266886998	440.618331154998	"29"	17128.303994886	17120.885808585	1.5	0.1
0.01	1	0.256365435001499	1	52	NA	441.699970307	0	0.03	5.7	1	440.848423363997	441.104788798999	"29"	17128.303994886	17120.885808585	1.5	0.1
0.01	1	0.365891704001115	2	52	NA	441.699970307	0	0.03	5.7	1	441.332489072	441.698380776001	"29"	17128.303994886	17120.885808585	1.5	0.1
