"payoff.level"	"balloon"	"rt"	"resp"	"explode.trial"	"explode.time"	"finish.time"	"exploded"	"trial.total"	"cumulative.total"	"finished"	"trial.start"	"trial.end"	"trial.num"	"secs"	"start.time"	"iti"	"isi"
0.01	1	2.23962277499993	1	64	NA	23.3214293350001	0	0.32	0.32	1	0.00834831100007705	2.24797108600001	"1"	1203.782214283	1188.742775718	1.5	0.1
0.01	1	0.529075810999984	1	64	NA	23.3214293350001	0	0.32	0.32	1	2.6293909100001	3.15846672100008	"1"	1203.782214283	1188.742775718	1.5	0.1
0.01	1	0.514280958000086	1	64	NA	23.3214293350001	0	0.32	0.32	1	3.39724816	3.91152911800009	"1"	1203.782214283	1188.742775718	1.5	0.1
0.01	1	0.442747671000006	1	64	NA	23.3214293350001	0	0.32	0.32	1	4.14869466200003	4.59144233300003	"1"	1203.782214283	1188.742775718	1.5	0.1
0.01	1	0.390606003000016	1	64	NA	23.3214293350001	0	0.32	0.32	1	4.81628424600001	5.20689024900003	"1"	1203.782214283	1188.742775718	1.5	0.1
0.01	1	0.500709024999992	1	64	NA	23.3214293350001	0	0.32	0.32	1	5.43404017900002	5.93474920400001	"1"	1203.782214283	1188.742775718	1.5	0.1
0.01	1	0.357190784999943	1	64	NA	23.3214293350001	0	0.32	0.32	1	6.1685765420001	6.52576732700004	"1"	1203.782214283	1188.742775718	1.5	0.1
0.01	1	0.381933517999983	1	64	NA	23.3214293350001	0	0.32	0.32	1	6.75305553200008	7.13498905000006	"1"	1203.782214283	1188.742775718	1.5	0.1
0.01	1	0.244337519000055	1	64	NA	23.3214293350001	0	0.32	0.32	1	7.370634741	7.61497226000006	"1"	1203.782214283	1188.742775718	1.5	0.1
0.01	1	0.217478280000023	1	64	NA	23.3214293350001	0	0.32	0.32	1	7.83820898700003	8.05568726700005	"1"	1203.782214283	1188.742775718	1.5	0.1
0.01	1	0.325411720000034	1	64	NA	23.3214293350001	0	0.32	0.32	1	8.288792994	8.61420471400004	"1"	1203.782214283	1188.742775718	1.5	0.1
0.01	1	0.574057274999973	1	64	NA	23.3214293350001	0	0.32	0.32	1	8.83973157800006	9.41378885300003	"1"	1203.782214283	1188.742775718	1.5	0.1
0.01	1	0.350361115999931	1	64	NA	23.3214293350001	0	0.32	0.32	1	9.64122258000009	9.99158369600002	"1"	1203.782214283	1188.742775718	1.5	0.1
0.01	1	0.725875015000042	1	64	NA	23.3214293350001	0	0.32	0.32	1	10.225557736	10.9514327510001	"1"	1203.782214283	1188.742775718	1.5	0.1
0.01	1	0.341864161999979	1	64	NA	23.3214293350001	0	0.32	0.32	1	11.1770037340001	11.5188678960001	"1"	1203.782214283	1188.742775718	1.5	0.1
0.01	1	0.383909812999946	1	64	NA	23.3214293350001	0	0.32	0.32	1	11.7447187370001	12.12862855	"1"	1203.782214283	1188.742775718	1.5	0.1
0.01	1	0.461439767999991	1	64	NA	23.3214293350001	0	0.32	0.32	1	12.3623733220001	12.82381309	"1"	1203.782214283	1188.742775718	1.5	0.1
0.01	1	0.384909235999999	1	64	NA	23.3214293350001	0	0.32	0.32	1	13.0468261110001	13.4317353470001	"1"	1203.782214283	1188.742775718	1.5	0.1
0.01	1	0.319359351000003	1	64	NA	23.3214293350001	0	0.32	0.32	1	13.6646736270001	13.9840329780001	"1"	1203.782214283	1188.742775718	1.5	0.1
0.01	1	0.352446986000018	1	64	NA	23.3214293350001	0	0.32	0.32	1	14.215563622	14.568010608	"1"	1203.782214283	1188.742775718	1.5	0.1
0.01	1	0.383499621000055	1	64	NA	23.3214293350001	0	0.32	0.32	1	14.799899322	15.183398943	"1"	1203.782214283	1188.742775718	1.5	0.1
0.01	1	0.45273225699998	1	64	NA	23.3214293350001	0	0.32	0.32	1	15.417539074	15.870271331	"1"	1203.782214283	1188.742775718	1.5	0.1
0.01	1	0.464030782999998	1	64	NA	23.3214293350001	0	0.32	0.32	1	16.101969657	16.56600044	"1"	1203.782214283	1188.742775718	1.5	0.1
0.01	1	0.436772783999913	1	64	NA	23.3214293350001	0	0.32	0.32	1	16.8031199740001	17.239892758	"1"	1203.782214283	1188.742775718	1.5	0.1
0.01	1	0.376211435999949	1	64	NA	23.3214293350001	0	0.32	0.32	1	17.47096595	17.847177386	"1"	1203.782214283	1188.742775718	1.5	0.1
0.01	1	0.414879602999918	1	64	NA	23.3214293350001	0	0.32	0.32	1	18.0719302020001	18.486809805	"1"	1203.782214283	1188.742775718	1.5	0.1
0.01	1	0.372507921999954	1	64	NA	23.3214293350001	0	0.32	0.32	1	18.7230255320001	19.095533454	"1"	1203.782214283	1188.742775718	1.5	0.1
0.01	1	0.41798328099992	1	64	NA	23.3214293350001	0	0.32	0.32	1	19.3239930230001	19.741976304	"1"	1203.782214283	1188.742775718	1.5	0.1
0.01	1	0.407763735999993	1	64	NA	23.3214293350001	0	0.32	0.32	1	19.975128497	20.382892233	"1"	1203.782214283	1188.742775718	1.5	0.1
0.01	1	0.461704117000068	1	64	NA	23.3214293350001	0	0.32	0.32	1	20.609738741	21.0714428580001	"1"	1203.782214283	1188.742775718	1.5	0.1
0.01	1	0.399976614000025	1	64	NA	23.3214293350001	0	0.32	0.32	1	21.294141262	21.6941178760001	"1"	1203.782214283	1188.742775718	1.5	0.1
0.01	1	0.385515132000023	1	64	NA	23.3214293350001	0	0.32	0.32	1	21.9284681610001	22.3139832930001	"1"	1203.782214283	1188.742775718	1.5	0.1
0.01	1	0.773655957000074	2	64	NA	23.3214293350001	0	0.32	0.32	1	22.546182615	23.3198385720001	"1"	1203.782214283	1188.742775718	1.5	0.1
0.01	1	1.67966519200002	1	68	NA	45.056610587	0	0.63	0.95	1	25.3676183800001	27.0472835720001	"2"	1203.782214283	1188.742775718	1.5	0.1
0.01	1	0.463002483999958	1	68	NA	45.056610587	0	0.63	0.95	1	27.287517704	27.750520188	"2"	1203.782214283	1188.742775718	1.5	0.1
0.01	1	0.0749530649999315	1	68	NA	45.056610587	0	0.63	0.95	1	27.9886230420001	28.063576107	"2"	1203.782214283	1188.742775718	1.5	0.1
0.01	1	0.0852542850000191	1	68	NA	45.056610587	0	0.63	0.95	1	28.289147647	28.3744019320001	"2"	1203.782214283	1188.742775718	1.5	0.1
0.01	1	0.128898404999973	1	68	NA	45.056610587	0	0.63	0.95	1	28.60644747	28.735345875	"2"	1203.782214283	1188.742775718	1.5	0.1
0.01	1	0.130930531999979	1	68	NA	45.056610587	0	0.63	0.95	1	28.956945742	29.087876274	"2"	1203.782214283	1188.742775718	1.5	0.1
0.01	1	0.131650501999957	1	68	NA	45.056610587	0	0.63	0.95	1	29.324274185	29.455924687	"2"	1203.782214283	1188.742775718	1.5	0.1
0.01	1	0.100003771000047	1	68	NA	45.056610587	0	0.63	0.95	1	29.691472511	29.7914762820001	"2"	1203.782214283	1188.742775718	1.5	0.1
0.01	1	0.068527736999954	1	68	NA	45.056610587	0	0.63	0.95	1	30.0255968910001	30.094124628	"2"	1203.782214283	1188.742775718	1.5	0.1
0.01	1	0.0023444969999673	1	68	NA	45.056610587	0	0.63	0.95	1	30.3259186930001	30.32826319	"2"	1203.782214283	1188.742775718	1.5	0.1
0.01	1	0.00678095199998552	1	68	NA	45.056610587	0	0.63	0.95	1	30.559628598	30.56640955	"2"	1203.782214283	1188.742775718	1.5	0.1
0.01	1	0.00471621199994843	1	68	NA	45.056610587	0	0.63	0.95	1	30.7933546850001	30.798070897	"2"	1203.782214283	1188.742775718	1.5	0.1
0.01	1	0.00218838500006768	1	68	NA	45.056610587	0	0.63	0.95	1	31.027128082	31.0293164670001	"2"	1203.782214283	1188.742775718	1.5	0.1
0.01	1	0.00229880000006233	1	68	NA	45.056610587	0	0.63	0.95	1	31.26085743	31.26315623	"2"	1203.782214283	1188.742775718	1.5	0.1
0.01	1	0.00218987499999912	1	68	NA	45.056610587	0	0.63	0.95	1	31.494512254	31.496702129	"2"	1203.782214283	1188.742775718	1.5	0.1
0.01	1	0.00238908699998319	1	68	NA	45.056610587	0	0.63	0.95	1	31.7284062570001	31.7307953440001	"2"	1203.782214283	1188.742775718	1.5	0.1
0.01	1	0.0216999870000336	1	68	NA	45.056610587	0	0.63	0.95	1	31.9619977900001	31.9836977770001	"2"	1203.782214283	1188.742775718	1.5	0.1
0.01	1	0.00226027499991233	1	68	NA	45.056610587	0	0.63	0.95	1	32.2123744720001	32.214634747	"2"	1203.782214283	1188.742775718	1.5	0.1
0.01	1	0.0162829150000334	1	68	NA	45.056610587	0	0.63	0.95	1	32.4462968620001	32.4625797770001	"2"	1203.782214283	1188.742775718	1.5	0.1
0.01	1	0.00237538299995776	1	68	NA	45.056610587	0	0.63	0.95	1	32.696621819	32.698997202	"2"	1203.782214283	1188.742775718	1.5	0.1
0.01	1	0.00505314099996212	1	68	NA	45.056610587	0	0.63	0.95	1	32.9303046900001	32.935357831	"2"	1203.782214283	1188.742775718	1.5	0.1
0.01	1	0.00219129699996756	1	68	NA	45.056610587	0	0.63	0.95	1	33.16414652	33.166337817	"2"	1203.782214283	1188.742775718	1.5	0.1
0.01	1	0.0024240819999477	1	68	NA	45.056610587	0	0.63	0.95	1	33.397715776	33.400139858	"2"	1203.782214283	1188.742775718	1.5	0.1
0.01	1	0.00252874299997075	1	68	NA	45.056610587	0	0.63	0.95	1	33.6315130410001	33.634041784	"2"	1203.782214283	1188.742775718	1.5	0.1
0.01	1	0.00236776300005204	1	68	NA	45.056610587	0	0.63	0.95	1	33.865333456	33.8677012190001	"2"	1203.782214283	1188.742775718	1.5	0.1
0.01	1	0.00234586399994896	1	68	NA	45.056610587	0	0.63	0.95	1	34.0989304440001	34.101276308	"2"	1203.782214283	1188.742775718	1.5	0.1
0.01	1	0.0910369279999941	1	68	NA	45.056610587	0	0.63	0.95	1	34.332672802	34.42370973	"2"	1203.782214283	1188.742775718	1.5	0.1
0.01	1	0.00210613800004467	1	68	NA	45.056610587	0	0.63	0.95	1	34.649940892	34.6520470300001	"2"	1203.782214283	1188.742775718	1.5	0.1
0.01	1	0.00224177799998415	1	68	NA	45.056610587	0	0.63	0.95	1	34.8836380380001	34.8858798160001	"2"	1203.782214283	1188.742775718	1.5	0.1
0.01	1	0.00251717799994822	1	68	NA	45.056610587	0	0.63	0.95	1	35.1172684090001	35.119785587	"2"	1203.782214283	1188.742775718	1.5	0.1
0.01	1	0.00234338299992487	1	68	NA	45.056610587	0	0.63	0.95	1	35.3510898300001	35.353433213	"2"	1203.782214283	1188.742775718	1.5	0.1
0.01	1	0.110656288999962	1	68	NA	45.056610587	0	0.63	0.95	1	35.5847262680001	35.695382557	"2"	1203.782214283	1188.742775718	1.5	0.1
0.01	1	0.153081016999977	1	68	NA	45.056610587	0	0.63	0.95	1	35.918625837	36.071706854	"2"	1203.782214283	1188.742775718	1.5	0.1
0.01	1	0.00953291300004366	1	68	NA	45.056610587	0	0.63	0.95	1	36.302604983	36.3121378960001	"2"	1203.782214283	1188.742775718	1.5	0.1
0.01	1	0.0074977009999202	1	68	NA	45.056610587	0	0.63	0.95	1	36.5364060190001	36.54390372	"2"	1203.782214283	1188.742775718	1.5	0.1
0.01	1	0.0023148630000378	1	68	NA	45.056610587	0	0.63	0.95	1	36.770110399	36.7724252620001	"2"	1203.782214283	1188.742775718	1.5	0.1
0.01	1	0.0113462599999821	1	68	NA	45.056610587	0	0.63	0.95	1	37.003914299	37.015260559	"2"	1203.782214283	1188.742775718	1.5	0.1
0.01	1	0.00267643600000156	1	68	NA	45.056610587	0	0.63	0.95	1	37.237587264	37.2402637	"2"	1203.782214283	1188.742775718	1.5	0.1
0.01	1	0.112374536999937	1	68	NA	45.056610587	0	0.63	0.95	1	37.4714671170001	37.583841654	"2"	1203.782214283	1188.742775718	1.5	0.1
0.01	1	0.00273763799998505	1	68	NA	45.056610587	0	0.63	0.95	1	37.8218828290001	37.824620467	"2"	1203.782214283	1188.742775718	1.5	0.1
0.01	1	0.00223838300007628	1	68	NA	45.056610587	0	0.63	0.95	1	38.055709448	38.0579478310001	"2"	1203.782214283	1188.742775718	1.5	0.1
0.01	1	0.00248330600004465	1	68	NA	45.056610587	0	0.63	0.95	1	38.289389074	38.2918723800001	"2"	1203.782214283	1188.742775718	1.5	0.1
0.01	1	0.0590398220000452	1	68	NA	45.056610587	0	0.63	0.95	1	38.52325455	38.5822943720001	"2"	1203.782214283	1188.742775718	1.5	0.1
0.01	1	0.00236016999997446	1	68	NA	45.056610587	0	0.63	0.95	1	38.806843734	38.809203904	"2"	1203.782214283	1188.742775718	1.5	0.1
0.01	1	0.0023234490000732	1	68	NA	45.056610587	0	0.63	0.95	1	39.040618042	39.0429414910001	"2"	1203.782214283	1188.742775718	1.5	0.1
0.01	1	0.00220615299997462	1	68	NA	45.056610587	0	0.63	0.95	1	39.274347034	39.276553187	"2"	1203.782214283	1188.742775718	1.5	0.1
0.01	1	0.0834272739999733	1	68	NA	45.056610587	0	0.63	0.95	1	39.5080892870001	39.591516561	"2"	1203.782214283	1188.742775718	1.5	0.1
0.01	1	0.0021944599999415	1	68	NA	45.056610587	0	0.63	0.95	1	39.8253617190001	39.827556179	"2"	1203.782214283	1188.742775718	1.5	0.1
0.01	1	0.0127901140000404	1	68	NA	45.056610587	0	0.63	0.95	1	40.05898484	40.071774954	"2"	1203.782214283	1188.742775718	1.5	0.1
0.01	1	0.00250376700000743	1	68	NA	45.056610587	0	0.63	0.95	1	40.30937364	40.311877407	"2"	1203.782214283	1188.742775718	1.5	0.1
0.01	1	0.0322509210000135	1	68	NA	45.056610587	0	0.63	0.95	1	40.543058208	40.5753091290001	"2"	1203.782214283	1188.742775718	1.5	0.1
0.01	1	0.0045441340000707	1	68	NA	45.056610587	0	0.63	0.95	1	40.810159191	40.8147033250001	"2"	1203.782214283	1188.742775718	1.5	0.1
0.01	1	0.00231665399996928	1	68	NA	45.056610587	0	0.63	0.95	1	41.044056252	41.046372906	"2"	1203.782214283	1188.742775718	1.5	0.1
0.01	1	0.00229275900005632	1	68	NA	45.056610587	0	0.63	0.95	1	41.277608998	41.2799017570001	"2"	1203.782214283	1188.742775718	1.5	0.1
0.01	1	0.0036495129999139	1	68	NA	45.056610587	0	0.63	0.95	1	41.5115530390001	41.515202552	"2"	1203.782214283	1188.742775718	1.5	0.1
0.01	1	0.116908960000046	1	68	NA	45.056610587	0	0.63	0.95	1	41.745168477	41.862077437	"2"	1203.782214283	1188.742775718	1.5	0.1
0.01	1	0.00234257800002524	1	68	NA	45.056610587	0	0.63	0.95	1	42.09582688	42.098169458	"2"	1203.782214283	1188.742775718	1.5	0.1
0.01	1	0.00238830299997517	1	68	NA	45.056610587	0	0.63	0.95	1	42.329510753	42.331899056	"2"	1203.782214283	1188.742775718	1.5	0.1
0.01	1	0.0924033200000167	1	68	NA	45.056610587	0	0.63	0.95	1	42.5633714210001	42.6557747410001	"2"	1203.782214283	1188.742775718	1.5	0.1
0.01	1	0.038270945000022	1	68	NA	45.056610587	0	0.63	0.95	1	42.880302669	42.918573614	"2"	1203.782214283	1188.742775718	1.5	0.1
0.01	1	0.00261112400005459	1	68	NA	45.056610587	0	0.63	0.95	1	43.147512803	43.1501239270001	"2"	1203.782214283	1188.742775718	1.5	0.1
0.01	1	0.00856803599992872	1	68	NA	45.056610587	0	0.63	0.95	1	43.3811891940001	43.38975723	"2"	1203.782214283	1188.742775718	1.5	0.1
0.01	1	0.480276307000054	1	68	NA	45.056610587	0	0.63	0.95	1	43.614956398	44.0952327050001	"2"	1203.782214283	1188.742775718	1.5	0.1
0.01	1	0.722103710000056	2	68	NA	45.056610587	0	0.63	0.95	1	44.332904428	45.0550081380001	"2"	1203.782214283	1188.742775718	1.5	0.1
0.01	1	0.645802885999956	1	33	56.756312052	NA	1	0	0.95	1	47.104231557	47.750034443	"3"	1203.782214283	1188.742775718	1.5	0.1
0.01	1	0.00222884400000112	1	33	56.756312052	NA	1	0	0.95	1	47.989039046	47.99126789	"3"	1203.782214283	1188.742775718	1.5	0.1
0.01	1	0.00234407000004921	1	33	56.756312052	NA	1	0	0.95	1	48.22272179	48.2250658600001	"3"	1203.782214283	1188.742775718	1.5	0.1
0.01	1	0.0715116589999525	1	33	56.756312052	NA	1	0	0.95	1	48.4563619920001	48.527873651	"3"	1203.782214283	1188.742775718	1.5	0.1
0.01	1	0.00234592199990402	1	33	56.756312052	NA	1	0	0.95	1	48.7568773270001	48.759223249	"3"	1203.782214283	1188.742775718	1.5	0.1
0.01	1	0.103880996000044	1	33	56.756312052	NA	1	0	0.95	1	48.990781951	49.0946629470001	"3"	1203.782214283	1188.742775718	1.5	0.1
0.01	1	0.00227098400000614	1	33	56.756312052	NA	1	0	0.95	1	49.3245175440001	49.3267885280001	"3"	1203.782214283	1188.742775718	1.5	0.1
0.01	1	0.00260215499997685	1	33	56.756312052	NA	1	0	0.95	1	49.5582895150001	49.56089167	"3"	1203.782214283	1188.742775718	1.5	0.1
0.01	1	0.270304175000092	1	33	56.756312052	NA	1	0	0.95	1	49.792051657	50.0623558320001	"3"	1203.782214283	1188.742775718	1.5	0.1
0.01	1	0.00232875999995485	1	33	56.756312052	NA	1	0	0.95	1	50.2928866860001	50.295215446	"3"	1203.782214283	1188.742775718	1.5	0.1
0.01	1	0.0813584400000309	1	33	56.756312052	NA	1	0	0.95	1	50.526526018	50.6078844580001	"3"	1203.782214283	1188.742775718	1.5	0.1
0.01	1	0.0022140449999597	1	33	56.756312052	NA	1	0	0.95	1	50.843833321	50.846047366	"3"	1203.782214283	1188.742775718	1.5	0.1
0.01	1	0.106201011000053	1	33	56.756312052	NA	1	0	0.95	1	51.077503784	51.183704795	"3"	1203.782214283	1188.742775718	1.5	0.1
0.01	1	0.00249261999999817	1	33	56.756312052	NA	1	0	0.95	1	51.4113528170001	51.4138454370001	"3"	1203.782214283	1188.742775718	1.5	0.1
0.01	1	0.0894292469999982	1	33	56.756312052	NA	1	0	0.95	1	51.64510023	51.734529477	"3"	1203.782214283	1188.742775718	1.5	0.1
0.01	1	0.0149540580000576	1	33	56.756312052	NA	1	0	0.95	1	51.962308782	51.9772628400001	"3"	1203.782214283	1188.742775718	1.5	0.1
0.01	1	0.0894437900000185	1	33	56.756312052	NA	1	0	0.95	1	52.212806053	52.302249843	"3"	1203.782214283	1188.742775718	1.5	0.1
0.01	1	0.00219778499990753	1	33	56.756312052	NA	1	0	0.95	1	52.5299170510001	52.532114836	"3"	1203.782214283	1188.742775718	1.5	0.1
0.01	1	0.0758729140000014	1	33	56.756312052	NA	1	0	0.95	1	52.763678895	52.839551809	"3"	1203.782214283	1188.742775718	1.5	0.1
0.01	1	0.00243001799992726	1	33	56.756312052	NA	1	0	0.95	1	53.0642580780001	53.066688096	"3"	1203.782214283	1188.742775718	1.5	0.1
0.01	1	0.0858219899999995	1	33	56.756312052	NA	1	0	0.95	1	53.297872983	53.383694973	"3"	1203.782214283	1188.742775718	1.5	0.1
0.01	1	0.00265207199993256	1	33	56.756312052	NA	1	0	0.95	1	53.6150328670001	53.617684939	"3"	1203.782214283	1188.742775718	1.5	0.1
0.01	1	0.0705361710000716	1	33	56.756312052	NA	1	0	0.95	1	53.848812187	53.9193483580001	"3"	1203.782214283	1188.742775718	1.5	0.1
0.01	1	0.00232432699999663	1	33	56.756312052	NA	1	0	0.95	1	54.1493955000001	54.1517198270001	"3"	1203.782214283	1188.742775718	1.5	0.1
0.01	1	0.0787979599999744	1	33	56.756312052	NA	1	0	0.95	1	54.383062544	54.461860504	"3"	1203.782214283	1188.742775718	1.5	0.1
0.01	1	0.00234870700001011	1	33	56.756312052	NA	1	0	0.95	1	54.683589253	54.68593796	"3"	1203.782214283	1188.742775718	1.5	0.1
0.01	1	0.0505531719999226	1	33	56.756312052	NA	1	0	0.95	1	54.9173394200001	54.967892592	"3"	1203.782214283	1188.742775718	1.5	0.1
0.01	1	0.00233745999992152	1	33	56.756312052	NA	1	0	0.95	1	55.2010993240001	55.203436784	"3"	1203.782214283	1188.742775718	1.5	0.1
0.01	1	0.100149153999951	1	33	56.756312052	NA	1	0	0.95	1	55.4348465500001	55.534995704	"3"	1203.782214283	1188.742775718	1.5	0.1
0.01	1	0.00226741899996341	1	33	56.756312052	NA	1	0	0.95	1	55.7686786200001	55.770946039	"3"	1203.782214283	1188.742775718	1.5	0.1
0.01	1	0.0687461759999906	1	33	56.756312052	NA	1	0	0.95	1	56.0023912910001	56.0711374670001	"3"	1203.782214283	1188.742775718	1.5	0.1
0.01	1	0.00219680800000788	1	33	56.756312052	NA	1	0	0.95	1	56.3030784380001	56.3052752460001	"3"	1203.782214283	1188.742775718	1.5	0.1
0.01	1	0.101325599999996	1	33	56.756312052	NA	1	0	0.95	1	56.536698954	56.638024554	"3"	1203.782214283	1188.742775718	1.5	0.1
0.01	1	1.182667638	1	105	NA	69.041216306	0	0.29	1.24	1	58.807108426	59.989776064	"4"	1203.782214283	1188.742775718	1.5	0.1
0.01	1	0.00234032000003026	1	105	NA	69.041216306	0	0.29	1.24	1	60.2261789520001	60.2285192720001	"4"	1203.782214283	1188.742775718	1.5	0.1
0.01	1	0.0440170060001037	1	105	NA	69.041216306	0	0.29	1.24	1	60.4598562	60.5038732060001	"4"	1203.782214283	1188.742775718	1.5	0.1
0.01	1	0.00221941300003436	1	105	NA	69.041216306	0	0.29	1.24	1	60.727068206	60.729287619	"4"	1203.782214283	1188.742775718	1.5	0.1
0.01	1	0.0648183819999986	1	105	NA	69.041216306	0	0.29	1.24	1	60.9607855600001	61.0256039420001	"4"	1203.782214283	1188.742775718	1.5	0.1
0.01	1	0.00870357100006913	1	105	NA	69.041216306	0	0.29	1.24	1	61.26131775	61.2700213210001	"4"	1203.782214283	1188.742775718	1.5	0.1
0.01	1	0.0162068160000217	1	105	NA	69.041216306	0	0.29	1.24	1	61.494951924	61.51115874	"4"	1203.782214283	1188.742775718	1.5	0.1
0.01	1	0.124448596999969	1	105	NA	69.041216306	0	0.29	1.24	1	61.7455518600001	61.8700004570001	"4"	1203.782214283	1188.742775718	1.5	0.1
0.01	1	0.00241452000000208	1	105	NA	69.041216306	0	0.29	1.24	1	62.0959981440001	62.0984126640001	"4"	1203.782214283	1188.742775718	1.5	0.1
0.01	1	0.0765269159999207	1	105	NA	69.041216306	0	0.29	1.24	1	62.3296921540001	62.40621907	"4"	1203.782214283	1188.742775718	1.5	0.1
0.01	1	0.128695629999925	1	105	NA	69.041216306	0	0.29	1.24	1	62.6303891900001	62.75908482	"4"	1203.782214283	1188.742775718	1.5	0.1
0.01	1	0.00232493400005751	1	105	NA	69.041216306	0	0.29	1.24	1	62.98074752	62.9830724540001	"4"	1203.782214283	1188.742775718	1.5	0.1
0.01	1	0.0961906699999417	1	105	NA	69.041216306	0	0.29	1.24	1	63.2146084660001	63.310799136	"4"	1203.782214283	1188.742775718	1.5	0.1
0.01	1	0.12298763199999	1	105	NA	69.041216306	0	0.29	1.24	1	63.548511134	63.671498766	"4"	1203.782214283	1188.742775718	1.5	0.1
0.01	1	0.00233363400002418	1	105	NA	69.041216306	0	0.29	1.24	1	63.899039895	63.901373529	"4"	1203.782214283	1188.742775718	1.5	0.1
0.01	1	0.0824634880000303	1	105	NA	69.041216306	0	0.29	1.24	1	64.1328246200001	64.2152881080001	"4"	1203.782214283	1188.742775718	1.5	0.1
0.01	1	0.00219753300007142	1	105	NA	69.041216306	0	0.29	1.24	1	64.449904907	64.4521024400001	"4"	1203.782214283	1188.742775718	1.5	0.1
0.01	1	0.0525175270000773	1	105	NA	69.041216306	0	0.29	1.24	1	64.683643307	64.7361608340001	"4"	1203.782214283	1188.742775718	1.5	0.1
0.01	1	0.207374609999988	1	105	NA	69.041216306	0	0.29	1.24	1	64.9676263240001	65.1750009340001	"4"	1203.782214283	1188.742775718	1.5	0.1
0.01	1	0.00237557500008734	1	105	NA	69.041216306	0	0.29	1.24	1	65.401612033	65.4039876080001	"4"	1203.782214283	1188.742775718	1.5	0.1
0.01	1	0.00221137500000168	1	105	NA	69.041216306	0	0.29	1.24	1	65.635263363	65.637474738	"4"	1203.782214283	1188.742775718	1.5	0.1
0.01	1	0.0733289480000394	1	105	NA	69.041216306	0	0.29	1.24	1	65.869132132	65.94246108	"4"	1203.782214283	1188.742775718	1.5	0.1
0.01	1	0.00225611399991976	1	105	NA	69.041216306	0	0.29	1.24	1	66.1695024420001	66.171758556	"4"	1203.782214283	1188.742775718	1.5	0.1
0.01	1	0.00220033300001887	1	105	NA	69.041216306	0	0.29	1.24	1	66.4032182550001	66.4054185880001	"4"	1203.782214283	1188.742775718	1.5	0.1
0.01	1	0.00235949199998231	1	105	NA	69.041216306	0	0.29	1.24	1	66.637025632	66.639385124	"4"	1203.782214283	1188.742775718	1.5	0.1
0.01	1	0.15254913199999	1	105	NA	69.041216306	0	0.29	1.24	1	66.8706281890001	67.023177321	"4"	1203.782214283	1188.742775718	1.5	0.1
0.01	1	0.0246911699999828	1	105	NA	69.041216306	0	0.29	1.24	1	67.2546255660001	67.2793167360001	"4"	1203.782214283	1188.742775718	1.5	0.1
0.01	1	0.118403307000108	1	105	NA	69.041216306	0	0.29	1.24	1	67.505129776	67.6235330830001	"4"	1203.782214283	1188.742775718	1.5	0.1
0.01	1	0.046881689000088	1	105	NA	69.041216306	0	0.29	1.24	1	67.855759617	67.9026413060001	"4"	1203.782214283	1188.742775718	1.5	0.1
0.01	1	0.89998199899992	2	105	NA	69.041216306	0	0.29	1.24	1	68.1396184150001	69.039600414	"4"	1203.782214283	1188.742775718	1.5	0.1
0.01	1	0.11348120599996	1	73	NA	78.40114369	0	0.27	1.51	1	71.0944531580001	71.207934364	"5"	1203.782214283	1188.742775718	1.5	0.1
0.01	1	0.00221218799993039	1	73	NA	78.40114369	0	0.27	1.51	1	71.4450063600001	71.447218548	"5"	1203.782214283	1188.742775718	1.5	0.1
0.01	1	0.0720653980000634	1	73	NA	78.40114369	0	0.27	1.51	1	71.678724534	71.7507899320001	"5"	1203.782214283	1188.742775718	1.5	0.1
0.01	1	0.00272413599998345	1	73	NA	78.40114369	0	0.27	1.51	1	71.9793031940001	71.9820273300001	"5"	1203.782214283	1188.742775718	1.5	0.1
0.01	1	0.00321526200002609	1	73	NA	78.40114369	0	0.27	1.51	1	72.2129767	72.216191962	"5"	1203.782214283	1188.742775718	1.5	0.1
0.01	1	0.0646116140000004	1	73	NA	78.40114369	0	0.27	1.51	1	72.4468259060001	72.5114375200001	"5"	1203.782214283	1188.742775718	1.5	0.1
0.01	1	0.00240512799996395	1	73	NA	78.40114369	0	0.27	1.51	1	72.747200352	72.74960548	"5"	1203.782214283	1188.742775718	1.5	0.1
0.01	1	0.00233499599994502	1	73	NA	78.40114369	0	0.27	1.51	1	72.9809525310001	72.983287527	"5"	1203.782214283	1188.742775718	1.5	0.1
0.01	1	0.0967395929999384	1	73	NA	78.40114369	0	0.27	1.51	1	73.2147033660001	73.311442959	"5"	1203.782214283	1188.742775718	1.5	0.1
0.01	1	0.00237349200006065	1	73	NA	78.40114369	0	0.27	1.51	1	73.548669044	73.5510425360001	"5"	1203.782214283	1188.742775718	1.5	0.1
0.01	1	0.00218065799992928	1	73	NA	78.40114369	0	0.27	1.51	1	73.7823261880001	73.784506846	"5"	1203.782214283	1188.742775718	1.5	0.1
0.01	1	0.00236138699995081	1	73	NA	78.40114369	0	0.27	1.51	1	74.0160107	74.018372087	"5"	1203.782214283	1188.742775718	1.5	0.1
0.01	1	0.00248571400004494	1	73	NA	78.40114369	0	0.27	1.51	1	74.249831588	74.2523173020001	"5"	1203.782214283	1188.742775718	1.5	0.1
0.01	1	0.00393417599991608	1	73	NA	78.40114369	0	0.27	1.51	1	74.4835812140001	74.48751539	"5"	1203.782214283	1188.742775718	1.5	0.1
0.01	1	0.00401144499994643	1	73	NA	78.40114369	0	0.27	1.51	1	74.717315349	74.721326794	"5"	1203.782214283	1188.742775718	1.5	0.1
0.01	1	0.00217326599999978	1	73	NA	78.40114369	0	0.27	1.51	1	74.95101792	74.953191186	"5"	1203.782214283	1188.742775718	1.5	0.1
0.01	1	0.00234249999994063	1	73	NA	78.40114369	0	0.27	1.51	1	75.1847153690001	75.187057869	"5"	1203.782214283	1188.742775718	1.5	0.1
0.01	1	0.00238346699995873	1	73	NA	78.40114369	0	0.27	1.51	1	75.4185095620001	75.420893029	"5"	1203.782214283	1188.742775718	1.5	0.1
0.01	1	0.00341374600009203	1	73	NA	78.40114369	0	0.27	1.51	1	75.652254224	75.6556679700001	"5"	1203.782214283	1188.742775718	1.5	0.1
0.01	1	0.00347572199996193	1	73	NA	78.40114369	0	0.27	1.51	1	75.8857922460001	75.889267968	"5"	1203.782214283	1188.742775718	1.5	0.1
0.01	1	0.00221367599999667	1	73	NA	78.40114369	0	0.27	1.51	1	76.1195511130001	76.1217647890001	"5"	1203.782214283	1188.742775718	1.5	0.1
0.01	1	0.00253153000005568	1	73	NA	78.40114369	0	0.27	1.51	1	76.353276777	76.3558083070001	"5"	1203.782214283	1188.742775718	1.5	0.1
0.01	1	0.00221331900002042	1	73	NA	78.40114369	0	0.27	1.51	1	76.587107962	76.589321281	"5"	1203.782214283	1188.742775718	1.5	0.1
0.01	1	0.233089087000053	1	73	NA	78.40114369	0	0.27	1.51	1	76.82076581	77.0538548970001	"5"	1203.782214283	1188.742775718	1.5	0.1
0.01	1	0.00220417899993208	1	73	NA	78.40114369	0	0.27	1.51	1	77.2882054180001	77.290409597	"5"	1203.782214283	1188.742775718	1.5	0.1
0.01	1	0.00232118700000683	1	73	NA	78.40114369	0	0.27	1.51	1	77.5219771000001	77.5242982870001	"5"	1203.782214283	1188.742775718	1.5	0.1
0.01	1	0.00234997299992301	1	73	NA	78.40114369	0	0.27	1.51	1	77.7557470730001	77.758097046	"5"	1203.782214283	1188.742775718	1.5	0.1
0.01	1	0.410169558000007	2	73	NA	78.40114369	0	0.27	1.51	1	77.9894026100001	78.3995721680001	"5"	1203.782214283	1188.742775718	1.5	0.1
0.01	1	0.372388600000022	1	45	91.3298839290001	NA	1	0	1.51	1	80.426820869	80.7992094690001	"6"	1203.782214283	1188.742775718	1.5	0.1
0.01	1	0.00236097000004065	1	45	91.3298839290001	NA	1	0	1.51	1	81.027971942	81.0303329120001	"6"	1203.782214283	1188.742775718	1.5	0.1
0.01	1	0.00220622900008038	1	45	91.3298839290001	NA	1	0	1.51	1	81.26151382	81.2637200490001	"6"	1203.782214283	1188.742775718	1.5	0.1
0.01	1	0.00229807300001994	1	45	91.3298839290001	NA	1	0	1.51	1	81.495297722	81.4975957950001	"6"	1203.782214283	1188.742775718	1.5	0.1
0.01	1	0.00346922699998231	1	45	91.3298839290001	NA	1	0	1.51	1	81.7290624020001	81.7325316290001	"6"	1203.782214283	1188.742775718	1.5	0.1
0.01	1	0.00265294500002256	1	45	91.3298839290001	NA	1	0	1.51	1	81.9628014240001	81.9654543690001	"6"	1203.782214283	1188.742775718	1.5	0.1
0.01	1	0.0023499169999468	1	45	91.3298839290001	NA	1	0	1.51	1	82.1964642630001	82.19881418	"6"	1203.782214283	1188.742775718	1.5	0.1
0.01	1	0.00236375999998018	1	45	91.3298839290001	NA	1	0	1.51	1	82.4303741440001	82.4327379040001	"6"	1203.782214283	1188.742775718	1.5	0.1
0.01	1	0.0026858030000767	1	45	91.3298839290001	NA	1	0	1.51	1	82.663953289	82.6666390920001	"6"	1203.782214283	1188.742775718	1.5	0.1
0.01	1	0.00234594400001242	1	45	91.3298839290001	NA	1	0	1.51	1	82.897702234	82.900048178	"6"	1203.782214283	1188.742775718	1.5	0.1
0.01	1	0.00247391699997479	1	45	91.3298839290001	NA	1	0	1.51	1	83.1313371240001	83.1338110410001	"6"	1203.782214283	1188.742775718	1.5	0.1
0.01	1	0.00228123499994126	1	45	91.3298839290001	NA	1	0	1.51	1	83.3650812630001	83.367362498	"6"	1203.782214283	1188.742775718	1.5	0.1
0.01	1	0.0022631410000713	1	45	91.3298839290001	NA	1	0	1.51	1	83.598791227	83.6010543680001	"6"	1203.782214283	1188.742775718	1.5	0.1
0.01	1	0.00398287400003028	1	45	91.3298839290001	NA	1	0	1.51	1	83.832587696	83.83657057	"6"	1203.782214283	1188.742775718	1.5	0.1
0.01	1	0.00226412099993922	1	45	91.3298839290001	NA	1	0	1.51	1	84.066340917	84.068605038	"6"	1203.782214283	1188.742775718	1.5	0.1
0.01	1	0.00474847200007389	1	45	91.3298839290001	NA	1	0	1.51	1	84.300126257	84.3048747290001	"6"	1203.782214283	1188.742775718	1.5	0.1
0.01	1	0.00379093699996247	1	45	91.3298839290001	NA	1	0	1.51	1	84.6674140470001	84.671204984	"6"	1203.782214283	1188.742775718	1.5	0.1
0.01	1	0.00235919700003251	1	45	91.3298839290001	NA	1	0	1.51	1	84.9010110620001	84.9033702590001	"6"	1203.782214283	1188.742775718	1.5	0.1
0.01	1	0.00224260300001333	1	45	91.3298839290001	NA	1	0	1.51	1	85.134686774	85.136929377	"6"	1203.782214283	1188.742775718	1.5	0.1
0.01	1	0.00271226500001376	1	45	91.3298839290001	NA	1	0	1.51	1	85.36852075	85.371233015	"6"	1203.782214283	1188.742775718	1.5	0.1
0.01	1	0.00252198400005454	1	45	91.3298839290001	NA	1	0	1.51	1	85.602290979	85.6048129630001	"6"	1203.782214283	1188.742775718	1.5	0.1
0.01	1	0.00229005100004542	1	45	91.3298839290001	NA	1	0	1.51	1	85.835985295	85.838275346	"6"	1203.782214283	1188.742775718	1.5	0.1
0.01	1	0.00229273800005103	1	45	91.3298839290001	NA	1	0	1.51	1	86.06976935	86.0720620880001	"6"	1203.782214283	1188.742775718	1.5	0.1
0.01	1	0.00233233599999494	1	45	91.3298839290001	NA	1	0	1.51	1	86.303439441	86.305771777	"6"	1203.782214283	1188.742775718	1.5	0.1
0.01	1	0.0026341620000494	1	45	91.3298839290001	NA	1	0	1.51	1	86.53706049	86.5396946520001	"6"	1203.782214283	1188.742775718	1.5	0.1
0.01	1	0.00210195199997543	1	45	91.3298839290001	NA	1	0	1.51	1	86.770883355	86.772985307	"6"	1203.782214283	1188.742775718	1.5	0.1
0.01	1	0.00222044800000276	1	45	91.3298839290001	NA	1	0	1.51	1	87.0045955520001	87.0068160000001	"6"	1203.782214283	1188.742775718	1.5	0.1
0.01	1	0.00235710300000846	1	45	91.3298839290001	NA	1	0	1.51	1	87.2383248690001	87.2406819720001	"6"	1203.782214283	1188.742775718	1.5	0.1
0.01	1	0.00239268199993603	1	45	91.3298839290001	NA	1	0	1.51	1	87.4719901560001	87.474382838	"6"	1203.782214283	1188.742775718	1.5	0.1
0.01	1	0.00250059699999383	1	45	91.3298839290001	NA	1	0	1.51	1	87.705728374	87.708228971	"6"	1203.782214283	1188.742775718	1.5	0.1
0.01	1	0.00250016999996205	1	45	91.3298839290001	NA	1	0	1.51	1	87.9394222200001	87.9419223900001	"6"	1203.782214283	1188.742775718	1.5	0.1
0.01	1	0.00233644599995841	1	45	91.3298839290001	NA	1	0	1.51	1	88.173234188	88.175570634	"6"	1203.782214283	1188.742775718	1.5	0.1
0.01	1	0.00232648200005769	1	45	91.3298839290001	NA	1	0	1.51	1	88.406949275	88.409275757	"6"	1203.782214283	1188.742775718	1.5	0.1
0.01	1	0.00217966200000319	1	45	91.3298839290001	NA	1	0	1.51	1	88.640663396	88.642843058	"6"	1203.782214283	1188.742775718	1.5	0.1
0.01	1	0.00220626099996934	1	45	91.3298839290001	NA	1	0	1.51	1	88.8743621580001	88.876568419	"6"	1203.782214283	1188.742775718	1.5	0.1
0.01	1	0.00222654499998498	1	45	91.3298839290001	NA	1	0	1.51	1	89.108062161	89.110288706	"6"	1203.782214283	1188.742775718	1.5	0.1
0.01	1	0.00247936899995693	1	45	91.3298839290001	NA	1	0	1.51	1	89.3417608110001	89.34424018	"6"	1203.782214283	1188.742775718	1.5	0.1
0.01	1	0.00224732399999539	1	45	91.3298839290001	NA	1	0	1.51	1	89.5755876960001	89.5778350200001	"6"	1203.782214283	1188.742775718	1.5	0.1
0.01	1	0.00246108400006051	1	45	91.3298839290001	NA	1	0	1.51	1	89.809307706	89.8117687900001	"6"	1203.782214283	1188.742775718	1.5	0.1
0.01	1	0.00244293100001869	1	45	91.3298839290001	NA	1	0	1.51	1	90.042983689	90.0454266200001	"6"	1203.782214283	1188.742775718	1.5	0.1
0.01	1	0.0024330450000889	1	45	91.3298839290001	NA	1	0	1.51	1	90.27672737	90.2791604150001	"6"	1203.782214283	1188.742775718	1.5	0.1
0.01	1	0.00247925500002566	1	45	91.3298839290001	NA	1	0	1.51	1	90.5104607440001	90.5129399990001	"6"	1203.782214283	1188.742775718	1.5	0.1
0.01	1	0.00233551500002704	1	45	91.3298839290001	NA	1	0	1.51	1	90.744171614	90.7465071290001	"6"	1203.782214283	1188.742775718	1.5	0.1
0.01	1	0.0023736310000686	1	45	91.3298839290001	NA	1	0	1.51	1	90.977859349	90.9802329800001	"6"	1203.782214283	1188.742775718	1.5	0.1
0.01	1	0.00238090000004831	1	45	91.3298839290001	NA	1	0	1.51	1	91.211637888	91.2140187880001	"6"	1203.782214283	1188.742775718	1.5	0.1
0.01	1	0.624896282000009	1	10	96.940947402	NA	1	0	1.51	1	93.382084952	94.006981234	"7"	1203.782214283	1188.742775718	1.5	0.1
0.01	1	0.00226360099998146	1	10	96.940947402	NA	1	0	1.51	1	94.233358799	94.2356224	"7"	1203.782214283	1188.742775718	1.5	0.1
0.01	1	0.00236537199998565	1	10	96.940947402	NA	1	0	1.51	1	94.4670543670001	94.469419739	"7"	1203.782214283	1188.742775718	1.5	0.1
0.01	1	0.00234618900003625	1	10	96.940947402	NA	1	0	1.51	1	94.7008709090001	94.7032170980001	"7"	1203.782214283	1188.742775718	1.5	0.1
0.01	1	0.00220787799992195	1	10	96.940947402	NA	1	0	1.51	1	94.9345036420001	94.93671152	"7"	1203.782214283	1188.742775718	1.5	0.1
0.01	1	0.00232421500004421	1	10	96.940947402	NA	1	0	1.51	1	95.16819551	95.1705197250001	"7"	1203.782214283	1188.742775718	1.5	0.1
0.01	1	0.718201972999964	1	10	96.940947402	NA	1	0	1.51	1	95.401946927	96.1201489	"7"	1203.782214283	1188.742775718	1.5	0.1
0.01	1	0.00254008900003555	1	10	96.940947402	NA	1	0	1.51	1	96.353589841	96.3561299300001	"7"	1203.782214283	1188.742775718	1.5	0.1
0.01	1	0.00236545200004912	1	10	96.940947402	NA	1	0	1.51	1	96.587347397	96.5897128490001	"7"	1203.782214283	1188.742775718	1.5	0.1
0.01	1	0.00250126499997805	1	10	96.940947402	NA	1	0	1.51	1	96.821016749	96.823518014	"7"	1203.782214283	1188.742775718	1.5	0.1
0.01	1	0.232229824000001	1	37	NA	107.663716362	0	0.27	1.78	1	98.9914529370001	99.2236827610001	"8"	1203.782214283	1188.742775718	1.5	0.1
0.01	1	0.00247865699998329	1	37	NA	107.663716362	0	0.27	1.78	1	99.45885896	99.461337617	"8"	1203.782214283	1188.742775718	1.5	0.1
0.01	1	0.00222388800000317	1	37	NA	107.663716362	0	0.27	1.78	1	99.692624551	99.694848439	"8"	1203.782214283	1188.742775718	1.5	0.1
0.01	1	0.00237567800002125	1	37	NA	107.663716362	0	0.27	1.78	1	99.9262867690001	99.9286624470001	"8"	1203.782214283	1188.742775718	1.5	0.1
0.01	1	0.00235627699998986	1	37	NA	107.663716362	0	0.27	1.78	1	100.16003249	100.162388767	"8"	1203.782214283	1188.742775718	1.5	0.1
0.01	1	0.00241066299997783	1	37	NA	107.663716362	0	0.27	1.78	1	100.393764168	100.396174831	"8"	1203.782214283	1188.742775718	1.5	0.1
0.01	1	0.00245624700005465	1	37	NA	107.663716362	0	0.27	1.78	1	100.627567794	100.630024041	"8"	1203.782214283	1188.742775718	1.5	0.1
0.01	1	0.00214518200004932	1	37	NA	107.663716362	0	0.27	1.78	1	100.861270322	100.863415504	"8"	1203.782214283	1188.742775718	1.5	0.1
0.01	1	0.00236381100000926	1	37	NA	107.663716362	0	0.27	1.78	1	101.09499799	101.097361801	"8"	1203.782214283	1188.742775718	1.5	0.1
0.01	1	0.00228112799993596	1	37	NA	107.663716362	0	0.27	1.78	1	101.328691481	101.330972609	"8"	1203.782214283	1188.742775718	1.5	0.1
0.01	1	0.00229788100000405	1	37	NA	107.663716362	0	0.27	1.78	1	101.562369338	101.564667219	"8"	1203.782214283	1188.742775718	1.5	0.1
0.01	1	0.186646345999975	1	37	NA	107.663716362	0	0.27	1.78	1	101.796119037	101.982765383	"8"	1203.782214283	1188.742775718	1.5	0.1
0.01	1	0.226106358999914	1	37	NA	107.663716362	0	0.27	1.78	1	102.213475681	102.43958204	"8"	1203.782214283	1188.742775718	1.5	0.1
0.01	1	0.00217735799992624	1	37	NA	107.663716362	0	0.27	1.78	1	102.664218381	102.666395739	"8"	1203.782214283	1188.742775718	1.5	0.1
0.01	1	0.180857693999997	1	37	NA	107.663716362	0	0.27	1.78	1	102.897941099	103.078798793	"8"	1203.782214283	1188.742775718	1.5	0.1
0.01	1	0.547600922000015	1	37	NA	107.663716362	0	0.27	1.78	1	103.315372835	103.862973757	"8"	1203.782214283	1188.742775718	1.5	0.1
0.01	1	0.323450705000027	1	37	NA	107.663716362	0	0.27	1.78	1	104.099970998	104.423421703	"8"	1203.782214283	1188.742775718	1.5	0.1
0.01	1	0.213003589999971	1	37	NA	107.663716362	0	0.27	1.78	1	104.650878094	104.863881684	"8"	1203.782214283	1188.742775718	1.5	0.1
0.01	1	0.0648136260000456	1	37	NA	107.663716362	0	0.27	1.78	1	105.101657247	105.166470873	"8"	1203.782214283	1188.742775718	1.5	0.1
0.01	1	0.0210075839999035	1	37	NA	107.663716362	0	0.27	1.78	1	105.402236842	105.423244426	"8"	1203.782214283	1188.742775718	1.5	0.1
0.01	1	0.00235843399991609	1	37	NA	107.663716362	0	0.27	1.78	1	105.652634102	105.654992536	"8"	1203.782214283	1188.742775718	1.5	0.1
0.01	1	0.0108716450000657	1	37	NA	107.663716362	0	0.27	1.78	1	105.886361997	105.897233642	"8"	1203.782214283	1188.742775718	1.5	0.1
0.01	1	0.110927207000032	1	37	NA	107.663716362	0	0.27	1.78	1	106.120101942	106.231029149	"8"	1203.782214283	1188.742775718	1.5	0.1
0.01	1	0.00245928799995454	1	37	NA	107.663716362	0	0.27	1.78	1	106.453931326	106.456390614	"8"	1203.782214283	1188.742775718	1.5	0.1
0.01	1	0.00212103800004115	1	37	NA	107.663716362	0	0.27	1.78	1	106.68773705	106.689858088	"8"	1203.782214283	1188.742775718	1.5	0.1
0.01	1	0.00230800700001055	1	37	NA	107.663716362	0	0.27	1.78	1	106.92137433	106.923682337	"8"	1203.782214283	1188.742775718	1.5	0.1
0.01	1	0.00232129599999098	1	37	NA	107.663716362	0	0.27	1.78	1	107.155052628	107.157373924	"8"	1203.782214283	1188.742775718	1.5	0.1
0.01	1	0.273299931999986	2	37	NA	107.663716362	0	0.27	1.78	1	107.388846348	107.66214628	"8"	1203.782214283	1188.742775718	1.5	0.1
0.01	1	1.32198504099995	1	108	NA	119.192100437	0	0.32	2.1	1	109.709381803	111.031366844	"9"	1203.782214283	1188.742775718	1.5	0.1
0.01	1	0.00236821399994369	1	108	NA	119.192100437	0	0.32	2.1	1	111.2620036	111.264371814	"9"	1203.782214283	1188.742775718	1.5	0.1
0.01	1	0.00232381500006795	1	108	NA	119.192100437	0	0.32	2.1	1	111.495706251	111.498030066	"9"	1203.782214283	1188.742775718	1.5	0.1
0.01	1	0.00248702900000808	1	108	NA	119.192100437	0	0.32	2.1	1	111.72940925	111.731896279	"9"	1203.782214283	1188.742775718	1.5	0.1
0.01	1	0.00233106600001065	1	108	NA	119.192100437	0	0.32	2.1	1	111.963222219	111.965553285	"9"	1203.782214283	1188.742775718	1.5	0.1
0.01	1	0.00259212500009198	1	108	NA	119.192100437	0	0.32	2.1	1	112.196924062	112.199516187	"9"	1203.782214283	1188.742775718	1.5	0.1
0.01	1	0.00235133499995754	1	108	NA	119.192100437	0	0.32	2.1	1	112.430590635	112.43294197	"9"	1203.782214283	1188.742775718	1.5	0.1
0.01	1	0.00235344600002918	1	108	NA	119.192100437	0	0.32	2.1	1	112.664380744	112.66673419	"9"	1203.782214283	1188.742775718	1.5	0.1
0.01	1	0.00217488299995239	1	108	NA	119.192100437	0	0.32	2.1	1	112.898123782	112.900298665	"9"	1203.782214283	1188.742775718	1.5	0.1
0.01	1	0.00235018900002615	1	108	NA	119.192100437	0	0.32	2.1	1	113.131845666	113.134195855	"9"	1203.782214283	1188.742775718	1.5	0.1
0.01	1	0.00283200800004124	1	108	NA	119.192100437	0	0.32	2.1	1	113.365599864	113.368431872	"9"	1203.782214283	1188.742775718	1.5	0.1
0.01	1	0.00236991899998884	1	108	NA	119.192100437	0	0.32	2.1	1	113.599355607	113.601725526	"9"	1203.782214283	1188.742775718	1.5	0.1
0.01	1	0.00237600199989174	1	108	NA	119.192100437	0	0.32	2.1	1	113.833168851	113.835544853	"9"	1203.782214283	1188.742775718	1.5	0.1
0.01	1	0.00437466199991832	1	108	NA	119.192100437	0	0.32	2.1	1	114.066905167	114.071279829	"9"	1203.782214283	1188.742775718	1.5	0.1
0.01	1	0.00230521399998906	1	108	NA	119.192100437	0	0.32	2.1	1	114.300472642	114.302777856	"9"	1203.782214283	1188.742775718	1.5	0.1
0.01	1	0.00229839400003584	1	108	NA	119.192100437	0	0.32	2.1	1	114.534155262	114.536453656	"9"	1203.782214283	1188.742775718	1.5	0.1
0.01	1	0.00399435100007395	1	108	NA	119.192100437	0	0.32	2.1	1	114.767961699	114.77195605	"9"	1203.782214283	1188.742775718	1.5	0.1
0.01	1	0.00359652800000276	1	108	NA	119.192100437	0	0.32	2.1	1	115.001670056	115.005266584	"9"	1203.782214283	1188.742775718	1.5	0.1
0.01	1	0.00480030200003512	1	108	NA	119.192100437	0	0.32	2.1	1	115.352366637	115.357166939	"9"	1203.782214283	1188.742775718	1.5	0.1
0.01	1	0.00234125700001186	1	108	NA	119.192100437	0	0.32	2.1	1	115.586028947	115.588370204	"9"	1203.782214283	1188.742775718	1.5	0.1
0.01	1	0.00216603100000157	1	108	NA	119.192100437	0	0.32	2.1	1	115.819775573	115.821941604	"9"	1203.782214283	1188.742775718	1.5	0.1
0.01	1	0.00231573200005641	1	108	NA	119.192100437	0	0.32	2.1	1	116.053454235	116.055769967	"9"	1203.782214283	1188.742775718	1.5	0.1
0.01	1	0.0023898620000864	1	108	NA	119.192100437	0	0.32	2.1	1	116.28714629	116.289536152	"9"	1203.782214283	1188.742775718	1.5	0.1
0.01	1	0.00251681600002485	1	108	NA	119.192100437	0	0.32	2.1	1	116.520863592	116.523380408	"9"	1203.782214283	1188.742775718	1.5	0.1
0.01	1	0.00248302900001818	1	108	NA	119.192100437	0	0.32	2.1	1	116.754610291	116.75709332	"9"	1203.782214283	1188.742775718	1.5	0.1
0.01	1	0.00249477399995612	1	108	NA	119.192100437	0	0.32	2.1	1	116.988294216	116.99078899	"9"	1203.782214283	1188.742775718	1.5	0.1
0.01	1	0.00303695899992817	1	108	NA	119.192100437	0	0.32	2.1	1	117.222048387	117.225085346	"9"	1203.782214283	1188.742775718	1.5	0.1
0.01	1	0.00238028800004031	1	108	NA	119.192100437	0	0.32	2.1	1	117.455715812	117.4580961	"9"	1203.782214283	1188.742775718	1.5	0.1
0.01	1	0.00217276800003674	1	108	NA	119.192100437	0	0.32	2.1	1	117.68960557	117.691778338	"9"	1203.782214283	1188.742775718	1.5	0.1
0.01	1	0.00251343499996892	1	108	NA	119.192100437	0	0.32	2.1	1	117.923177243	117.925690678	"9"	1203.782214283	1188.742775718	1.5	0.1
0.01	1	0.00233699099999285	1	108	NA	119.192100437	0	0.32	2.1	1	118.156898796	118.159235787	"9"	1203.782214283	1188.742775718	1.5	0.1
0.01	1	0.00226737299999513	1	108	NA	119.192100437	0	0.32	2.1	1	118.390715587	118.39298296	"9"	1203.782214283	1188.742775718	1.5	0.1
0.01	1	0.566083856999967	2	108	NA	119.192100437	0	0.32	2.1	1	118.62443088	119.190514737	"9"	1203.782214283	1188.742775718	1.5	0.1
0.01	1	0.498363820000009	1	18	125.838301732	NA	1	0	2.1	1	121.245412618	121.743776438	"10"	1203.782214283	1188.742775718	1.5	0.1
0.01	1	0.00221824000004744	1	18	125.838301732	NA	1	0	2.1	1	121.980013802	121.982232042	"10"	1203.782214283	1188.742775718	1.5	0.1
0.01	1	0.00227610300009928	1	18	125.838301732	NA	1	0	2.1	1	122.213788207	122.21606431	"10"	1203.782214283	1188.742775718	1.5	0.1
0.01	1	0.00256209400004082	1	18	125.838301732	NA	1	0	2.1	1	122.447456515	122.450018609	"10"	1203.782214283	1188.742775718	1.5	0.1
0.01	1	0.00247975100000986	1	18	125.838301732	NA	1	0	2.1	1	122.681350555	122.683830306	"10"	1203.782214283	1188.742775718	1.5	0.1
0.01	1	0.00233413999990262	1	18	125.838301732	NA	1	0	2.1	1	122.91488364	122.91721778	"10"	1203.782214283	1188.742775718	1.5	0.1
0.01	1	0.00236385599998812	1	18	125.838301732	NA	1	0	2.1	1	123.148700555	123.151064411	"10"	1203.782214283	1188.742775718	1.5	0.1
0.01	1	0.0023702209999783	1	18	125.838301732	NA	1	0	2.1	1	123.382312167	123.384682388	"10"	1203.782214283	1188.742775718	1.5	0.1
0.01	1	0.00229399499994543	1	18	125.838301732	NA	1	0	2.1	1	123.61608234	123.618376335	"10"	1203.782214283	1188.742775718	1.5	0.1
0.01	1	0.00292220599999382	1	18	125.838301732	NA	1	0	2.1	1	123.849885981	123.852808187	"10"	1203.782214283	1188.742775718	1.5	0.1
0.01	1	0.00232241200001226	1	18	125.838301732	NA	1	0	2.1	1	124.083607066	124.085929478	"10"	1203.782214283	1188.742775718	1.5	0.1
0.01	1	0.00235836399997424	1	18	125.838301732	NA	1	0	2.1	1	124.317344706	124.31970307	"10"	1203.782214283	1188.742775718	1.5	0.1
0.01	1	0.00240862400005426	1	18	125.838301732	NA	1	0	2.1	1	124.55095586	124.553364484	"10"	1203.782214283	1188.742775718	1.5	0.1
0.01	1	0.00236424699994586	1	18	125.838301732	NA	1	0	2.1	1	124.784754159	124.787118406	"10"	1203.782214283	1188.742775718	1.5	0.1
0.01	1	0.00233218000005309	1	18	125.838301732	NA	1	0	2.1	1	125.018452612	125.020784792	"10"	1203.782214283	1188.742775718	1.5	0.1
0.01	1	0.00250957900004778	1	18	125.838301732	NA	1	0	2.1	1	125.252191914	125.254701493	"10"	1203.782214283	1188.742775718	1.5	0.1
0.01	1	0.00233869800001685	1	18	125.838301732	NA	1	0	2.1	1	125.485863327	125.488202025	"10"	1203.782214283	1188.742775718	1.5	0.1
0.01	1	0.00233080199996039	1	18	125.838301732	NA	1	0	2.1	1	125.719699575	125.722030377	"10"	1203.782214283	1188.742775718	1.5	0.1
0.01	1	0.317515868999976	1	2	128.542506054	NA	1	0	2.1	1	127.873258377	128.190774246	"11"	1203.782214283	1188.742775718	1.5	0.1
0.01	1	0.00233882700001686	1	2	128.542506054	NA	1	0	2.1	1	128.424130037	128.426468864	"11"	1203.782214283	1188.742775718	1.5	0.1
0.01	1	0.621932235000031	1	107	NA	144.271665988	0	0.37	2.47	1	130.577931312	131.199863547	"12"	1203.782214283	1188.742775718	1.5	0.1
0.01	1	0.00245262999999341	1	107	NA	144.271665988	0	0.37	2.47	1	131.429285701	131.431738331	"12"	1203.782214283	1188.742775718	1.5	0.1
0.01	1	0.00247793799996998	1	107	NA	144.271665988	0	0.37	2.47	1	131.6629836	131.665461538	"12"	1203.782214283	1188.742775718	1.5	0.1
0.01	1	0.00227659899996979	1	107	NA	144.271665988	0	0.37	2.47	1	131.896701428	131.898978027	"12"	1203.782214283	1188.742775718	1.5	0.1
0.01	1	0.00246007500004453	1	107	NA	144.271665988	0	0.37	2.47	1	132.130399622	132.132859697	"12"	1203.782214283	1188.742775718	1.5	0.1
0.01	1	0.0025895669999727	1	107	NA	144.271665988	0	0.37	2.47	1	132.364106507	132.366696074	"12"	1203.782214283	1188.742775718	1.5	0.1
0.01	1	0.00235802800000329	1	107	NA	144.271665988	0	0.37	2.47	1	132.597863871	132.600221899	"12"	1203.782214283	1188.742775718	1.5	0.1
0.01	1	0.00228389699998388	1	107	NA	144.271665988	0	0.37	2.47	1	132.831577407	132.833861304	"12"	1203.782214283	1188.742775718	1.5	0.1
0.01	1	0.00504674499995872	1	107	NA	144.271665988	0	0.37	2.47	1	133.065415822	133.070462567	"12"	1203.782214283	1188.742775718	1.5	0.1
0.01	1	0.00222284099993431	1	107	NA	144.271665988	0	0.37	2.47	1	133.299073158	133.301295999	"12"	1203.782214283	1188.742775718	1.5	0.1
0.01	1	0.00242878899996413	1	107	NA	144.271665988	0	0.37	2.47	1	133.532792077	133.535220866	"12"	1203.782214283	1188.742775718	1.5	0.1
0.01	1	0.00217666199989708	1	107	NA	144.271665988	0	0.37	2.47	1	133.766543557	133.768720219	"12"	1203.782214283	1188.742775718	1.5	0.1
0.01	1	0.0023327829999289	1	107	NA	144.271665988	0	0.37	2.47	1	134.000279561	134.002612344	"12"	1203.782214283	1188.742775718	1.5	0.1
0.01	1	0.00215902400009327	1	107	NA	144.271665988	0	0.37	2.47	1	134.234065837	134.236224861	"12"	1203.782214283	1188.742775718	1.5	0.1
0.01	1	0.00268671700007417	1	107	NA	144.271665988	0	0.37	2.47	1	134.467795851	134.470482568	"12"	1203.782214283	1188.742775718	1.5	0.1
0.01	1	0.00240914999994857	1	107	NA	144.271665988	0	0.37	2.47	1	134.701435107	134.703844257	"12"	1203.782214283	1188.742775718	1.5	0.1
0.01	1	0.159238446000018	1	107	NA	144.271665988	0	0.37	2.47	1	134.935153937	135.094392383	"12"	1203.782214283	1188.742775718	1.5	0.1
0.01	1	0.176198665000015	1	107	NA	144.271665988	0	0.37	2.47	1	135.319066754	135.495265419	"12"	1203.782214283	1188.742775718	1.5	0.1
0.01	1	0.0384383619999653	1	107	NA	144.271665988	0	0.37	2.47	1	135.719837927	135.758276289	"12"	1203.782214283	1188.742775718	1.5	0.1
0.01	1	0.187283234999995	1	107	NA	144.271665988	0	0.37	2.47	1	135.986957194	136.174240429	"12"	1203.782214283	1188.742775718	1.5	0.1
0.01	1	0.00220300499995574	1	107	NA	144.271665988	0	0.37	2.47	1	136.404269906	136.406472911	"12"	1203.782214283	1188.742775718	1.5	0.1
0.01	1	0.0898808870000494	1	107	NA	144.271665988	0	0.37	2.47	1	136.637993745	136.727874632	"12"	1203.782214283	1188.742775718	1.5	0.1
0.01	1	0.0441475190000347	1	107	NA	144.271665988	0	0.37	2.47	1	136.955346307	136.999493826	"12"	1203.782214283	1188.742775718	1.5	0.1
0.01	1	0.0497969209999383	1	107	NA	144.271665988	0	0.37	2.47	1	137.222449657	137.272246578	"12"	1203.782214283	1188.742775718	1.5	0.1
0.01	1	0.276425668000002	1	107	NA	144.271665988	0	0.37	2.47	1	137.506077192	137.78250286	"12"	1203.782214283	1188.742775718	1.5	0.1
0.01	1	0.00318767199996728	1	107	NA	144.271665988	0	0.37	2.47	1	138.007050765	138.010238437	"12"	1203.782214283	1188.742775718	1.5	0.1
0.01	1	0.00236675000007835	1	107	NA	144.271665988	0	0.37	2.47	1	138.240699403	138.243066153	"12"	1203.782214283	1188.742775718	1.5	0.1
0.01	1	0.092285711000045	1	107	NA	144.271665988	0	0.37	2.47	1	138.474453336	138.566739047	"12"	1203.782214283	1188.742775718	1.5	0.1
0.01	1	0.00233548699998209	1	107	NA	144.271665988	0	0.37	2.47	1	138.791621935	138.793957422	"12"	1203.782214283	1188.742775718	1.5	0.1
0.01	1	0.22242067600007	1	107	NA	144.271665988	0	0.37	2.47	1	139.025381926	139.247802602	"12"	1203.782214283	1188.742775718	1.5	0.1
0.01	1	0.227248898000084	1	107	NA	144.271665988	0	0.37	2.47	1	139.476068617	139.703317515	"12"	1203.782214283	1188.742775718	1.5	0.1
0.01	1	1.94318144399995	1	107	NA	144.271665988	0	0.37	2.47	1	139.926796153	141.869977597	"12"	1203.782214283	1188.742775718	1.5	0.1
0.01	1	0.00255096299997604	1	107	NA	144.271665988	0	0.37	2.47	1	142.097295134	142.099846097	"12"	1203.782214283	1188.742775718	1.5	0.1
0.01	1	0.116214887000069	1	107	NA	144.271665988	0	0.37	2.47	1	142.330963613	142.4471785	"12"	1203.782214283	1188.742775718	1.5	0.1
0.01	1	0.038183594999964	1	107	NA	144.271665988	0	0.37	2.47	1	142.681479025	142.71966262	"12"	1203.782214283	1188.742775718	1.5	0.1
0.01	1	0.169712669999967	1	107	NA	144.271665988	0	0.37	2.47	1	142.94856989	143.11828256	"12"	1203.782214283	1188.742775718	1.5	0.1
0.01	1	0.426379294999947	1	107	NA	144.271665988	0	0.37	2.47	1	143.349376443	143.775755738	"12"	1203.782214283	1188.742775718	1.5	0.1
0.01	1	0.269611717999965	2	107	NA	144.271665988	0	0.37	2.47	1	144.000446502	144.27005822	"12"	1203.782214283	1188.742775718	1.5	0.1
0.01	1	0.0628271740000628	1	119	NA	154.784463036	0	0.23	2.7	1	146.320972318	146.383799492	"13"	1203.782214283	1188.742775718	1.5	0.1
0.01	1	0.00250176699989879	1	119	NA	154.784463036	0	0.23	2.7	1	146.621608092	146.624109859	"13"	1203.782214283	1188.742775718	1.5	0.1
0.01	1	0.00252680999994936	1	119	NA	154.784463036	0	0.23	2.7	1	146.855185596	146.857712406	"13"	1203.782214283	1188.742775718	1.5	0.1
0.01	1	0.00237095499994666	1	119	NA	154.784463036	0	0.23	2.7	1	147.089023852	147.091394807	"13"	1203.782214283	1188.742775718	1.5	0.1
0.01	1	0.00241837700002634	1	119	NA	154.784463036	0	0.23	2.7	1	147.322627237	147.325045614	"13"	1203.782214283	1188.742775718	1.5	0.1
0.01	1	0.00234237600000142	1	119	NA	154.784463036	0	0.23	2.7	1	147.556336748	147.558679124	"13"	1203.782214283	1188.742775718	1.5	0.1
0.01	1	0.480643786999963	1	119	NA	154.784463036	0	0.23	2.7	1	147.790115384	148.270759171	"13"	1203.782214283	1188.742775718	1.5	0.1
0.01	1	0.0123215679999475	1	119	NA	154.784463036	0	0.23	2.7	1	148.50791317	148.520234738	"13"	1203.782214283	1188.742775718	1.5	0.1
0.01	1	0.344575856000006	1	119	NA	154.784463036	0	0.23	2.7	1	148.758392107	149.102967963	"13"	1203.782214283	1188.742775718	1.5	0.1
0.01	1	0.00332530000002862	1	119	NA	154.784463036	0	0.23	2.7	1	149.325993139	149.329318439	"13"	1203.782214283	1188.742775718	1.5	0.1
0.01	1	0.814689734000012	1	119	NA	154.784463036	0	0.23	2.7	1	149.559725487	150.374415221	"13"	1203.782214283	1188.742775718	1.5	0.1
0.01	1	0.00218148300007215	1	119	NA	154.784463036	0	0.23	2.7	1	150.611539524	150.613721007	"13"	1203.782214283	1188.742775718	1.5	0.1
0.01	1	0.12168179899993	1	119	NA	154.784463036	0	0.23	2.7	1	150.845350267	150.967032066	"13"	1203.782214283	1188.742775718	1.5	0.1
0.01	1	0.0023010529999965	1	119	NA	154.784463036	0	0.23	2.7	1	151.195855463	151.198156516	"13"	1203.782214283	1188.742775718	1.5	0.1
0.01	1	0.1207190209999	1	119	NA	154.784463036	0	0.23	2.7	1	151.429507986	151.550227007	"13"	1203.782214283	1188.742775718	1.5	0.1
0.01	1	0.00242824300005395	1	119	NA	154.784463036	0	0.23	2.7	1	151.780183939	151.782612182	"13"	1203.782214283	1188.742775718	1.5	0.1
0.01	1	0.00404166900000291	1	119	NA	154.784463036	0	0.23	2.7	1	152.013906279	152.017947948	"13"	1203.782214283	1188.742775718	1.5	0.1
0.01	1	0.0025095370000372	1	119	NA	154.784463036	0	0.23	2.7	1	152.247554374	152.250063911	"13"	1203.782214283	1188.742775718	1.5	0.1
0.01	1	0.00665578300004199	1	119	NA	154.784463036	0	0.23	2.7	1	152.481289347	152.48794513	"13"	1203.782214283	1188.742775718	1.5	0.1
0.01	1	0.0022636840000132	1	119	NA	154.784463036	0	0.23	2.7	1	152.714981531	152.717245215	"13"	1203.782214283	1188.742775718	1.5	0.1
0.01	1	0.0422014250000302	1	119	NA	154.784463036	0	0.23	2.7	1	152.948700785	152.99090221	"13"	1203.782214283	1188.742775718	1.5	0.1
0.01	1	0.00242872000001171	1	119	NA	154.784463036	0	0.23	2.7	1	153.215883354	153.218312074	"13"	1203.782214283	1188.742775718	1.5	0.1
0.01	1	0.412242724000066	1	119	NA	154.784463036	0	0.23	2.7	1	153.449579102	153.861821826	"13"	1203.782214283	1188.742775718	1.5	0.1
0.01	1	0.698878304999994	2	119	NA	154.784463036	0	0.23	2.7	1	154.083986868	154.782865173	"13"	1203.782214283	1188.742775718	1.5	0.1
0.01	1	0.13737087100003	1	71	NA	171.841332068	0	0.4	3.1	1	156.838604149	156.97597502	"14"	1203.782214283	1188.742775718	1.5	0.1
0.01	1	0.00237333400002626	1	71	NA	171.841332068	0	0.4	3.1	1	157.20596206	157.208335394	"14"	1203.782214283	1188.742775718	1.5	0.1
0.01	1	0.118715255999973	1	71	NA	171.841332068	0	0.4	3.1	1	157.439704282	157.558419538	"14"	1203.782214283	1188.742775718	1.5	0.1
0.01	1	0.00243462399998862	1	71	NA	171.841332068	0	0.4	3.1	1	157.790233136	157.79266776	"14"	1203.782214283	1188.742775718	1.5	0.1
0.01	1	0.118214486000056	1	71	NA	171.841332068	0	0.4	3.1	1	158.023975232	158.142189718	"14"	1203.782214283	1188.742775718	1.5	0.1
0.01	1	0.00236923500006014	1	71	NA	171.841332068	0	0.4	3.1	1	158.374621132	158.376990367	"14"	1203.782214283	1188.742775718	1.5	0.1
0.01	1	0.00233535799998208	1	71	NA	171.841332068	0	0.4	3.1	1	158.608261712	158.61059707	"14"	1203.782214283	1188.742775718	1.5	0.1
0.01	1	0.10798161799994	1	71	NA	171.841332068	0	0.4	3.1	1	158.841937008	158.949918626	"14"	1203.782214283	1188.742775718	1.5	0.1
0.01	1	0.00233214800005044	1	71	NA	171.841332068	0	0.4	3.1	1	159.175951779	159.178283927	"14"	1203.782214283	1188.742775718	1.5	0.1
0.01	1	0.00217506900003173	1	71	NA	171.841332068	0	0.4	3.1	1	159.409637178	159.411812247	"14"	1203.782214283	1188.742775718	1.5	0.1
0.01	1	0.186999269000012	1	71	NA	171.841332068	0	0.4	3.1	1	159.643313944	159.830313213	"14"	1203.782214283	1188.742775718	1.5	0.1
0.01	1	0.00258492299997215	1	71	NA	171.841332068	0	0.4	3.1	1	160.060730318	160.063315241	"14"	1203.782214283	1188.742775718	1.5	0.1
0.01	1	0.152548826000043	1	71	NA	171.841332068	0	0.4	3.1	1	160.294399684	160.44694851	"14"	1203.782214283	1188.742775718	1.5	0.1
0.01	1	0.00245238700006212	1	71	NA	171.841332068	0	0.4	3.1	1	160.678444053	160.68089644	"14"	1203.782214283	1188.742775718	1.5	0.1
0.01	1	0.00216515800002526	1	71	NA	171.841332068	0	0.4	3.1	1	160.912189879	160.914355037	"14"	1203.782214283	1188.742775718	1.5	0.1
0.01	1	0.00239509300001828	1	71	NA	171.841332068	0	0.4	3.1	1	161.145883339	161.148278432	"14"	1203.782214283	1188.742775718	1.5	0.1
0.01	1	0.00341084000001501	1	71	NA	171.841332068	0	0.4	3.1	1	161.379623353	161.383034193	"14"	1203.782214283	1188.742775718	1.5	0.1
0.01	1	0.00230916700002126	1	71	NA	171.841332068	0	0.4	3.1	1	161.61329388	161.615603047	"14"	1203.782214283	1188.742775718	1.5	0.1
0.01	1	0.112198637999995	1	71	NA	171.841332068	0	0.4	3.1	1	161.847064492	161.95926313	"14"	1203.782214283	1188.742775718	1.5	0.1
0.01	1	0.00244528500002161	1	71	NA	171.841332068	0	0.4	3.1	1	162.18088218	162.183327465	"14"	1203.782214283	1188.742775718	1.5	0.1
0.01	1	0.00229083799990804	1	71	NA	171.841332068	0	0.4	3.1	1	162.414749489	162.417040327	"14"	1203.782214283	1188.742775718	1.5	0.1
0.01	1	0.00236480099999881	1	71	NA	171.841332068	0	0.4	3.1	1	162.64833632	162.650701121	"14"	1203.782214283	1188.742775718	1.5	0.1
0.01	1	0.35571070900005	1	71	NA	171.841332068	0	0.4	3.1	1	162.882290395	163.238001104	"14"	1203.782214283	1188.742775718	1.5	0.1
0.01	1	0.00251909299993258	1	71	NA	171.841332068	0	0.4	3.1	1	163.46644649	163.468965583	"14"	1203.782214283	1188.742775718	1.5	0.1
0.01	1	0.0826569710000058	1	71	NA	171.841332068	0	0.4	3.1	1	163.700166296	163.782823267	"14"	1203.782214283	1188.742775718	1.5	0.1
0.01	1	0.00260122400004548	1	71	NA	171.841332068	0	0.4	3.1	1	164.01733031	164.019931534	"14"	1203.782214283	1188.742775718	1.5	0.1
0.01	1	0.0190252890000693	1	71	NA	171.841332068	0	0.4	3.1	1	164.251130612	164.270155901	"14"	1203.782214283	1188.742775718	1.5	0.1
0.01	1	0.0341795020000291	1	71	NA	171.841332068	0	0.4	3.1	1	164.501501147	164.535680649	"14"	1203.782214283	1188.742775718	1.5	0.1
0.01	1	0.0225003470000047	1	71	NA	171.841332068	0	0.4	3.1	1	164.768573318	164.791073665	"14"	1203.782214283	1188.742775718	1.5	0.1
0.01	1	0.0436292089999597	1	71	NA	171.841332068	0	0.4	3.1	1	165.019075081	165.06270429	"14"	1203.782214283	1188.742775718	1.5	0.1
0.01	1	0.079893163999941	1	71	NA	171.841332068	0	0.4	3.1	1	165.286181513	165.366074677	"14"	1203.782214283	1188.742775718	1.5	0.1
0.01	1	0.0347543799999812	1	71	NA	171.841332068	0	0.4	3.1	1	165.603366814	165.638121194	"14"	1203.782214283	1188.742775718	1.5	0.1
0.01	1	0.123082597999996	1	71	NA	171.841332068	0	0.4	3.1	1	165.870430552	165.99351315	"14"	1203.782214283	1188.742775718	1.5	0.1
0.01	1	0.737117818000002	1	71	NA	171.841332068	0	0.4	3.1	1	166.221033177	166.958150995	"14"	1203.782214283	1188.742775718	1.5	0.1
0.01	1	0.491211550999992	1	71	NA	171.841332068	0	0.4	3.1	1	167.189304626	167.680516177	"14"	1203.782214283	1188.742775718	1.5	0.1
0.01	1	0.395007049000014	1	71	NA	171.841332068	0	0.4	3.1	1	167.907239606	168.302246655	"14"	1203.782214283	1188.742775718	1.5	0.1
0.01	1	0.377316526999948	1	71	NA	171.841332068	0	0.4	3.1	1	168.524946263	168.90226279	"14"	1203.782214283	1188.742775718	1.5	0.1
0.01	1	0.369457624000006	1	71	NA	171.841332068	0	0.4	3.1	1	169.12592787	169.495385494	"14"	1203.782214283	1188.742775718	1.5	0.1
0.01	1	0.399981946999901	1	71	NA	171.841332068	0	0.4	3.1	1	169.727019071	170.127001018	"14"	1203.782214283	1188.742775718	1.5	0.1
0.01	1	0.732731092000108	1	71	NA	171.841332068	0	0.4	3.1	1	170.361387949	171.094119041	"14"	1203.782214283	1188.742775718	1.5	0.1
0.01	1	0.510156925000047	2	71	NA	171.841332068	0	0.4	3.1	1	171.329601286	171.839758211	"14"	1203.782214283	1188.742775718	1.5	0.1
0.01	1	1.06777330299997	1	32	185.65615817	NA	1	0	3.1	1	173.884126392	174.951899695	"15"	1203.782214283	1188.742775718	1.5	0.1
0.01	1	0.837519363999945	1	32	185.65615817	NA	1	0	3.1	1	175.18607074	176.023590104	"15"	1203.782214283	1188.742775718	1.5	0.1
0.01	1	0.120255867999958	1	32	185.65615817	NA	1	0	3.1	1	176.254717492	176.37497336	"15"	1203.782214283	1188.742775718	1.5	0.1
0.01	1	0.0493879139999081	1	32	185.65615817	NA	1	0	3.1	1	176.6051385	176.654526414	"15"	1203.782214283	1188.742775718	1.5	0.1
0.01	1	0.0472497580001345	1	32	185.65615817	NA	1	0	3.1	1	176.889024802	176.93627456	"15"	1203.782214283	1188.742775718	1.5	0.1
0.01	1	0.0110526660000687	1	32	185.65615817	NA	1	0	3.1	1	177.172742774	177.18379544	"15"	1203.782214283	1188.742775718	1.5	0.1
0.01	1	0.0167924939999011	1	32	185.65615817	NA	1	0	3.1	1	177.406459124	177.423251618	"15"	1203.782214283	1188.742775718	1.5	0.1
0.01	1	0.0531673509999564	1	32	185.65615817	NA	1	0	3.1	1	177.656987392	177.710154743	"15"	1203.782214283	1188.742775718	1.5	0.1
0.01	1	0.0745294380001269	1	32	185.65615817	NA	1	0	3.1	1	177.940788546	178.015317984	"15"	1203.782214283	1188.742775718	1.5	0.1
0.01	1	0.028544593000106	1	32	185.65615817	NA	1	0	3.1	1	178.241215779	178.269760372	"15"	1203.782214283	1188.742775718	1.5	0.1
0.01	1	0.13156168699993	1	32	185.65615817	NA	1	0	3.1	1	178.50832413	178.639885817	"15"	1203.782214283	1188.742775718	1.5	0.1
0.01	1	0.0185162180000589	1	32	185.65615817	NA	1	0	3.1	1	178.875705782	178.894222	"15"	1203.782214283	1188.742775718	1.5	0.1
0.01	1	0.14416488300003	1	32	185.65615817	NA	1	0	3.1	1	179.126109152	179.270274035	"15"	1203.782214283	1188.742775718	1.5	0.1
0.01	1	0.049080376999882	1	32	185.65615817	NA	1	0	3.1	1	179.493357124	179.542437501	"15"	1203.782214283	1188.742775718	1.5	0.1
0.01	1	0.0127182859998811	1	32	185.65615817	NA	1	0	3.1	1	179.777175177	179.789893463	"15"	1203.782214283	1188.742775718	1.5	0.1
0.01	1	0.0911002330001338	1	32	185.65615817	NA	1	0	3.1	1	180.027647871	180.118748104	"15"	1203.782214283	1188.742775718	1.5	0.1
0.01	1	0.126247035999995	1	32	185.65615817	NA	1	0	3.1	1	180.344903914	180.47115095	"15"	1203.782214283	1188.742775718	1.5	0.1
0.01	1	0.305021020999902	1	32	185.65615817	NA	1	0	3.1	1	180.695373548	181.000394569	"15"	1203.782214283	1188.742775718	1.5	0.1
0.01	1	0.0727590279998367	1	32	185.65615817	NA	1	0	3.1	1	181.229647942	181.30240697	"15"	1203.782214283	1188.742775718	1.5	0.1
0.01	1	0.011641796000049	1	32	185.65615817	NA	1	0	3.1	1	181.530177828	181.541819624	"15"	1203.782214283	1188.742775718	1.5	0.1
0.01	1	0.0252535209999678	1	32	185.65615817	NA	1	0	3.1	1	181.780490547	181.805744068	"15"	1203.782214283	1188.742775718	1.5	0.1
0.01	1	0.00240573300015967	1	32	185.65615817	NA	1	0	3.1	1	182.031045624	182.033451357	"15"	1203.782214283	1188.742775718	1.5	0.1
0.01	1	0.0023529929999313	1	32	185.65615817	NA	1	0	3.1	1	182.264722024	182.267075017	"15"	1203.782214283	1188.742775718	1.5	0.1
0.01	1	0.00231375600014871	1	32	185.65615817	NA	1	0	3.1	1	182.498384774	182.50069853	"15"	1203.782214283	1188.742775718	1.5	0.1
0.01	1	0.00232370200001242	1	32	185.65615817	NA	1	0	3.1	1	182.732237457	182.734561159	"15"	1203.782214283	1188.742775718	1.5	0.1
0.01	1	0.304925728999933	1	32	185.65615817	NA	1	0	3.1	1	182.965770401	183.27069613	"15"	1203.782214283	1188.742775718	1.5	0.1
0.01	1	0.355522827999948	1	32	185.65615817	NA	1	0	3.1	1	183.500039318	183.855562146	"15"	1203.782214283	1188.742775718	1.5	0.1
0.01	1	0.0347625160000007	1	32	185.65615817	NA	1	0	3.1	1	184.084473978	184.119236494	"15"	1203.782214283	1188.742775718	1.5	0.1
0.01	1	0.047215142999903	1	32	185.65615817	NA	1	0	3.1	1	184.351471476	184.398686619	"15"	1203.782214283	1188.742775718	1.5	0.1
0.01	1	0.0767495689999578	1	32	185.65615817	NA	1	0	3.1	1	184.635432919	184.712182488	"15"	1203.782214283	1188.742775718	1.5	0.1
0.01	1	0.0232253629999377	1	32	185.65615817	NA	1	0	3.1	1	184.952604194	184.975829557	"15"	1203.782214283	1188.742775718	1.5	0.1
0.01	1	0.339685543000087	1	32	185.65615817	NA	1	0	3.1	1	185.203014189	185.542699732	"15"	1203.782214283	1188.742775718	1.5	0.1
0.01	1	0.0930777700000363	1	7	189.462582706	NA	1	0	3.1	1	187.690554748	187.783632518	"16"	1203.782214283	1188.742775718	1.5	0.1
0.01	1	0.00231484199980514	1	7	189.462582706	NA	1	0	3.1	1	188.024406008	188.02672085	"16"	1203.782214283	1188.742775718	1.5	0.1
0.01	1	0.00234690899992529	1	7	189.462582706	NA	1	0	3.1	1	188.258050288	188.260397197	"16"	1203.782214283	1188.742775718	1.5	0.1
0.01	1	0.0352889660000528	1	7	189.462582706	NA	1	0	3.1	1	188.491849643	188.527138609	"16"	1203.782214283	1188.742775718	1.5	0.1
0.01	1	0.00247166899998774	1	7	189.462582706	NA	1	0	3.1	1	188.758861302	188.761332971	"16"	1203.782214283	1188.742775718	1.5	0.1
0.01	1	0.0393014179999227	1	7	189.462582706	NA	1	0	3.1	1	188.99257406	189.031875478	"16"	1203.782214283	1188.742775718	1.5	0.1
0.01	1	0.0840991370000665	1	7	189.462582706	NA	1	0	3.1	1	189.259825478	189.343924615	"16"	1203.782214283	1188.742775718	1.5	0.1
0.01	1	0.0702863809999599	1	49	NA	198.567685177	0	0.11	3.21	1	191.513606795	191.583893176	"17"	1203.782214283	1188.742775718	1.5	0.1
0.01	1	0.00247493100005158	1	49	NA	198.567685177	0	0.11	3.21	1	191.814126941	191.816601872	"17"	1203.782214283	1188.742775718	1.5	0.1
0.01	1	0.0233500700001059	1	49	NA	198.567685177	0	0.11	3.21	1	192.04780678	192.07115685	"17"	1203.782214283	1188.742775718	1.5	0.1
0.01	1	0.0024658659999659	1	49	NA	198.567685177	0	0.11	3.21	1	192.29839695	192.300862816	"17"	1203.782214283	1188.742775718	1.5	0.1
0.01	1	0.809827290000158	1	49	NA	198.567685177	0	0.11	3.21	1	192.532035707	193.341862997	"17"	1203.782214283	1188.742775718	1.5	0.1
0.01	1	0.479113837000114	1	49	NA	198.567685177	0	0.11	3.21	1	193.567084864	194.046198701	"17"	1203.782214283	1188.742775718	1.5	0.1
0.01	1	0.553791677999925	1	49	NA	198.567685177	0	0.11	3.21	1	194.268150799	194.821942477	"17"	1203.782214283	1188.742775718	1.5	0.1
0.01	1	0.546348648000048	1	49	NA	198.567685177	0	0.11	3.21	1	195.052795949	195.599144597	"17"	1203.782214283	1188.742775718	1.5	0.1
0.01	1	0.490623434999861	1	49	NA	198.567685177	0	0.11	3.21	1	195.820780052	196.311403487	"17"	1203.782214283	1188.742775718	1.5	0.1
0.01	1	0.453004431999943	1	49	NA	198.567685177	0	0.11	3.21	1	196.538788686	196.991793118	"17"	1203.782214283	1188.742775718	1.5	0.1
0.01	1	0.400224316000049	1	49	NA	198.567685177	0	0.11	3.21	1	197.223087299	197.623311615	"17"	1203.782214283	1188.742775718	1.5	0.1
0.01	1	0.708372064000059	2	49	NA	198.567685177	0	0.11	3.21	1	197.857709812	198.566081876	"17"	1203.782214283	1188.742775718	1.5	0.1
0.01	1	0.236100639000142	1	17	211.532111754	NA	1	0	3.21	1	200.595523238	200.831623877	"18"	1203.782214283	1188.742775718	1.5	0.1
0.01	1	0.00868329800005085	1	17	211.532111754	NA	1	0	3.21	1	201.0630082	201.071691498	"18"	1203.782214283	1188.742775718	1.5	0.1
0.01	1	0.0870299230000455	1	17	211.532111754	NA	1	0	3.21	1	201.296764194	201.383794117	"18"	1203.782214283	1188.742775718	1.5	0.1
0.01	1	0.0562083519998851	1	17	211.532111754	NA	1	0	3.21	1	201.613909477	201.670117829	"18"	1203.782214283	1188.742775718	1.5	0.1
0.01	1	0.109381999999869	1	17	211.532111754	NA	1	0	3.21	1	201.897636543	202.007018543	"18"	1203.782214283	1188.742775718	1.5	0.1
0.01	1	0.0722082659999614	1	17	211.532111754	NA	1	0	3.21	1	202.231683686	202.303891952	"18"	1203.782214283	1188.742775718	1.5	0.1
0.01	1	0.115150926999831	1	17	211.532111754	NA	1	0	3.21	1	202.532191977	202.647342904	"18"	1203.782214283	1188.742775718	1.5	0.1
0.01	1	0.331848877999846	1	17	211.532111754	NA	1	0	3.21	1	202.882697377	203.214546255	"18"	1203.782214283	1188.742775718	1.5	0.1
0.01	1	0.396157163999987	1	17	211.532111754	NA	1	0	3.21	1	203.45023435	203.846391514	"18"	1203.782214283	1188.742775718	1.5	0.1
0.01	1	0.043216718000167	1	17	211.532111754	NA	1	0	3.21	1	204.084763352	204.12798007	"18"	1203.782214283	1188.742775718	1.5	0.1
0.01	1	0.0699734160000389	1	17	211.532111754	NA	1	0	3.21	1	204.351863724	204.42183714	"18"	1203.782214283	1188.742775718	1.5	0.1
0.01	1	0.0662076190001244	1	17	211.532111754	NA	1	0	3.21	1	204.652439561	204.71864718	"18"	1203.782214283	1188.742775718	1.5	0.1
0.01	1	0.0538104449999537	1	17	211.532111754	NA	1	0	3.21	1	204.952772319	205.006582764	"18"	1203.782214283	1188.742775718	1.5	0.1
0.01	1	0.31357259299989	1	17	211.532111754	NA	1	0	3.21	1	205.23665845	205.550231043	"18"	1203.782214283	1188.742775718	1.5	0.1
0.01	1	0.363809284000126	1	17	211.532111754	NA	1	0	3.21	1	205.787553354	206.151362638	"18"	1203.782214283	1188.742775718	1.5	0.1
0.01	1	2.68180878500016	1	17	211.532111754	NA	1	0	3.21	1	206.388586114	209.070394899	"18"	1203.782214283	1188.742775718	1.5	0.1
0.01	1	2.10426254399999	1	17	211.532111754	NA	1	0	3.21	1	209.31021351	211.414476054	"18"	1203.782214283	1188.742775718	1.5	0.1
0.01	1	0.749888664999844	1	20	NA	230.872134091	0	0.15	3.36	1	213.584127382	214.334016047	"19"	1203.782214283	1188.742775718	1.5	0.1
0.01	1	0.549785528000029	1	20	NA	230.872134091	0	0.15	3.36	1	214.568963938	215.118749466	"19"	1203.782214283	1188.742775718	1.5	0.1
0.01	1	0.550294382999937	1	20	NA	230.872134091	0	0.15	3.36	1	215.353703449	215.903997832	"19"	1203.782214283	1188.742775718	1.5	0.1
0.01	1	0.68468450499995	1	20	NA	230.872134091	0	0.15	3.36	1	216.138394091	216.823078596	"19"	1203.782214283	1188.742775718	1.5	0.1
0.01	1	1.12547655599997	1	20	NA	230.872134091	0	0.15	3.36	1	217.05652925	218.182005806	"19"	1203.782214283	1188.742775718	1.5	0.1
0.01	1	1.35925440300002	1	20	NA	230.872134091	0	0.15	3.36	1	218.408885654	219.768140057	"19"	1203.782214283	1188.742775718	1.5	0.1
0.01	1	1.05924351399995	1	20	NA	230.872134091	0	0.15	3.36	1	219.994866832	221.054110346	"19"	1203.782214283	1188.742775718	1.5	0.1
0.01	1	0.791116173000091	1	20	NA	230.872134091	0	0.15	3.36	1	221.280220309	222.071336482	"19"	1203.782214283	1188.742775718	1.5	0.1
0.01	1	0.81958505700004	1	20	NA	230.872134091	0	0.15	3.36	1	222.298654487	223.118239544	"19"	1203.782214283	1188.742775718	1.5	0.1
0.01	1	0.688313948000086	1	20	NA	230.872134091	0	0.15	3.36	1	223.350444892	224.03875884	"19"	1203.782214283	1188.742775718	1.5	0.1
0.01	1	0.78610536899987	1	20	NA	230.872134091	0	0.15	3.36	1	224.268639367	225.054744736	"19"	1203.782214283	1188.742775718	1.5	0.1
0.01	1	1.04046573699998	1	20	NA	230.872134091	0	0.15	3.36	1	225.287129236	226.327594973	"19"	1203.782214283	1188.742775718	1.5	0.1
0.01	1	1.17090045000009	1	20	NA	230.872134091	0	0.15	3.36	1	226.55588863	227.72678908	"19"	1203.782214283	1188.742775718	1.5	0.1
0.01	1	0.791881900000135	1	20	NA	230.872134091	0	0.15	3.36	1	227.95820218	228.75008408	"19"	1203.782214283	1188.742775718	1.5	0.1
0.01	1	0.878943873000026	1	20	NA	230.872134091	0	0.15	3.36	1	228.976640828	229.855584701	"19"	1203.782214283	1188.742775718	1.5	0.1
0.01	1	0.792081223999958	2	20	NA	230.872134091	0	0.15	3.36	1	230.078475926	230.87055715	"19"	1203.782214283	1188.742775718	1.5	0.1
0.01	1	0.497498649999898	1	21	241.983207562	NA	1	0	3.36	1	232.916541017	233.414039667	"20"	1203.782214283	1188.742775718	1.5	0.1
0.01	1	0.267883859999984	1	21	241.983207562	NA	1	0	3.36	1	233.651119937	233.919003797	"20"	1203.782214283	1188.742775718	1.5	0.1
0.01	1	0.375399340000058	1	21	241.983207562	NA	1	0	3.36	1	234.15206654	234.52746588	"20"	1203.782214283	1188.742775718	1.5	0.1
0.01	1	0.213876950999975	1	21	241.983207562	NA	1	0	3.36	1	234.752970194	234.966847145	"20"	1203.782214283	1188.742775718	1.5	0.1
0.01	1	0.379458740000018	1	21	241.983207562	NA	1	0	3.36	1	235.203776638	235.583235378	"20"	1203.782214283	1188.742775718	1.5	0.1
0.01	1	0.0264475379999567	1	21	241.983207562	NA	1	0	3.36	1	235.804722609	235.831170147	"20"	1203.782214283	1188.742775718	1.5	0.1
0.01	1	0.176754801000016	1	21	241.983207562	NA	1	0	3.36	1	236.055073886	236.231828687	"20"	1203.782214283	1188.742775718	1.5	0.1
0.01	1	0.502770551999902	1	21	241.983207562	NA	1	0	3.36	1	236.455861066	236.958631618	"20"	1203.782214283	1188.742775718	1.5	0.1
0.01	1	0.175558706999936	1	21	241.983207562	NA	1	0	3.36	1	237.190411917	237.365970624	"20"	1203.782214283	1188.742775718	1.5	0.1
0.01	1	0.144514572999924	1	21	241.983207562	NA	1	0	3.36	1	237.591090819	237.735605392	"20"	1203.782214283	1188.742775718	1.5	0.1
0.01	1	0.160965748999843	1	21	241.983207562	NA	1	0	3.36	1	237.958379866	238.119345615	"20"	1203.782214283	1188.742775718	1.5	0.1
0.01	1	0.471520310999949	1	21	241.983207562	NA	1	0	3.36	1	238.34225927	238.813779581	"20"	1203.782214283	1188.742775718	1.5	0.1
0.01	1	0.107926882999891	1	21	241.983207562	NA	1	0	3.36	1	239.043533404	239.151460287	"20"	1203.782214283	1188.742775718	1.5	0.1
0.01	1	0.135974595000107	1	21	241.983207562	NA	1	0	3.36	1	239.377403594	239.513378189	"20"	1203.782214283	1188.742775718	1.5	0.1
0.01	1	0.103806177000024	1	21	241.983207562	NA	1	0	3.36	1	239.744723551	239.848529728	"20"	1203.782214283	1188.742775718	1.5	0.1
0.01	1	0.111372760999984	1	21	241.983207562	NA	1	0	3.36	1	240.078582478	240.189955239	"20"	1203.782214283	1188.742775718	1.5	0.1
0.01	1	0.0502916939999523	1	21	241.983207562	NA	1	0	3.36	1	240.412472956	240.46276465	"20"	1203.782214283	1188.742775718	1.5	0.1
0.01	1	0.119695097999966	1	21	241.983207562	NA	1	0	3.36	1	240.696229237	240.815924335	"20"	1203.782214283	1188.742775718	1.5	0.1
0.01	1	0.119294768000145	1	21	241.983207562	NA	1	0	3.36	1	241.046853392	241.16614816	"20"	1203.782214283	1188.742775718	1.5	0.1
0.01	1	0.129104240999823	1	21	241.983207562	NA	1	0	3.36	1	241.397440756	241.526544997	"20"	1203.782214283	1188.742775718	1.5	0.1
0.01	1	0.107484645000113	1	21	241.983207562	NA	1	0	3.36	1	241.764839466	241.872324111	"20"	1203.782214283	1188.742775718	1.5	0.1
0.01	1	0.482635825999978	1	26	NA	248.265094319	0	0.13	3.49	1	244.035234909	244.517870735	"21"	1203.782214283	1188.742775718	1.5	0.1
0.01	1	0.00479918999985784	1	26	NA	248.265094319	0	0.13	3.49	1	244.753186902	244.757986092	"21"	1203.782214283	1188.742775718	1.5	0.1
0.01	1	0.00217619199997898	1	26	NA	248.265094319	0	0.13	3.49	1	244.986812537	244.988988729	"21"	1203.782214283	1188.742775718	1.5	0.1
0.01	1	0.00384641000005104	1	26	NA	248.265094319	0	0.13	3.49	1	245.220535824	245.224382234	"21"	1203.782214283	1188.742775718	1.5	0.1
0.01	1	0.00239479899983053	1	26	NA	248.265094319	0	0.13	3.49	1	245.454257987	245.456652786	"21"	1203.782214283	1188.742775718	1.5	0.1
0.01	1	0.00222201199994743	1	26	NA	248.265094319	0	0.13	3.49	1	245.687963	245.690185012	"21"	1203.782214283	1188.742775718	1.5	0.1
0.01	1	0.00219950499990773	1	26	NA	248.265094319	0	0.13	3.49	1	245.921632832	245.923832337	"21"	1203.782214283	1188.742775718	1.5	0.1
0.01	1	0.00247876699995686	1	26	NA	248.265094319	0	0.13	3.49	1	246.15543932	246.157918087	"21"	1203.782214283	1188.742775718	1.5	0.1
0.01	1	0.00243069199996171	1	26	NA	248.265094319	0	0.13	3.49	1	246.389066157	246.391496849	"21"	1203.782214283	1188.742775718	1.5	0.1
0.01	1	0.00232504900009189	1	26	NA	248.265094319	0	0.13	3.49	1	246.622810848	246.625135897	"21"	1203.782214283	1188.742775718	1.5	0.1
0.01	1	0.00221732400018482	1	26	NA	248.265094319	0	0.13	3.49	1	246.856580576	246.8587979	"21"	1203.782214283	1188.742775718	1.5	0.1
0.01	1	0.00219049500014989	1	26	NA	248.265094319	0	0.13	3.49	1	247.090299641	247.092490136	"21"	1203.782214283	1188.742775718	1.5	0.1
0.01	1	0.00220796500002507	1	26	NA	248.265094319	0	0.13	3.49	1	247.324000497	247.326208462	"21"	1203.782214283	1188.742775718	1.5	0.1
0.01	1	0.705689901999904	2	26	NA	248.265094319	0	0.13	3.49	1	247.557820852	248.263510754	"21"	1203.782214283	1188.742775718	1.5	0.1
0.01	1	0.00408413299987842	1	97	NA	256.176138627	0	0.23	3.72	1	250.295794907	250.29987904	"22"	1203.782214283	1188.742775718	1.5	0.1
0.01	1	0.00484851199985314	1	97	NA	256.176138627	0	0.23	3.72	1	250.529524442	250.534372954	"22"	1203.782214283	1188.742775718	1.5	0.1
0.01	1	0.00505674400005773	1	97	NA	256.176138627	0	0.23	3.72	1	250.763252375	250.768309119	"22"	1203.782214283	1188.742775718	1.5	0.1
0.01	1	0.00469005700006164	1	97	NA	256.176138627	0	0.23	3.72	1	250.99702476	251.001714817	"22"	1203.782214283	1188.742775718	1.5	0.1
0.01	1	0.00335140799984401	1	97	NA	256.176138627	0	0.23	3.72	1	251.230767698	251.234119106	"22"	1203.782214283	1188.742775718	1.5	0.1
0.01	1	0.00377978200003781	1	97	NA	256.176138627	0	0.23	3.72	1	251.464467142	251.468246924	"22"	1203.782214283	1188.742775718	1.5	0.1
0.01	1	0.00369737300002271	1	97	NA	256.176138627	0	0.23	3.72	1	251.698200647	251.70189802	"22"	1203.782214283	1188.742775718	1.5	0.1
0.01	1	0.00419454500001848	1	97	NA	256.176138627	0	0.23	3.72	1	251.931921809	251.936116354	"22"	1203.782214283	1188.742775718	1.5	0.1
0.01	1	0.00351771400005418	1	97	NA	256.176138627	0	0.23	3.72	1	252.165686844	252.169204558	"22"	1203.782214283	1188.742775718	1.5	0.1
0.01	1	0.0036523930000385	1	97	NA	256.176138627	0	0.23	3.72	1	252.399471877	252.40312427	"22"	1203.782214283	1188.742775718	1.5	0.1
0.01	1	0.00231419099986852	1	97	NA	256.176138627	0	0.23	3.72	1	252.63299563	252.635309821	"22"	1203.782214283	1188.742775718	1.5	0.1
0.01	1	0.0022162230000049	1	97	NA	256.176138627	0	0.23	3.72	1	252.866689246	252.868905469	"22"	1203.782214283	1188.742775718	1.5	0.1
0.01	1	0.0045185550000042	1	97	NA	256.176138627	0	0.23	3.72	1	253.100520342	253.105038897	"22"	1203.782214283	1188.742775718	1.5	0.1
0.01	1	0.00226741699998456	1	97	NA	256.176138627	0	0.23	3.72	1	253.334107587	253.336375004	"22"	1203.782214283	1188.742775718	1.5	0.1
0.01	1	0.00238361100014117	1	97	NA	256.176138627	0	0.23	3.72	1	253.567990602	253.570374213	"22"	1203.782214283	1188.742775718	1.5	0.1
0.01	1	0.00219807700000274	1	97	NA	256.176138627	0	0.23	3.72	1	253.801607783	253.80380586	"22"	1203.782214283	1188.742775718	1.5	0.1
0.01	1	0.00237793899987082	1	97	NA	256.176138627	0	0.23	3.72	1	254.03534983	254.037727769	"22"	1203.782214283	1188.742775718	1.5	0.1
0.01	1	0.00275028199985172	1	97	NA	256.176138627	0	0.23	3.72	1	254.269088868	254.27183915	"22"	1203.782214283	1188.742775718	1.5	0.1
0.01	1	0.00233059200013486	1	97	NA	256.176138627	0	0.23	3.72	1	254.50289344	254.505224032	"22"	1203.782214283	1188.742775718	1.5	0.1
0.01	1	0.00237115499999163	1	97	NA	256.176138627	0	0.23	3.72	1	254.736632211	254.739003366	"22"	1203.782214283	1188.742775718	1.5	0.1
0.01	1	0.00217763899991041	1	97	NA	256.176138627	0	0.23	3.72	1	254.970345068	254.972522707	"22"	1203.782214283	1188.742775718	1.5	0.1
0.01	1	0.00479289000008976	1	97	NA	256.176138627	0	0.23	3.72	1	255.204085152	255.208878042	"22"	1203.782214283	1188.742775718	1.5	0.1
0.01	1	0.00216518999991422	1	97	NA	256.176138627	0	0.23	3.72	1	255.437738908	255.439904098	"22"	1203.782214283	1188.742775718	1.5	0.1
0.01	1	0.503037504000076	2	97	NA	256.176138627	0	0.23	3.72	1	255.671504557	256.174542061	"22"	1203.782214283	1188.742775718	1.5	0.1
0.01	1	0.395819525000206	1	118	NA	264.040918976	0	0.21	3.93	1	258.242396036	258.638215561	"23"	1203.782214283	1188.742775718	1.5	0.1
0.01	1	0.00223545500011824	1	118	NA	264.040918976	0	0.21	3.93	1	258.876748206	258.878983661	"23"	1203.782214283	1188.742775718	1.5	0.1
0.01	1	0.00238045299988698	1	118	NA	264.040918976	0	0.21	3.93	1	259.110484707	259.11286516	"23"	1203.782214283	1188.742775718	1.5	0.1
0.01	1	0.00231254999994235	1	118	NA	264.040918976	0	0.21	3.93	1	259.34431997	259.34663252	"23"	1203.782214283	1188.742775718	1.5	0.1
0.01	1	0.00219850500002394	1	118	NA	264.040918976	0	0.21	3.93	1	259.577947087	259.580145592	"23"	1203.782214283	1188.742775718	1.5	0.1
0.01	1	0.00228704699998161	1	118	NA	264.040918976	0	0.21	3.93	1	259.81175934	259.814046387	"23"	1203.782214283	1188.742775718	1.5	0.1
0.01	1	0.00219420600001285	1	118	NA	264.040918976	0	0.21	3.93	1	260.045360501	260.047554707	"23"	1203.782214283	1188.742775718	1.5	0.1
0.01	1	0.00221390400020027	1	118	NA	264.040918976	0	0.21	3.93	1	260.279140423	260.281354327	"23"	1203.782214283	1188.742775718	1.5	0.1
0.01	1	0.00225012999999308	1	118	NA	264.040918976	0	0.21	3.93	1	260.512928921	260.515179051	"23"	1203.782214283	1188.742775718	1.5	0.1
0.01	1	0.00222755000004327	1	118	NA	264.040918976	0	0.21	3.93	1	260.746640411	260.748867961	"23"	1203.782214283	1188.742775718	1.5	0.1
0.01	1	0.00226047600017409	1	118	NA	264.040918976	0	0.21	3.93	1	260.980359275	260.982619751	"23"	1203.782214283	1188.742775718	1.5	0.1
0.01	1	0.00267207199999575	1	118	NA	264.040918976	0	0.21	3.93	1	261.214128752	261.216800824	"23"	1203.782214283	1188.742775718	1.5	0.1
0.01	1	0.00220652099983454	1	118	NA	264.040918976	0	0.21	3.93	1	261.447847045	261.450053566	"23"	1203.782214283	1188.742775718	1.5	0.1
0.01	1	0.00233642600005624	1	118	NA	264.040918976	0	0.21	3.93	1	261.681598544	261.68393497	"23"	1203.782214283	1188.742775718	1.5	0.1
0.01	1	0.00377741000011156	1	118	NA	264.040918976	0	0.21	3.93	1	261.915346622	261.919124032	"23"	1203.782214283	1188.742775718	1.5	0.1
0.01	1	0.00400632099990617	1	118	NA	264.040918976	0	0.21	3.93	1	262.149017999	262.15302432	"23"	1203.782214283	1188.742775718	1.5	0.1
0.01	1	0.0041293400001905	1	118	NA	264.040918976	0	0.21	3.93	1	262.382799562	262.386928902	"23"	1203.782214283	1188.742775718	1.5	0.1
0.01	1	0.00405601300008129	1	118	NA	264.040918976	0	0.21	3.93	1	262.616610887	262.6206669	"23"	1203.782214283	1188.742775718	1.5	0.1
0.01	1	0.00220157700005075	1	118	NA	264.040918976	0	0.21	3.93	1	262.850179265	262.852380842	"23"	1203.782214283	1188.742775718	1.5	0.1
0.01	1	0.00218094699994253	1	118	NA	264.040918976	0	0.21	3.93	1	263.083826002	263.086006949	"23"	1203.782214283	1188.742775718	1.5	0.1
0.01	1	0.00350646600008986	1	118	NA	264.040918976	0	0.21	3.93	1	263.317692462	263.321198928	"23"	1203.782214283	1188.742775718	1.5	0.1
0.01	1	0.4879663480001	2	118	NA	264.040918976	0	0.21	3.93	1	263.551377562	264.03934391	"23"	1203.782214283	1188.742775718	1.5	0.1
0.01	1	0.653288065999959	1	100	NA	274.775948726	0	0.31	4.24	1	266.089021748	266.742309814	"24"	1203.782214283	1188.742775718	1.5	0.1
0.01	1	0.00449855300007584	1	100	NA	274.775948726	0	0.31	4.24	1	266.973917824	266.978416377	"24"	1203.782214283	1188.742775718	1.5	0.1
0.01	1	0.00483653499986758	1	100	NA	274.775948726	0	0.31	4.24	1	267.207706562	267.212543097	"24"	1203.782214283	1188.742775718	1.5	0.1
0.01	1	0.00481235000006563	1	100	NA	274.775948726	0	0.31	4.24	1	267.441330282	267.446142632	"24"	1203.782214283	1188.742775718	1.5	0.1
0.01	1	0.00390303299991501	1	100	NA	274.775948726	0	0.31	4.24	1	267.674994167	267.6788972	"24"	1203.782214283	1188.742775718	1.5	0.1
0.01	1	0.00409257100000104	1	100	NA	274.775948726	0	0.31	4.24	1	267.908814469	267.91290704	"24"	1203.782214283	1188.742775718	1.5	0.1
0.01	1	0.00416857699997308	1	100	NA	274.775948726	0	0.31	4.24	1	268.142464187	268.146632764	"24"	1203.782214283	1188.742775718	1.5	0.1
0.01	1	0.00485755499994411	1	100	NA	274.775948726	0	0.31	4.24	1	268.376235262	268.381092817	"24"	1203.782214283	1188.742775718	1.5	0.1
0.01	1	0.00354307199995674	1	100	NA	274.775948726	0	0.31	4.24	1	268.6099828	268.613525872	"24"	1203.782214283	1188.742775718	1.5	0.1
0.01	1	0.00384560699990288	1	100	NA	274.775948726	0	0.31	4.24	1	268.843700907	268.847546514	"24"	1203.782214283	1188.742775718	1.5	0.1
0.01	1	0.00393482799995581	1	100	NA	274.775948726	0	0.31	4.24	1	269.077426254	269.081361082	"24"	1203.782214283	1188.742775718	1.5	0.1
0.01	1	0.00406068300003426	1	100	NA	274.775948726	0	0.31	4.24	1	269.311140879	269.315201562	"24"	1203.782214283	1188.742775718	1.5	0.1
0.01	1	0.00514229500004149	1	100	NA	274.775948726	0	0.31	4.24	1	269.544982517	269.550124812	"24"	1203.782214283	1188.742775718	1.5	0.1
0.01	1	0.00369251600000098	1	100	NA	274.775948726	0	0.31	4.24	1	269.778560734	269.78225325	"24"	1203.782214283	1188.742775718	1.5	0.1
0.01	1	0.00393046999988655	1	100	NA	274.775948726	0	0.31	4.24	1	270.012258852	270.016189322	"24"	1203.782214283	1188.742775718	1.5	0.1
0.01	1	0.00483867200000532	1	100	NA	274.775948726	0	0.31	4.24	1	270.246147377	270.250986049	"24"	1203.782214283	1188.742775718	1.5	0.1
0.01	1	0.00395778999995855	1	100	NA	274.775948726	0	0.31	4.24	1	270.479749062	270.483706852	"24"	1203.782214283	1188.742775718	1.5	0.1
0.01	1	0.00409067700002197	1	100	NA	274.775948726	0	0.31	4.24	1	270.713479887	270.717570564	"24"	1203.782214283	1188.742775718	1.5	0.1
0.01	1	0.00401038199993309	1	100	NA	274.775948726	0	0.31	4.24	1	270.947089902	270.951100284	"24"	1203.782214283	1188.742775718	1.5	0.1
0.01	1	0.00417641699982596	1	100	NA	274.775948726	0	0.31	4.24	1	271.180774109	271.184950526	"24"	1203.782214283	1188.742775718	1.5	0.1
0.01	1	0.00458032799997454	1	100	NA	274.775948726	0	0.31	4.24	1	271.414676641	271.419256969	"24"	1203.782214283	1188.742775718	1.5	0.1
0.01	1	0.00392588899990187	1	100	NA	274.775948726	0	0.31	4.24	1	271.648377617	271.652303506	"24"	1203.782214283	1188.742775718	1.5	0.1
0.01	1	0.00373912999998538	1	100	NA	274.775948726	0	0.31	4.24	1	271.882079914	271.885819044	"24"	1203.782214283	1188.742775718	1.5	0.1
0.01	1	0.00389174299994011	1	100	NA	274.775948726	0	0.31	4.24	1	272.115822629	272.119714372	"24"	1203.782214283	1188.742775718	1.5	0.1
0.01	1	0.00407663600003616	1	100	NA	274.775948726	0	0.31	4.24	1	272.349578174	272.35365481	"24"	1203.782214283	1188.742775718	1.5	0.1
0.01	1	0.00392304899992268	1	100	NA	274.775948726	0	0.31	4.24	1	272.583279939	272.587202988	"24"	1203.782214283	1188.742775718	1.5	0.1
0.01	1	0.00389936800002033	1	100	NA	274.775948726	0	0.31	4.24	1	272.817024414	272.820923782	"24"	1203.782214283	1188.742775718	1.5	0.1
0.01	1	0.00368308500014791	1	100	NA	274.775948726	0	0.31	4.24	1	273.050663817	273.054346902	"24"	1203.782214283	1188.742775718	1.5	0.1
0.01	1	0.00395605799985788	1	100	NA	274.775948726	0	0.31	4.24	1	273.284410092	273.28836615	"24"	1203.782214283	1188.742775718	1.5	0.1
0.01	1	0.0040865070000109	1	100	NA	274.775948726	0	0.31	4.24	1	273.518253199	273.522339706	"24"	1203.782214283	1188.742775718	1.5	0.1
0.01	1	0.00415077200000269	1	100	NA	274.775948726	0	0.31	4.24	1	273.751966322	273.756117094	"24"	1203.782214283	1188.742775718	1.5	0.1
0.01	1	0.788714977999916	2	100	NA	274.775948726	0	0.31	4.24	1	273.985645102	274.77436008	"24"	1203.782214283	1188.742775718	1.5	0.1
0.01	1	2.54013585500002	1	46	NA	285.886418708	0	0.27	4.51	1	276.823785782	279.363921637	"25"	1203.782214283	1188.742775718	1.5	0.1
0.01	1	0.00487161000000924	1	46	NA	285.886418708	0	0.27	4.51	1	279.595104377	279.599975987	"25"	1203.782214283	1188.742775718	1.5	0.1
0.01	1	0.00408137099998385	1	46	NA	285.886418708	0	0.27	4.51	1	279.828854949	279.83293632	"25"	1203.782214283	1188.742775718	1.5	0.1
0.01	1	0.00349411600018357	1	46	NA	285.886418708	0	0.27	4.51	1	280.062494866	280.065988982	"25"	1203.782214283	1188.742775718	1.5	0.1
0.01	1	0.00481980200015641	1	46	NA	285.886418708	0	0.27	4.51	1	280.296264567	280.301084369	"25"	1203.782214283	1188.742775718	1.5	0.1
0.01	1	0.00415627500001392	1	46	NA	285.886418708	0	0.27	4.51	1	280.530038207	280.534194482	"25"	1203.782214283	1188.742775718	1.5	0.1
0.01	1	0.00408501099991554	1	46	NA	285.886418708	0	0.27	4.51	1	280.763645707	280.767730718	"25"	1203.782214283	1188.742775718	1.5	0.1
0.01	1	0.00403503600000477	1	46	NA	285.886418708	0	0.27	4.51	1	280.997355652	281.001390688	"25"	1203.782214283	1188.742775718	1.5	0.1
0.01	1	0.00357946700000866	1	46	NA	285.886418708	0	0.27	4.51	1	281.231155507	281.234734974	"25"	1203.782214283	1188.742775718	1.5	0.1
0.01	1	0.00378361699995367	1	46	NA	285.886418708	0	0.27	4.51	1	281.464857829	281.468641446	"25"	1203.782214283	1188.742775718	1.5	0.1
0.01	1	0.00417667100009567	1	46	NA	285.886418708	0	0.27	4.51	1	281.698580407	281.702757078	"25"	1203.782214283	1188.742775718	1.5	0.1
0.01	1	0.00409326699991652	1	46	NA	285.886418708	0	0.27	4.51	1	281.932316219	281.936409486	"25"	1203.782214283	1188.742775718	1.5	0.1
0.01	1	0.00415433800003484	1	46	NA	285.886418708	0	0.27	4.51	1	282.166028272	282.17018261	"25"	1203.782214283	1188.742775718	1.5	0.1
0.01	1	0.00364363299991055	1	46	NA	285.886418708	0	0.27	4.51	1	282.399849049	282.403492682	"25"	1203.782214283	1188.742775718	1.5	0.1
0.01	1	0.00379782499999237	1	46	NA	285.886418708	0	0.27	4.51	1	282.633396859	282.637194684	"25"	1203.782214283	1188.742775718	1.5	0.1
0.01	1	0.00412789899996824	1	46	NA	285.886418708	0	0.27	4.51	1	282.867200869	282.871328768	"25"	1203.782214283	1188.742775718	1.5	0.1
0.01	1	0.00389614099981372	1	46	NA	285.886418708	0	0.27	4.51	1	283.100962739	283.10485888	"25"	1203.782214283	1188.742775718	1.5	0.1
0.01	1	0.00341813599993657	1	46	NA	285.886418708	0	0.27	4.51	1	283.33468499	283.338103126	"25"	1203.782214283	1188.742775718	1.5	0.1
0.01	1	0.00380030099995565	1	46	NA	285.886418708	0	0.27	4.51	1	283.568394627	283.572194928	"25"	1203.782214283	1188.742775718	1.5	0.1
0.01	1	0.00425898499997857	1	46	NA	285.886418708	0	0.27	4.51	1	283.802036749	283.806295734	"25"	1203.782214283	1188.742775718	1.5	0.1
0.01	1	0.00484789000006458	1	46	NA	285.886418708	0	0.27	4.51	1	284.035904902	284.040752792	"25"	1203.782214283	1188.742775718	1.5	0.1
0.01	1	0.00411915299991961	1	46	NA	285.886418708	0	0.27	4.51	1	284.269566197	284.27368535	"25"	1203.782214283	1188.742775718	1.5	0.1
0.01	1	0.00482784499990885	1	46	NA	285.886418708	0	0.27	4.51	1	284.503424272	284.508252117	"25"	1203.782214283	1188.742775718	1.5	0.1
0.01	1	0.00356788900012361	1	46	NA	285.886418708	0	0.27	4.51	1	284.737082487	284.740650376	"25"	1203.782214283	1188.742775718	1.5	0.1
0.01	1	0.00412697199999457	1	46	NA	285.886418708	0	0.27	4.51	1	284.970836902	284.974963874	"25"	1203.782214283	1188.742775718	1.5	0.1
0.01	1	0.00489236700013862	1	46	NA	285.886418708	0	0.27	4.51	1	285.204556187	285.209448554	"25"	1203.782214283	1188.742775718	1.5	0.1
0.01	1	0.00411964299996725	1	46	NA	285.886418708	0	0.27	4.51	1	285.438208347	285.44232799	"25"	1203.782214283	1188.742775718	1.5	0.1
0.01	1	0.212981978000016	2	46	NA	285.886418708	0	0.27	4.51	1	285.671906422	285.8848884	"25"	1203.782214283	1188.742775718	1.5	0.1
0.01	1	3.58591499399995	1	102	NA	299.522894429	0	0.31	4.82	1	287.94245382	291.528368814	"26"	1203.782214283	1188.742775718	1.5	0.1
0.01	1	0.00487072200007788	1	102	NA	299.522894429	0	0.31	4.82	1	291.765540717	291.770411439	"26"	1203.782214283	1188.742775718	1.5	0.1
0.01	1	0.00428127300006054	1	102	NA	299.522894429	0	0.31	4.82	1	291.999225277	292.00350655	"26"	1203.782214283	1188.742775718	1.5	0.1
0.01	1	0.00401842500014027	1	102	NA	299.522894429	0	0.31	4.82	1	292.232929927	292.236948352	"26"	1203.782214283	1188.742775718	1.5	0.1
0.01	1	0.00412945199991555	1	102	NA	299.522894429	0	0.31	4.82	1	292.466736112	292.470865564	"26"	1203.782214283	1188.742775718	1.5	0.1
0.01	1	0.00377868500004297	1	102	NA	299.522894429	0	0.31	4.82	1	292.700424057	292.704202742	"26"	1203.782214283	1188.742775718	1.5	0.1
0.01	1	0.00399057699996774	1	102	NA	299.522894429	0	0.31	4.82	1	292.934121129	292.938111706	"26"	1203.782214283	1188.742775718	1.5	0.1
0.01	1	0.00409960899992257	1	102	NA	299.522894429	0	0.31	4.82	1	293.167857257	293.171956866	"26"	1203.782214283	1188.742775718	1.5	0.1
0.01	1	0.00365967500010811	1	102	NA	299.522894429	0	0.31	4.82	1	293.401491627	293.405151302	"26"	1203.782214283	1188.742775718	1.5	0.1
0.01	1	0.00391774500008069	1	102	NA	299.522894429	0	0.31	4.82	1	293.635342739	293.639260484	"26"	1203.782214283	1188.742775718	1.5	0.1
0.01	1	0.00459583499991822	1	102	NA	299.522894429	0	0.31	4.82	1	293.869124897	293.873720732	"26"	1203.782214283	1188.742775718	1.5	0.1
0.01	1	0.00410209500000747	1	102	NA	299.522894429	0	0.31	4.82	1	294.102798137	294.106900232	"26"	1203.782214283	1188.742775718	1.5	0.1
0.01	1	0.00406115300006604	1	102	NA	299.522894429	0	0.31	4.82	1	294.336533619	294.340594772	"26"	1203.782214283	1188.742775718	1.5	0.1
0.01	1	0.00343659200007096	1	102	NA	299.522894429	0	0.31	4.82	1	294.57014871	294.573585302	"26"	1203.782214283	1188.742775718	1.5	0.1
0.01	1	0.00395452299994759	1	102	NA	299.522894429	0	0.31	4.82	1	294.803933219	294.807887742	"26"	1203.782214283	1188.742775718	1.5	0.1
0.01	1	0.00465832199984106	1	102	NA	299.522894429	0	0.31	4.82	1	295.037700557	295.042358879	"26"	1203.782214283	1188.742775718	1.5	0.1
0.01	1	0.00481889200000296	1	102	NA	299.522894429	0	0.31	4.82	1	295.271475202	295.276294094	"26"	1203.782214283	1188.742775718	1.5	0.1
0.01	1	0.00412436900001012	1	102	NA	299.522894429	0	0.31	4.82	1	295.505099897	295.509224266	"26"	1203.782214283	1188.742775718	1.5	0.1
0.01	1	0.00484309199987365	1	102	NA	299.522894429	0	0.31	4.82	1	295.739003497	295.743846589	"26"	1203.782214283	1188.742775718	1.5	0.1
0.01	1	0.00379586799999743	1	102	NA	299.522894429	0	0.31	4.82	1	295.972536232	295.9763321	"26"	1203.782214283	1188.742775718	1.5	0.1
0.01	1	0.004090172999895	1	102	NA	299.522894429	0	0.31	4.82	1	296.206428099	296.210518272	"26"	1203.782214283	1188.742775718	1.5	0.1
0.01	1	0.00229555700002493	1	102	NA	299.522894429	0	0.31	4.82	1	296.440022627	296.442318184	"26"	1203.782214283	1188.742775718	1.5	0.1
0.01	1	0.00220774099989285	1	102	NA	299.522894429	0	0.31	4.82	1	296.673792967	296.676000708	"26"	1203.782214283	1188.742775718	1.5	0.1
0.01	1	0.00381086900006267	1	102	NA	299.522894429	0	0.31	4.82	1	296.907422127	296.911232996	"26"	1203.782214283	1188.742775718	1.5	0.1
0.01	1	0.00442316299995582	1	102	NA	299.522894429	0	0.31	4.82	1	297.141120579	297.145543742	"26"	1203.782214283	1188.742775718	1.5	0.1
0.01	1	0.00400474299999587	1	102	NA	299.522894429	0	0.31	4.82	1	297.374860287	297.37886503	"26"	1203.782214283	1188.742775718	1.5	0.1
0.01	1	0.670930689999977	1	102	NA	299.522894429	0	0.31	4.82	1	297.608683227	298.279613917	"26"	1203.782214283	1188.742775718	1.5	0.1
0.01	1	0.00439591500003189	1	102	NA	299.522894429	0	0.31	4.82	1	298.510181659	298.514577574	"26"	1203.782214283	1188.742775718	1.5	0.1
0.01	1	0.00404729999991105	1	102	NA	299.522894429	0	0.31	4.82	1	298.743976352	298.748023652	"26"	1203.782214283	1188.742775718	1.5	0.1
0.01	1	0.00353505999987647	1	102	NA	299.522894429	0	0.31	4.82	1	298.977684864	298.981219924	"26"	1203.782214283	1188.742775718	1.5	0.1
0.01	1	0.0040345200000047	1	102	NA	299.522894429	0	0.31	4.82	1	299.211364902	299.215399422	"26"	1203.782214283	1188.742775718	1.5	0.1
0.01	1	0.0762425539999185	2	102	NA	299.522894429	0	0.31	4.82	1	299.445121334	299.521363888	"26"	1203.782214283	1188.742775718	1.5	0.1
0.01	1	0.36270019299991	1	120	NA	307.650290206	0	0.24	5.06	1	301.548735022	301.911435215	"27"	1203.782214283	1188.742775718	1.5	0.1
0.01	1	0.00478313000007802	1	120	NA	307.650290206	0	0.24	5.06	1	302.149718867	302.154501997	"27"	1203.782214283	1188.742775718	1.5	0.1
0.01	1	0.00478023999994548	1	120	NA	307.650290206	0	0.24	5.06	1	302.383501957	302.388282197	"27"	1203.782214283	1188.742775718	1.5	0.1
0.01	1	0.00402928300013627	1	120	NA	307.650290206	0	0.24	5.06	1	302.617217299	302.621246582	"27"	1203.782214283	1188.742775718	1.5	0.1
0.01	1	0.0047998270001699	1	120	NA	307.650290206	0	0.24	5.06	1	302.850914742	302.855714569	"27"	1203.782214283	1188.742775718	1.5	0.1
0.01	1	0.00404876100014917	1	120	NA	307.650290206	0	0.24	5.06	1	303.084441557	303.088490318	"27"	1203.782214283	1188.742775718	1.5	0.1
0.01	1	0.00480803500022375	1	120	NA	307.650290206	0	0.24	5.06	1	303.318368562	303.323176597	"27"	1203.782214283	1188.742775718	1.5	0.1
0.01	1	0.00408367899990481	1	120	NA	307.650290206	0	0.24	5.06	1	303.551885327	303.555969006	"27"	1203.782214283	1188.742775718	1.5	0.1
0.01	1	0.00482712000007268	1	120	NA	307.650290206	0	0.24	5.06	1	303.785723662	303.790550782	"27"	1203.782214283	1188.742775718	1.5	0.1
0.01	1	0.00396528300007049	1	120	NA	307.650290206	0	0.24	5.06	1	304.019453979	304.023419262	"27"	1203.782214283	1188.742775718	1.5	0.1
0.01	1	0.00475437499994769	1	120	NA	307.650290206	0	0.24	5.06	1	304.253315597	304.258069972	"27"	1203.782214283	1188.742775718	1.5	0.1
0.01	1	0.00477162500010309	1	120	NA	307.650290206	0	0.24	5.06	1	304.486954687	304.491726312	"27"	1203.782214283	1188.742775718	1.5	0.1
0.01	1	0.00413567400005377	1	120	NA	307.650290206	0	0.24	5.06	1	304.720701902	304.724837576	"27"	1203.782214283	1188.742775718	1.5	0.1
0.01	1	0.00420426699997734	1	120	NA	307.650290206	0	0.24	5.06	1	304.954370539	304.958574806	"27"	1203.782214283	1188.742775718	1.5	0.1
0.01	1	0.00484486699997433	1	120	NA	307.650290206	0	0.24	5.06	1	305.188131707	305.192976574	"27"	1203.782214283	1188.742775718	1.5	0.1
0.01	1	0.00477056199997605	1	120	NA	307.650290206	0	0.24	5.06	1	305.421758867	305.426529429	"27"	1203.782214283	1188.742775718	1.5	0.1
0.01	1	0.0048482250001598	1	120	NA	307.650290206	0	0.24	5.06	1	305.655622197	305.660470422	"27"	1203.782214283	1188.742775718	1.5	0.1
0.01	1	0.00411214800010384	1	120	NA	307.650290206	0	0.24	5.06	1	305.889262012	305.89337416	"27"	1203.782214283	1188.742775718	1.5	0.1
0.01	1	0.00484060000007958	1	120	NA	307.650290206	0	0.24	5.06	1	306.123054232	306.127894832	"27"	1203.782214283	1188.742775718	1.5	0.1
0.01	1	0.00405508700009705	1	120	NA	307.650290206	0	0.24	5.06	1	306.356615579	306.360670666	"27"	1203.782214283	1188.742775718	1.5	0.1
0.01	1	0.0041427430001022	1	120	NA	307.650290206	0	0.24	5.06	1	306.590540377	306.59468312	"27"	1203.782214283	1188.742775718	1.5	0.1
0.01	1	0.00409528099999079	1	120	NA	307.650290206	0	0.24	5.06	1	306.824147097	306.828242378	"27"	1203.782214283	1188.742775718	1.5	0.1
0.01	1	0.00392142100008641	1	120	NA	307.650290206	0	0.24	5.06	1	307.057983249	307.06190467	"27"	1203.782214283	1188.742775718	1.5	0.1
0.01	1	0.00413196500016966	1	120	NA	307.650290206	0	0.24	5.06	1	307.291545117	307.295677082	"27"	1203.782214283	1188.742775718	1.5	0.1
0.01	1	0.123523212000009	2	120	NA	307.650290206	0	0.24	5.06	1	307.525233319	307.648756531	"27"	1203.782214283	1188.742775718	1.5	0.1
0.01	1	0.673069269000052	1	44	NA	317.889660638	0	0.3	5.36	1	309.695760092	310.368829361	"28"	1203.782214283	1188.742775718	1.5	0.1
0.01	1	0.0048195020001458	1	44	NA	317.889660638	0	0.3	5.36	1	310.597241317	310.602060819	"28"	1203.782214283	1188.742775718	1.5	0.1
0.01	1	0.0048190700001669	1	44	NA	317.889660638	0	0.3	5.36	1	310.831009952	310.835829022	"28"	1203.782214283	1188.742775718	1.5	0.1
0.01	1	0.00418085300020721	1	44	NA	317.889660638	0	0.3	5.36	1	311.064716509	311.068897362	"28"	1203.782214283	1188.742775718	1.5	0.1
0.01	1	0.00379697099992882	1	44	NA	317.889660638	0	0.3	5.36	1	311.298384049	311.30218102	"28"	1203.782214283	1188.742775718	1.5	0.1
0.01	1	0.00487494000003608	1	44	NA	317.889660638	0	0.3	5.36	1	311.532225072	311.537100012	"28"	1203.782214283	1188.742775718	1.5	0.1
0.01	1	0.00478925499987781	1	44	NA	317.889660638	0	0.3	5.36	1	311.765939887	311.770729142	"28"	1203.782214283	1188.742775718	1.5	0.1
0.01	1	0.00416811199988842	1	44	NA	317.889660638	0	0.3	5.36	1	311.999585062	312.003753174	"28"	1203.782214283	1188.742775718	1.5	0.1
0.01	1	0.00485982000009244	1	44	NA	317.889660638	0	0.3	5.36	1	312.233339937	312.238199757	"28"	1203.782214283	1188.742775718	1.5	0.1
0.01	1	0.00403695300019535	1	44	NA	317.889660638	0	0.3	5.36	1	312.466989157	312.47102611	"28"	1203.782214283	1188.742775718	1.5	0.1
0.01	1	0.00411858999996184	1	44	NA	317.889660638	0	0.3	5.36	1	312.700603254	312.704721844	"28"	1203.782214283	1188.742775718	1.5	0.1
0.01	1	0.00469001300007221	1	44	NA	317.889660638	0	0.3	5.36	1	312.934472041	312.939162054	"28"	1203.782214283	1188.742775718	1.5	0.1
0.01	1	0.00446210200016139	1	44	NA	317.889660638	0	0.3	5.36	1	313.168212178	313.17267428	"28"	1203.782214283	1188.742775718	1.5	0.1
0.01	1	0.0039736900000662	1	44	NA	317.889660638	0	0.3	5.36	1	313.401975992	313.405949682	"28"	1203.782214283	1188.742775718	1.5	0.1
0.01	1	0.00359544600019035	1	44	NA	317.889660638	0	0.3	5.36	1	313.635538242	313.639133688	"28"	1203.782214283	1188.742775718	1.5	0.1
0.01	1	0.00478206999991926	1	44	NA	317.889660638	0	0.3	5.36	1	313.869363377	313.874145447	"28"	1203.782214283	1188.742775718	1.5	0.1
0.01	1	0.0041889250001077	1	44	NA	317.889660638	0	0.3	5.36	1	314.103087939	314.107276864	"28"	1203.782214283	1188.742775718	1.5	0.1
0.01	1	0.00400022299982083	1	44	NA	317.889660638	0	0.3	5.36	1	314.336848239	314.340848462	"28"	1203.782214283	1188.742775718	1.5	0.1
0.01	1	0.00490310500003943	1	44	NA	317.889660638	0	0.3	5.36	1	314.570549087	314.575452192	"28"	1203.782214283	1188.742775718	1.5	0.1
0.01	1	0.00455812700010938	1	44	NA	317.889660638	0	0.3	5.36	1	314.804253867	314.808811994	"28"	1203.782214283	1188.742775718	1.5	0.1
0.01	1	0.00407298100003572	1	44	NA	317.889660638	0	0.3	5.36	1	315.038058987	315.042131968	"28"	1203.782214283	1188.742775718	1.5	0.1
0.01	1	0.00481389699984902	1	44	NA	317.889660638	0	0.3	5.36	1	315.271752217	315.276566114	"28"	1203.782214283	1188.742775718	1.5	0.1
0.01	1	0.00394133700001476	1	44	NA	317.889660638	0	0.3	5.36	1	315.505436647	315.509377984	"28"	1203.782214283	1188.742775718	1.5	0.1
0.01	1	0.00485045699997499	1	44	NA	317.889660638	0	0.3	5.36	1	315.739181502	315.744031959	"28"	1203.782214283	1188.742775718	1.5	0.1
0.01	1	0.00410789300008219	1	44	NA	317.889660638	0	0.3	5.36	1	315.972924849	315.977032742	"28"	1203.782214283	1188.742775718	1.5	0.1
0.01	1	0.00402812400011499	1	44	NA	317.889660638	0	0.3	5.36	1	316.206582602	316.210610726	"28"	1203.782214283	1188.742775718	1.5	0.1
0.01	1	0.00392687499993372	1	44	NA	317.889660638	0	0.3	5.36	1	316.440259139	316.444186014	"28"	1203.782214283	1188.742775718	1.5	0.1
0.01	1	0.00377149299993107	1	44	NA	317.889660638	0	0.3	5.36	1	316.674076619	316.677848112	"28"	1203.782214283	1188.742775718	1.5	0.1
0.01	1	0.00473644499993497	1	44	NA	317.889660638	0	0.3	5.36	1	316.907823052	316.912559497	"28"	1203.782214283	1188.742775718	1.5	0.1
0.01	1	0.00411717400015732	1	44	NA	317.889660638	0	0.3	5.36	1	317.141493632	317.145610806	"28"	1203.782214283	1188.742775718	1.5	0.1
0.01	1	0.512882395999895	2	44	NA	317.889660638	0	0.3	5.36	1	317.375154064	317.88803646	"28"	1203.782214283	1188.742775718	1.5	0.1
0.01	1	0.0041445740000654	1	75	NA	324.931107057	0	0.21	5.57	1	319.929603544	319.933748118	"29"	1203.782214283	1188.742775718	1.5	0.1
0.01	1	0.00459456500016131	1	75	NA	324.931107057	0	0.21	5.57	1	320.163286557	320.167881122	"29"	1203.782214283	1188.742775718	1.5	0.1
0.01	1	0.00367715699985638	1	75	NA	324.931107057	0	0.21	5.57	1	320.397005337	320.400682494	"29"	1203.782214283	1188.742775718	1.5	0.1
0.01	1	0.0038403890000609	1	75	NA	324.931107057	0	0.21	5.57	1	320.630685939	320.634526328	"29"	1203.782214283	1188.742775718	1.5	0.1
0.01	1	0.00488865500005886	1	75	NA	324.931107057	0	0.21	5.57	1	320.864518917	320.869407572	"29"	1203.782214283	1188.742775718	1.5	0.1
0.01	1	0.0037262200000896	1	75	NA	324.931107057	0	0.21	5.57	1	321.098115802	321.101842022	"29"	1203.782214283	1188.742775718	1.5	0.1
0.01	1	0.00347953599998618	1	75	NA	324.931107057	0	0.21	5.57	1	321.331964276	321.335443812	"29"	1203.782214283	1188.742775718	1.5	0.1
0.01	1	0.00411330699989776	1	75	NA	324.931107057	0	0.21	5.57	1	321.565640577	321.569753884	"29"	1203.782214283	1188.742775718	1.5	0.1
0.01	1	0.004154089000167	1	75	NA	324.931107057	0	0.21	5.57	1	321.799232289	321.803386378	"29"	1203.782214283	1188.742775718	1.5	0.1
0.01	1	0.00464804199987157	1	75	NA	324.931107057	0	0.21	5.57	1	322.033119712	322.037767754	"29"	1203.782214283	1188.742775718	1.5	0.1
0.01	1	0.00465523899993059	1	75	NA	324.931107057	0	0.21	5.57	1	322.26691834	322.271573579	"29"	1203.782214283	1188.742775718	1.5	0.1
0.01	1	0.00414754300004461	1	75	NA	324.931107057	0	0.21	5.57	1	322.500558507	322.50470605	"29"	1203.782214283	1188.742775718	1.5	0.1
0.01	1	0.00481790699996054	1	75	NA	324.931107057	0	0.21	5.57	1	322.734208567	322.739026474	"29"	1203.782214283	1188.742775718	1.5	0.1
