"payoff.level"	"balloon"	"rt"	"resp"	"explode.trial"	"explode.time"	"finish.time"	"exploded"	"trial.total"	"cumulative.total"	"finished"	"trial.start"	"trial.end"	"trial.num"	"secs"	"start.time"	"iti"	"isi"
0.01	1	2.29444054000004	NA	64	NA	2.45612257800002	0	0	0	1	0.0240450590000023	2.31848559900004	"1"	759.17289546	756.216405367	1.5	0.1
0.01	1	1.91934189099999	1	102	NA	19.787350798	0	0.16	0.16	1	4.51478878900002	6.43413068000001	"2"	759.17289546	756.216405367	1.5	0.1
0.01	1	0.660289662999958	1	102	NA	19.787350798	0	0.16	0.16	1	6.66828339200003	7.32857305499999	"2"	759.17289546	756.216405367	1.5	0.1
0.01	1	0.384332030000053	1	102	NA	19.787350798	0	0.16	0.16	1	7.55325413899999	7.93758616900004	"2"	759.17289546	756.216405367	1.5	0.1
0.01	1	0.367139616999964	1	102	NA	19.787350798	0	0.16	0.16	1	8.17089695600004	8.538036573	"2"	759.17289546	756.216405367	1.5	0.1
0.01	1	0.340625863000014	1	102	NA	19.787350798	0	0.16	0.16	1	8.771919169	9.11254503200001	"2"	759.17289546	756.216405367	1.5	0.1
0.01	1	0.36616219299998	1	102	NA	19.787350798	0	0.16	0.16	1	9.33953026900002	9.705692462	"2"	759.17289546	756.216405367	1.5	0.1
0.01	1	0.300491787999988	1	102	NA	19.787350798	0	0.16	0.16	1	9.94051676100003	10.241008549	"2"	759.17289546	756.216405367	1.5	0.1
0.01	1	0.31903861699999	1	102	NA	19.787350798	0	0.16	0.16	1	10.474917659	10.793956276	"2"	759.17289546	756.216405367	1.5	0.1
0.01	1	0.303155150999999	1	102	NA	19.787350798	0	0.16	0.16	1	11.025687334	11.328842485	"2"	759.17289546	756.216405367	1.5	0.1
0.01	1	0.321250477000035	1	102	NA	19.787350798	0	0.16	0.16	1	11.560042479	11.881292956	"2"	759.17289546	756.216405367	1.5	0.1
0.01	1	0.379630284000029	1	102	NA	19.787350798	0	0.16	0.16	1	12.110870069	12.490500353	"2"	759.17289546	756.216405367	1.5	0.1
0.01	1	0.295964304999984	1	102	NA	19.787350798	0	0.16	0.16	1	12.728582784	13.024547089	"2"	759.17289546	756.216405367	1.5	0.1
0.01	1	0.306802273000017	1	102	NA	19.787350798	0	0.16	0.16	1	13.262837367	13.56963964	"2"	759.17289546	756.216405367	1.5	0.1
0.01	1	0.347539973000039	1	102	NA	19.787350798	0	0.16	0.16	1	13.797039719	14.144579692	"2"	759.17289546	756.216405367	1.5	0.1
0.01	1	0.372359458999995	1	102	NA	19.787350798	0	0.16	0.16	1	14.381418554	14.753778013	"2"	759.17289546	756.216405367	1.5	0.1
0.01	1	3.83598088200006	1	102	NA	19.787350798	0	0.16	0.16	1	14.982335464	18.818316346	"2"	759.17289546	756.216405367	1.5	0.1
0.01	1	0.729830375999995	2	102	NA	19.787350798	0	0.16	0.16	1	19.055888196	19.785718572	"2"	759.17289546	756.216405367	1.5	0.1
0.01	1	1.60022471299999	1	97	NA	28.075759896	0	0.14	0.3	1	21.810461309	23.410686022	"3"	759.17289546	756.216405367	1.5	0.1
0.01	1	0.0593028910000157	1	97	NA	28.075759896	0	0.14	0.3	1	23.646932121	23.706235012	"3"	759.17289546	756.216405367	1.5	0.1
0.01	1	0.00458022999998775	1	97	NA	28.075759896	0	0.14	0.3	1	23.9307464290001	23.9353266590001	"3"	759.17289546	756.216405367	1.5	0.1
0.01	1	0.0619113090000383	1	97	NA	28.075759896	0	0.14	0.3	1	24.164416734	24.226328043	"3"	759.17289546	756.216405367	1.5	0.1
0.01	1	0.0993086980000726	1	97	NA	28.075759896	0	0.14	0.3	1	24.448274436	24.547583134	"3"	759.17289546	756.216405367	1.5	0.1
0.01	1	0.00445912999998654	1	97	NA	28.075759896	0	0.14	0.3	1	24.7821707790001	24.7866299090001	"3"	759.17289546	756.216405367	1.5	0.1
0.01	1	0.0666362659999322	1	97	NA	28.075759896	0	0.14	0.3	1	25.0158381740001	25.08247444	"3"	759.17289546	756.216405367	1.5	0.1
0.01	1	0.00337651600000299	1	97	NA	28.075759896	0	0.14	0.3	1	25.316348936	25.319725452	"3"	759.17289546	756.216405367	1.5	0.1
0.01	1	0.0917065319999892	1	97	NA	28.075759896	0	0.14	0.3	1	25.550234554	25.641941086	"3"	759.17289546	756.216405367	1.5	0.1
0.01	1	0.00393414499990286	1	97	NA	28.075759896	0	0.14	0.3	1	25.8674220890001	25.871356234	"3"	759.17289546	756.216405367	1.5	0.1
0.01	1	0.00393410399999539	1	97	NA	28.075759896	0	0.14	0.3	1	26.101037534	26.104971638	"3"	759.17289546	756.216405367	1.5	0.1
0.01	1	0.107348637999962	1	97	NA	28.075759896	0	0.14	0.3	1	26.334772644	26.442121282	"3"	759.17289546	756.216405367	1.5	0.1
0.01	1	0.00426399199989191	1	97	NA	28.075759896	0	0.14	0.3	1	26.6687782220001	26.673042214	"3"	759.17289546	756.216405367	1.5	0.1
0.01	1	0.0764072409999699	1	97	NA	28.075759896	0	0.14	0.3	1	26.902419779	26.97882702	"3"	759.17289546	756.216405367	1.5	0.1
0.01	1	0.854493940999987	2	97	NA	28.075759896	0	0.14	0.3	1	27.2195915190001	28.07408546	"3"	759.17289546	756.216405367	1.5	0.1
0.01	1	1.29619120699999	1	51	NA	39.142538181	0	0.21	0.51	1	30.107764929	31.403956136	"4"	759.17289546	756.216405367	1.5	0.1
0.01	1	0.12001713199993	1	51	NA	39.142538181	0	0.21	0.51	1	31.6437700440001	31.763787176	"4"	759.17289546	756.216405367	1.5	0.1
0.01	1	0.00466661500001919	1	51	NA	39.142538181	0	0.21	0.51	1	31.994330109	31.9989967240001	"4"	759.17289546	756.216405367	1.5	0.1
0.01	1	0.00383856799999194	1	51	NA	39.142538181	0	0.21	0.51	1	32.227984704	32.231823272	"4"	759.17289546	756.216405367	1.5	0.1
0.01	1	0.119810201000064	1	51	NA	39.142538181	0	0.21	0.51	1	32.461691456	32.581501657	"4"	759.17289546	756.216405367	1.5	0.1
0.01	1	0.00390608899999734	1	51	NA	39.142538181	0	0.21	0.51	1	32.812379581	32.81628567	"4"	759.17289546	756.216405367	1.5	0.1
0.01	1	0.00396791800005758	1	51	NA	39.142538181	0	0.21	0.51	1	33.046210866	33.050178784	"4"	759.17289546	756.216405367	1.5	0.1
0.01	1	0.00386347699998169	1	51	NA	39.142538181	0	0.21	0.51	1	33.279909831	33.283773308	"4"	759.17289546	756.216405367	1.5	0.1
0.01	1	0.00381720099994709	1	51	NA	39.142538181	0	0.21	0.51	1	33.513554669	33.51737187	"4"	759.17289546	756.216405367	1.5	0.1
0.01	1	0.12186989700001	1	51	NA	39.142538181	0	0.21	0.51	1	33.7471710840001	33.8690409810001	"4"	759.17289546	756.216405367	1.5	0.1
0.01	1	0.00457118199994966	1	51	NA	39.142538181	0	0.21	0.51	1	34.097854109	34.102425291	"4"	759.17289546	756.216405367	1.5	0.1
0.01	1	0.00424373600003491	1	51	NA	39.142538181	0	0.21	0.51	1	34.331537653	34.335781389	"4"	759.17289546	756.216405367	1.5	0.1
0.01	1	0.134372529000075	1	51	NA	39.142538181	0	0.21	0.51	1	34.565342134	34.6997146630001	"4"	759.17289546	756.216405367	1.5	0.1
0.01	1	0.00370045200008917	1	51	NA	39.142538181	0	0.21	0.51	1	34.932498954	34.9361994060001	"4"	759.17289546	756.216405367	1.5	0.1
0.01	1	0.00385913200000232	1	51	NA	39.142538181	0	0.21	0.51	1	35.166300684	35.170159816	"4"	759.17289546	756.216405367	1.5	0.1
0.01	1	0.099790553000048	1	51	NA	39.142538181	0	0.21	0.51	1	35.400062664	35.4998532170001	"4"	759.17289546	756.216405367	1.5	0.1
0.01	1	0.00452672199992321	1	51	NA	39.142538181	0	0.21	0.51	1	35.7339161190001	35.738442841	"4"	759.17289546	756.216405367	1.5	0.1
0.01	1	0.00381863400002658	1	51	NA	39.142538181	0	0.21	0.51	1	35.967751386	35.97157002	"4"	759.17289546	756.216405367	1.5	0.1
0.01	1	0.522399248999932	1	51	NA	39.142538181	0	0.21	0.51	1	36.201407294	36.723806543	"4"	759.17289546	756.216405367	1.5	0.1
0.01	1	0.332609858000069	1	51	NA	39.142538181	0	0.21	0.51	1	36.952607344	37.2852172020001	"4"	759.17289546	756.216405367	1.5	0.1
0.01	1	0.396447654999974	1	51	NA	39.142538181	0	0.21	0.51	1	37.520385019	37.916832674	"4"	759.17289546	756.216405367	1.5	0.1
0.01	1	0.986232771000005	2	51	NA	39.142538181	0	0.21	0.51	1	38.154625679	39.1408584500001	"4"	759.17289546	756.216405367	1.5	0.1
0.01	1	1.28449501799992	1	116	NA	53.462092122	0	0.37	0.88	1	41.1764703210001	42.460965339	"5"	759.17289546	756.216405367	1.5	0.1
0.01	1	0.171874332000016	1	116	NA	53.462092122	0	0.37	0.88	1	42.695709734	42.867584066	"5"	759.17289546	756.216405367	1.5	0.1
0.01	1	0.0998751949999814	1	116	NA	53.462092122	0	0.37	0.88	1	43.096369881	43.196245076	"5"	759.17289546	756.216405367	1.5	0.1
0.01	1	0.11888038699999	1	116	NA	53.462092122	0	0.37	0.88	1	43.430248609	43.549128996	"5"	759.17289546	756.216405367	1.5	0.1
0.01	1	0.15859801900001	1	116	NA	53.462092122	0	0.37	0.88	1	43.780901249	43.939499268	"5"	759.17289546	756.216405367	1.5	0.1
0.01	1	0.104615240999919	1	116	NA	53.462092122	0	0.37	0.88	1	44.1647145810001	44.269329822	"5"	759.17289546	756.216405367	1.5	0.1
0.01	1	0.113420003999977	1	116	NA	53.462092122	0	0.37	0.88	1	44.498681361	44.612101365	"5"	759.17289546	756.216405367	1.5	0.1
0.01	1	0.0982768900000792	1	116	NA	53.462092122	0	0.37	0.88	1	44.849275614	44.947552504	"5"	759.17289546	756.216405367	1.5	0.1
0.01	1	0.142154403999939	1	116	NA	53.462092122	0	0.37	0.88	1	45.183187924	45.325342328	"5"	759.17289546	756.216405367	1.5	0.1
0.01	1	0.141656952000062	1	116	NA	53.462092122	0	0.37	0.88	1	45.550409624	45.6920665760001	"5"	759.17289546	756.216405367	1.5	0.1
0.01	1	0.126941008000017	1	116	NA	53.462092122	0	0.37	0.88	1	45.917702574	46.044643582	"5"	759.17289546	756.216405367	1.5	0.1
0.01	1	0.0557338280000295	1	116	NA	53.462092122	0	0.37	0.88	1	46.285072311	46.340806139	"5"	759.17289546	756.216405367	1.5	0.1
0.01	1	0.0755451339999809	1	116	NA	53.462092122	0	0.37	0.88	1	46.568725914	46.644271048	"5"	759.17289546	756.216405367	1.5	0.1
0.01	1	0.0231265840000106	1	116	NA	53.462092122	0	0.37	0.88	1	46.869377014	46.892503598	"5"	759.17289546	756.216405367	1.5	0.1
0.01	1	0.0537012380000306	1	116	NA	53.462092122	0	0.37	0.88	1	47.119787871	47.1734891090001	"5"	759.17289546	756.216405367	1.5	0.1
0.01	1	0.0399907959999837	1	116	NA	53.462092122	0	0.37	0.88	1	47.403530481	47.443521277	"5"	759.17289546	756.216405367	1.5	0.1
0.01	1	0.0370437349999975	1	116	NA	53.462092122	0	0.37	0.88	1	47.670642599	47.707686334	"5"	759.17289546	756.216405367	1.5	0.1
0.01	1	0.0111266320000141	1	116	NA	53.462092122	0	0.37	0.88	1	47.937834591	47.948961223	"5"	759.17289546	756.216405367	1.5	0.1
0.01	1	0.0408910999999534	1	116	NA	53.462092122	0	0.37	0.88	1	48.171422994	48.212314094	"5"	759.17289546	756.216405367	1.5	0.1
0.01	1	0.0135308449999911	1	116	NA	53.462092122	0	0.37	0.88	1	48.438591456	48.452122301	"5"	759.17289546	756.216405367	1.5	0.1
0.01	1	0.00360868500001743	1	116	NA	53.462092122	0	0.37	0.88	1	48.689118521	48.692727206	"5"	759.17289546	756.216405367	1.5	0.1
0.01	1	0.0343377720000717	1	116	NA	53.462092122	0	0.37	0.88	1	48.922903461	48.957241233	"5"	759.17289546	756.216405367	1.5	0.1
0.01	1	0.00311101800002689	1	116	NA	53.462092122	0	0.37	0.88	1	49.189904202	49.1930152200001	"5"	759.17289546	756.216405367	1.5	0.1
0.01	1	0.00454716199999439	1	116	NA	53.462092122	0	0.37	0.88	1	49.423694129	49.428241291	"5"	759.17289546	756.216405367	1.5	0.1
0.01	1	0.00386814400008006	1	116	NA	53.462092122	0	0.37	0.88	1	49.657359204	49.6612273480001	"5"	759.17289546	756.216405367	1.5	0.1
0.01	1	0.00456788000008146	1	116	NA	53.462092122	0	0.37	0.88	1	49.891109504	49.8956773840001	"5"	759.17289546	756.216405367	1.5	0.1
0.01	1	0.00461577999999463	1	116	NA	53.462092122	0	0.37	0.88	1	50.124828984	50.129444764	"5"	759.17289546	756.216405367	1.5	0.1
0.01	1	0.0038302709999698	1	116	NA	53.462092122	0	0.37	0.88	1	50.358646909	50.36247718	"5"	759.17289546	756.216405367	1.5	0.1
0.01	1	0.0038988880000943	1	116	NA	53.462092122	0	0.37	0.88	1	50.592319834	50.5962187220001	"5"	759.17289546	756.216405367	1.5	0.1
0.01	1	0.00376213300000927	1	116	NA	53.462092122	0	0.37	0.88	1	50.825963661	50.829725794	"5"	759.17289546	756.216405367	1.5	0.1
0.01	1	0.00459028000000217	1	116	NA	53.462092122	0	0.37	0.88	1	51.059795579	51.064385859	"5"	759.17289546	756.216405367	1.5	0.1
0.01	1	0.00376175400003831	1	116	NA	53.462092122	0	0.37	0.88	1	51.293462044	51.2972237980001	"5"	759.17289546	756.216405367	1.5	0.1
0.01	1	0.00200077400006649	1	116	NA	53.462092122	0	0.37	0.88	1	51.527222828	51.5292236020001	"5"	759.17289546	756.216405367	1.5	0.1
0.01	1	0.00214900799994666	1	116	NA	53.462092122	0	0.37	0.88	1	51.760782674	51.762931682	"5"	759.17289546	756.216405367	1.5	0.1
0.01	1	0.00394176300005711	1	116	NA	53.462092122	0	0.37	0.88	1	51.994658531	51.998600294	"5"	759.17289546	756.216405367	1.5	0.1
0.01	1	0.00961623699993197	1	116	NA	53.462092122	0	0.37	0.88	1	52.228413091	52.238029328	"5"	759.17289546	756.216405367	1.5	0.1
0.01	1	0.0300231090000125	1	116	NA	53.462092122	0	0.37	0.88	1	52.462019651	52.4920427600001	"5"	759.17289546	756.216405367	1.5	0.1
0.01	1	0.731217059999949	2	116	NA	53.462092122	0	0.37	0.88	1	52.729291419	53.460508479	"5"	759.17289546	756.216405367	1.5	0.1
0.01	1	0.967242585000008	1	118	NA	62.47759508	0	0.08	0.96	1	55.517278716	56.484521301	"6"	759.17289546	756.216405367	1.5	0.1
0.01	1	0.654316367999968	1	118	NA	62.47759508	0	0.08	0.96	1	56.7192794440001	57.373595812	"6"	759.17289546	756.216405367	1.5	0.1
0.01	1	0.496844408000015	1	118	NA	62.47759508	0	0.08	0.96	1	57.604081734	58.100926142	"6"	759.17289546	756.216405367	1.5	0.1
0.01	1	0.416884232999905	1	118	NA	62.47759508	0	0.08	0.96	1	58.3386197190001	58.755503952	"6"	759.17289546	756.216405367	1.5	0.1
0.01	1	0.40759120000007	1	118	NA	62.47759508	0	0.08	0.96	1	58.989745919	59.397337119	"6"	759.17289546	756.216405367	1.5	0.1
0.01	1	0.748528827999962	1	118	NA	62.47759508	0	0.08	0.96	1	59.624111001	60.372639829	"6"	759.17289546	756.216405367	1.5	0.1
0.01	1	0.386511937999899	1	118	NA	62.47759508	0	0.08	0.96	1	60.6091866790001	60.995698617	"6"	759.17289546	756.216405367	1.5	0.1
0.01	1	0.305001045999916	1	118	NA	62.47759508	0	0.08	0.96	1	61.2268239860001	61.531825032	"6"	759.17289546	756.216405367	1.5	0.1
0.01	1	0.714995381999984	2	118	NA	62.47759508	0	0.08	0.96	1	61.761048224	62.476043606	"6"	759.17289546	756.216405367	1.5	0.1
0.01	1	0.952374276	1	87	NA	69.5334621380001	0	0.06	1.02	1	64.532324349	65.484698625	"7"	759.17289546	756.216405367	1.5	0.1
0.01	1	0.478154246000031	1	87	NA	69.5334621380001	0	0.06	1.02	1	65.717805299	66.195959545	"7"	759.17289546	756.216405367	1.5	0.1
0.01	1	0.385015512999985	1	87	NA	69.5334621380001	0	0.06	1.02	1	66.4189122760001	66.8039277890001	"7"	759.17289546	756.216405367	1.5	0.1
0.01	1	0.344781287000046	1	87	NA	69.5334621380001	0	0.06	1.02	1	67.036536699	67.3813179860001	"7"	759.17289546	756.216405367	1.5	0.1
0.01	1	0.321405593000009	1	87	NA	69.5334621380001	0	0.06	1.02	1	67.604202361	67.925607954	"7"	759.17289546	756.216405367	1.5	0.1
0.01	1	0.929067287000066	1	87	NA	69.5334621380001	0	0.06	1.02	1	68.155150433	69.08421772	"7"	759.17289546	756.216405367	1.5	0.1
0.01	1	0.208089976999986	2	87	NA	69.5334621380001	0	0.06	1.02	1	69.323802549	69.531892526	"7"	759.17289546	756.216405367	1.5	0.1
0.01	1	2.15299830699996	1	6	NA	75.549020501	0	0.02	1.04	1	71.577630509	73.730628816	"8"	759.17289546	756.216405367	1.5	0.1
0.01	1	0.534215003999975	1	6	NA	75.549020501	0	0.02	1.04	1	73.964935374	74.499150378	"8"	759.17289546	756.216405367	1.5	0.1
0.01	1	0.814544647999924	2	6	NA	75.549020501	0	0.02	1.04	1	74.732911189	75.547455837	"8"	759.17289546	756.216405367	1.5	0.1
0.01	1	0.566384432999939	1	106	NA	84.084191748	0	0.19	1.23	1	77.604368541	78.170752974	"9"	759.17289546	756.216405367	1.5	0.1
0.01	1	0.00459613200007425	1	106	NA	84.084191748	0	0.19	1.23	1	78.405743149	78.4103392810001	"9"	759.17289546	756.216405367	1.5	0.1
0.01	1	0.115684794999993	1	106	NA	84.084191748	0	0.19	1.23	1	78.639421433	78.755106228	"9"	759.17289546	756.216405367	1.5	0.1
0.01	1	0.00389739299998837	1	106	NA	84.084191748	0	0.19	1.23	1	78.9900183190001	78.993915712	"9"	759.17289546	756.216405367	1.5	0.1
0.01	1	0.122521097000003	1	106	NA	84.084191748	0	0.19	1.23	1	79.223747969	79.346269066	"9"	759.17289546	756.216405367	1.5	0.1
0.01	1	0.00198316499995599	1	106	NA	84.084191748	0	0.19	1.23	1	79.5743143510001	79.576297516	"9"	759.17289546	756.216405367	1.5	0.1
0.01	1	0.0987186520000023	1	106	NA	84.084191748	0	0.19	1.23	1	79.808084854	79.906803506	"9"	759.17289546	756.216405367	1.5	0.1
0.01	1	0.00199000800000704	1	106	NA	84.084191748	0	0.19	1.23	1	80.14200475	80.143994758	"9"	759.17289546	756.216405367	1.5	0.1
0.01	1	0.00447346700002527	1	106	NA	84.084191748	0	0.19	1.23	1	80.375706264	80.3801797310001	"9"	759.17289546	756.216405367	1.5	0.1
0.01	1	0.12901852899995	1	106	NA	84.084191748	0	0.19	1.23	1	80.6094322110001	80.73845074	"9"	759.17289546	756.216405367	1.5	0.1
0.01	1	0.00209578000010424	1	106	NA	84.084191748	0	0.19	1.23	1	80.9600199	80.9621156800001	"9"	759.17289546	756.216405367	1.5	0.1
0.01	1	0.00196860399989873	1	106	NA	84.084191748	0	0.19	1.23	1	81.1937550430001	81.195723647	"9"	759.17289546	756.216405367	1.5	0.1
0.01	1	0.0948219849999532	1	106	NA	84.084191748	0	0.19	1.23	1	81.427399929	81.522221914	"9"	759.17289546	756.216405367	1.5	0.1
0.01	1	0.00290860699999484	1	106	NA	84.084191748	0	0.19	1.23	1	81.744611702	81.747520309	"9"	759.17289546	756.216405367	1.5	0.1
0.01	1	0.00205458199991426	1	106	NA	84.084191748	0	0.19	1.23	1	81.9784231420001	81.980477724	"9"	759.17289546	756.216405367	1.5	0.1
0.01	1	0.00448050499994679	1	106	NA	84.084191748	0	0.19	1.23	1	82.2121762690001	82.216656774	"9"	759.17289546	756.216405367	1.5	0.1
0.01	1	0.0687871620000351	1	106	NA	84.084191748	0	0.19	1.23	1	82.445820704	82.5146078660001	"9"	759.17289546	756.216405367	1.5	0.1
0.01	1	0.0249280379999846	1	106	NA	84.084191748	0	0.19	1.23	1	82.746393014	82.771321052	"9"	759.17289546	756.216405367	1.5	0.1
0.01	1	0.00384167099991828	1	106	NA	84.084191748	0	0.19	1.23	1	82.9967948410001	83.000636512	"9"	759.17289546	756.216405367	1.5	0.1
0.01	1	0.852191579000078	2	106	NA	84.084191748	0	0.19	1.23	1	83.230488064	84.0826796430001	"9"	759.17289546	756.216405367	1.5	0.1
0.01	1	0.652129692000017	1	21	NA	94.140366941	0	0.1	1.33	1	86.135402439	86.787532131	"10"	759.17289546	756.216405367	1.5	0.1
0.01	1	1.175200765	1	21	NA	94.140366941	0	0.1	1.33	1	87.020215609	88.195416374	"10"	759.17289546	756.216405367	1.5	0.1
0.01	1	0.884854117000032	1	21	NA	94.140366941	0	0.1	1.33	1	88.422743844	89.307597961	"10"	759.17289546	756.216405367	1.5	0.1
0.01	1	0.253302770000005	1	21	NA	94.140366941	0	0.1	1.33	1	89.541118189	89.794420959	"10"	759.17289546	756.216405367	1.5	0.1
0.01	1	0.226054238000074	1	21	NA	94.140366941	0	0.1	1.33	1	90.025298194	90.251352432	"10"	759.17289546	756.216405367	1.5	0.1
0.01	1	0.35856052500003	1	21	NA	94.140366941	0	0.1	1.33	1	90.476032064	90.834592589	"10"	759.17289546	756.216405367	1.5	0.1
0.01	1	0.294021065000038	1	21	NA	94.140366941	0	0.1	1.33	1	91.060307269	91.3543283340001	"10"	759.17289546	756.216405367	1.5	0.1
0.01	1	0.318459537999956	1	21	NA	94.140366941	0	0.1	1.33	1	91.5779995140001	91.896459052	"10"	759.17289546	756.216405367	1.5	0.1
0.01	1	0.371090731999971	1	21	NA	94.140366941	0	0.1	1.33	1	92.128825931	92.499916663	"10"	759.17289546	756.216405367	1.5	0.1
0.01	1	0.649482304999992	1	21	NA	94.140366941	0	0.1	1.33	1	92.729869106	93.379351411	"10"	759.17289546	756.216405367	1.5	0.1
0.01	1	0.524150577	2	21	NA	94.140366941	0	0.1	1.33	1	93.614656582	94.138807159	"10"	759.17289546	756.216405367	1.5	0.1
0.01	1	0.466879125999981	1	19	NA	100.196753241	0	0.05	1.38	1	96.168912484	96.63579161	"11"	759.17289546	756.216405367	1.5	0.1
0.01	1	0.428586055999972	1	19	NA	100.196753241	0	0.05	1.38	1	96.870211854	97.29879791	"11"	759.17289546	756.216405367	1.5	0.1
0.01	1	0.313990935999982	1	19	NA	100.196753241	0	0.05	1.38	1	97.521260683	97.835251619	"11"	759.17289546	756.216405367	1.5	0.1
0.01	1	0.315955841999994	1	19	NA	100.196753241	0	0.05	1.38	1	98.0721667890001	98.388122631	"11"	759.17289546	756.216405367	1.5	0.1
0.01	1	0.284992511999917	1	19	NA	100.196753241	0	0.05	1.38	1	98.6230991740001	98.908091686	"11"	759.17289546	756.216405367	1.5	0.1
0.01	1	1.05451270200001	2	19	NA	100.196753241	0	0.05	1.38	1	99.140649846	100.195162548	"11"	759.17289546	756.216405367	1.5	0.1
0.01	1	0.56590848899998	1	63	NA	113.232509819	0	0.1	1.48	1	102.245827874	102.811736363	"12"	759.17289546	756.216405367	1.5	0.1
0.01	1	0.996698827999921	1	63	NA	113.232509819	0	0.1	1.48	1	103.047369894	104.044068722	"12"	759.17289546	756.216405367	1.5	0.1
0.01	1	0.432811250999976	1	63	NA	113.232509819	0	0.1	1.48	1	104.282589589	104.71540084	"12"	759.17289546	756.216405367	1.5	0.1
0.01	1	0.372315689000061	1	63	NA	113.232509819	0	0.1	1.48	1	104.950457591	105.32277328	"12"	759.17289546	756.216405367	1.5	0.1
0.01	1	0.387179118999939	1	63	NA	113.232509819	0	0.1	1.48	1	105.551394599	105.938573718	"12"	759.17289546	756.216405367	1.5	0.1
0.01	1	3.35712118599997	1	63	NA	113.232509819	0	0.1	1.48	1	106.169101323	109.526222509	"12"	759.17289546	756.216405367	1.5	0.1
0.01	1	0.438731286000007	1	63	NA	113.232509819	0	0.1	1.48	1	109.758519406	110.197250692	"12"	759.17289546	756.216405367	1.5	0.1
0.01	1	0.410795637999968	1	63	NA	113.232509819	0	0.1	1.48	1	110.426288614	110.837084252	"12"	759.17289546	756.216405367	1.5	0.1
0.01	1	0.392760606000024	1	63	NA	113.232509819	0	0.1	1.48	1	111.060711519	111.453472125	"12"	759.17289546	756.216405367	1.5	0.1
0.01	1	0.423259756999983	1	63	NA	113.232509819	0	0.1	1.48	1	111.678351836	112.101611593	"12"	759.17289546	756.216405367	1.5	0.1
0.01	1	0.901437510000051	2	63	NA	113.232509819	0	0.1	1.48	1	112.329512071	113.230949581	"12"	759.17289546	756.216405367	1.5	0.1
0.01	1	0.609323216999996	1	54	NA	119.991343705	0	0.11	1.59	1	115.284404684	115.893727901	"13"	759.17289546	756.216405367	1.5	0.1
0.01	1	0.487015005999979	1	54	NA	119.991343705	0	0.11	1.59	1	116.119273364	116.60628837	"13"	759.17289546	756.216405367	1.5	0.1
0.01	1	0.201625077000017	1	54	NA	119.991343705	0	0.11	1.59	1	116.837052034	117.038677111	"13"	759.17289546	756.216405367	1.5	0.1
0.01	1	0.00210338299996238	1	54	NA	119.991343705	0	0.11	1.59	1	117.271129046	117.273232429	"13"	759.17289546	756.216405367	1.5	0.1
0.01	1	0.00428257099997609	1	54	NA	119.991343705	0	0.11	1.59	1	117.504845043	117.509127614	"13"	759.17289546	756.216405367	1.5	0.1
0.01	1	0.0999293459999535	1	54	NA	119.991343705	0	0.11	1.59	1	117.738597456	117.838526802	"13"	759.17289546	756.216405367	1.5	0.1
0.01	1	0.00459442999999737	1	54	NA	119.991343705	0	0.11	1.59	1	118.072527149	118.077121579	"13"	759.17289546	756.216405367	1.5	0.1
0.01	1	0.115365634999989	1	54	NA	119.991343705	0	0.11	1.59	1	118.306239001	118.421604636	"13"	759.17289546	756.216405367	1.5	0.1
0.01	1	0.00203734299998359	1	54	NA	119.991343705	0	0.11	1.59	1	118.656800186	118.658837529	"13"	759.17289546	756.216405367	1.5	0.1
0.01	1	0.122885053999994	1	54	NA	119.991343705	0	0.11	1.59	1	118.890462151	119.013347205	"13"	759.17289546	756.216405367	1.5	0.1
0.01	1	0.00201599499996519	1	54	NA	119.991343705	0	0.11	1.59	1	119.241118374	119.243134369	"13"	759.17289546	756.216405367	1.5	0.1
0.01	1	0.515027004999979	2	54	NA	119.991343705	0	0.11	1.59	1	119.474736631	119.989763636	"13"	759.17289546	756.216405367	1.5	0.1
0.01	1	0.479706353999973	1	103	NA	127.072527792	0	0.12	1.71	1	122.045887184	122.525593538	"14"	759.17289546	756.216405367	1.5	0.1
0.01	1	0.40221897999993	1	103	NA	127.072527792	0	0.12	1.71	1	122.763639379	123.165858359	"14"	759.17289546	756.216405367	1.5	0.1
0.01	1	0.264883317999988	1	103	NA	127.072527792	0	0.12	1.71	1	123.398124324	123.663007642	"14"	759.17289546	756.216405367	1.5	0.1
0.01	1	0.131779399000038	1	103	NA	127.072527792	0	0.12	1.71	1	123.898916814	124.030696213	"14"	759.17289546	756.216405367	1.5	0.1
0.01	1	0.00199573499992312	1	103	NA	127.072527792	0	0.12	1.71	1	124.266226114	124.268221849	"14"	759.17289546	756.216405367	1.5	0.1
0.01	1	0.00383101900001748	1	103	NA	127.072527792	0	0.12	1.71	1	124.499999299	124.503830318	"14"	759.17289546	756.216405367	1.5	0.1
0.01	1	0.12108519800006	1	103	NA	127.072527792	0	0.12	1.71	1	124.733690664	124.854775862	"14"	759.17289546	756.216405367	1.5	0.1
0.01	1	0.00463762000003953	1	103	NA	127.072527792	0	0.12	1.71	1	125.084340084	125.088977704	"14"	759.17289546	756.216405367	1.5	0.1
0.01	1	0.12856005499998	1	103	NA	127.072527792	0	0.12	1.71	1	125.317967881	125.446527936	"14"	759.17289546	756.216405367	1.5	0.1
0.01	1	0.00210443699995722	1	103	NA	127.072527792	0	0.12	1.71	1	125.685230214	125.687334651	"14"	759.17289546	756.216405367	1.5	0.1
0.01	1	0.111653782000076	1	103	NA	127.072527792	0	0.12	1.71	1	125.91908045	126.030734232	"14"	759.17289546	756.216405367	1.5	0.1
0.01	1	0.00463774500008185	1	103	NA	127.072527792	0	0.12	1.71	1	126.252901714	126.257539459	"14"	759.17289546	756.216405367	1.5	0.1
0.01	1	0.584321529000022	2	103	NA	127.072527792	0	0.12	1.71	1	126.486652514	127.070974043	"14"	759.17289546	756.216405367	1.5	0.1
0.01	1	0.696735045999958	1	120	NA	132.759386179	0	0.09	1.8	1	129.124350031	129.821085077	"15"	759.17289546	756.216405367	1.5	0.1
0.01	1	0.0021839059999138	1	120	NA	132.759386179	0	0.09	1.8	1	130.059243338	130.061427244	"15"	759.17289546	756.216405367	1.5	0.1
0.01	1	0.00209881800003586	1	120	NA	132.759386179	0	0.09	1.8	1	130.293090988	130.295189806	"15"	759.17289546	756.216405367	1.5	0.1
0.01	1	0.00378818499996214	1	120	NA	132.759386179	0	0.09	1.8	1	130.526727939	130.530516124	"15"	759.17289546	756.216405367	1.5	0.1
0.01	1	0.102404432000071	1	120	NA	132.759386179	0	0.09	1.8	1	130.760445739	130.862850171	"15"	759.17289546	756.216405367	1.5	0.1
0.01	1	0.0020259640000404	1	120	NA	132.759386179	0	0.09	1.8	1	131.094358216	131.09638418	"15"	759.17289546	756.216405367	1.5	0.1
0.01	1	0.00386499600006118	1	120	NA	132.759386179	0	0.09	1.8	1	131.328081404	131.3319464	"15"	759.17289546	756.216405367	1.5	0.1
0.01	1	0.115814913000008	1	120	NA	132.759386179	0	0.09	1.8	1	131.561916819	131.677731732	"15"	759.17289546	756.216405367	1.5	0.1
0.01	1	0.00385983399996803	1	120	NA	132.759386179	0	0.09	1.8	1	131.912421294	131.916281128	"15"	759.17289546	756.216405367	1.5	0.1
0.01	1	0.611616432999995	2	120	NA	132.759386179	0	0.09	1.8	1	132.146239481	132.757855914	"15"	759.17289546	756.216405367	1.5	0.1
0.01	1	0.461039493000044	1	109	NA	137.870678106	0	0.03	1.83	1	134.800652929	135.261692422	"16"	759.17289546	756.216405367	1.5	0.1
0.01	1	1.00010023900006	1	109	NA	137.870678106	0	0.03	1.83	1	135.501843479	136.501943718	"16"	759.17289546	756.216405367	1.5	0.1
0.01	1	0.388633559000027	1	109	NA	137.870678106	0	0.03	1.83	1	136.737164479	137.125798038	"16"	759.17289546	756.216405367	1.5	0.1
0.01	1	0.51418825799999	2	109	NA	137.870678106	0	0.03	1.83	1	137.354903054	137.869091312	"16"	759.17289546	756.216405367	1.5	0.1
0.01	1	0.607290483999918	1	71	NA	141.902902112	0	0.01	1.84	1	139.925930009	140.533220493	"17"	759.17289546	756.216405367	1.5	0.1
0.01	1	1.14069307599993	2	71	NA	141.902902112	0	0.01	1.84	1	140.760590816	141.901283892	"17"	759.17289546	756.216405367	1.5	0.1
0.01	1	0.576731984000048	1	96	NA	149.54261879	0	0.12	1.96	1	143.949290923	144.526022907	"18"	759.17289546	756.216405367	1.5	0.1
0.01	1	0.0160389140000916	1	96	NA	149.54261879	0	0.12	1.96	1	144.750575721	144.766614635	"18"	759.17289546	756.216405367	1.5	0.1
0.01	1	0.00215803100002177	1	96	NA	149.54261879	0	0.12	1.96	1	145.001009642	145.003167673	"18"	759.17289546	756.216405367	1.5	0.1
0.01	1	0.00203378200001225	1	96	NA	149.54261879	0	0.12	1.96	1	145.234734327	145.236768109	"18"	759.17289546	756.216405367	1.5	0.1
0.01	1	0.0978616969999848	1	96	NA	149.54261879	0	0.12	1.96	1	145.468484503	145.5663462	"18"	759.17289546	756.216405367	1.5	0.1
0.01	1	0.00212804499994945	1	96	NA	149.54261879	0	0.12	1.96	1	145.80236984	145.804497885	"18"	759.17289546	756.216405367	1.5	0.1
0.01	1	0.114156740999988	1	96	NA	149.54261879	0	0.12	1.96	1	146.036126338	146.150283079	"18"	759.17289546	756.216405367	1.5	0.1
0.01	1	0.0038566539999465	1	96	NA	149.54261879	0	0.12	1.96	1	146.386760314	146.390616968	"18"	759.17289546	756.216405367	1.5	0.1
0.01	1	0.105601070000034	1	96	NA	149.54261879	0	0.12	1.96	1	146.62062788	146.72622895	"18"	759.17289546	756.216405367	1.5	0.1
0.01	1	1.05994251599998	1	96	NA	149.54261879	0	0.12	1.96	1	146.954503406	148.014445922	"18"	759.17289546	756.216405367	1.5	0.1
0.01	1	0.213203963999945	1	96	NA	149.54261879	0	0.12	1.96	1	148.240126404	148.453330368	"18"	759.17289546	756.216405367	1.5	0.1
0.01	1	0.283322387999988	1	96	NA	149.54261879	0	0.12	1.96	1	148.690733694	148.974056082	"18"	759.17289546	756.216405367	1.5	0.1
0.01	1	0.332750580999914	2	96	NA	149.54261879	0	0.12	1.96	1	149.208277104	149.541027685	"18"	759.17289546	756.216405367	1.5	0.1
0.01	1	1.37054270900001	1	91	NA	157.527309018	0	0.09	2.05	1	151.578899979	152.949442688	"19"	759.17289546	756.216405367	1.5	0.1
0.01	1	0.432511406000003	1	91	NA	157.527309018	0	0.09	2.05	1	153.181534194	153.6140456	"19"	759.17289546	756.216405367	1.5	0.1
0.01	1	0.293006487000071	1	91	NA	157.527309018	0	0.09	2.05	1	153.849355981	154.142362468	"19"	759.17289546	756.216405367	1.5	0.1
0.01	1	0.222553055999924	1	91	NA	157.527309018	0	0.09	2.05	1	154.366947516	154.589500572	"19"	759.17289546	756.216405367	1.5	0.1
0.01	1	0.164036978000013	1	91	NA	157.527309018	0	0.09	2.05	1	154.817646494	154.981683472	"19"	759.17289546	756.216405367	1.5	0.1
0.01	1	0.203714922000017	1	91	NA	157.527309018	0	0.09	2.05	1	155.218239184	155.421954106	"19"	759.17289546	756.216405367	1.5	0.1
0.01	1	0.273061081000037	1	91	NA	157.527309018	0	0.09	2.05	1	155.652473261	155.925534342	"19"	759.17289546	756.216405367	1.5	0.1
0.01	1	0.229359563999992	1	91	NA	157.527309018	0	0.09	2.05	1	156.153258976	156.38261854	"19"	759.17289546	756.216405367	1.5	0.1
0.01	1	0.217743676000055	1	91	NA	157.527309018	0	0.09	2.05	1	156.620604261	156.838347937	"19"	759.17289546	756.216405367	1.5	0.1
0.01	1	0.454459940999982	2	91	NA	157.527309018	0	0.09	2.05	1	157.071338319	157.52579826	"19"	759.17289546	756.216405367	1.5	0.1
0.01	1	0.823530540999968	1	5	161.548774254	NA	1	0	2.05	1	159.558958039	160.38248858	"20"	759.17289546	756.216405367	1.5	0.1
0.01	1	0.00196667199998046	1	5	161.548774254	NA	1	0	2.05	1	160.610690939	160.612657611	"20"	759.17289546	756.216405367	1.5	0.1
0.01	1	0.00376506199995674	1	5	161.548774254	NA	1	0	2.05	1	160.844497844	160.848262906	"20"	759.17289546	756.216405367	1.5	0.1
0.01	1	0.11880474499992	1	5	161.548774254	NA	1	0	2.05	1	161.078213344	161.197018089	"20"	759.17289546	756.216405367	1.5	0.1
0.01	1	0.00202687399996648	1	5	161.548774254	NA	1	0	2.05	1	161.428832384	161.430859258	"20"	759.17289546	756.216405367	1.5	0.1
0.01	1	1.43096918899994	1	123	NA	172.791479368	0	0.28	2.33	1	163.582338639	165.013307828	"21"	759.17289546	756.216405367	1.5	0.1
0.01	1	0.00430292100008955	1	123	NA	172.791479368	0	0.28	2.33	1	165.251792773	165.256095694	"21"	759.17289546	756.216405367	1.5	0.1
0.01	1	0.0723666180000464	1	123	NA	172.791479368	0	0.28	2.33	1	165.485602991	165.557969609	"21"	759.17289546	756.216405367	1.5	0.1
0.01	1	0.00450957500004279	1	123	NA	172.791479368	0	0.28	2.33	1	165.786027544	165.790537119	"21"	759.17289546	756.216405367	1.5	0.1
0.01	1	0.0264428020000196	1	123	NA	172.791479368	0	0.28	2.33	1	166.019752769	166.046195571	"21"	759.17289546	756.216405367	1.5	0.1
0.01	1	0.00385594600004424	1	123	NA	172.791479368	0	0.28	2.33	1	166.270151784	166.27400773	"21"	759.17289546	756.216405367	1.5	0.1
0.01	1	0.0369945699999334	1	123	NA	172.791479368	0	0.28	2.33	1	166.503962559	166.540957129	"21"	759.17289546	756.216405367	1.5	0.1
0.01	1	0.00375569699997413	1	123	NA	172.791479368	0	0.28	2.33	1	166.771051491	166.774807188	"21"	759.17289546	756.216405367	1.5	0.1
0.01	1	0.0412691809999615	1	123	NA	172.791479368	0	0.28	2.33	1	167.004733991	167.046003172	"21"	759.17289546	756.216405367	1.5	0.1
0.01	1	0.00381376500001807	1	123	NA	172.791479368	0	0.28	2.33	1	167.272021731	167.275835496	"21"	759.17289546	756.216405367	1.5	0.1
0.01	1	0.0604260159999512	1	123	NA	172.791479368	0	0.28	2.33	1	167.505594636	167.566020652	"21"	759.17289546	756.216405367	1.5	0.1
0.01	1	0.00391028300009566	1	123	NA	172.791479368	0	0.28	2.33	1	167.789376541	167.793286824	"21"	759.17289546	756.216405367	1.5	0.1
0.01	1	0.0556696300000112	1	123	NA	172.791479368	0	0.28	2.33	1	168.023125194	168.078794824	"21"	759.17289546	756.216405367	1.5	0.1
0.01	1	0.00437634100001105	1	123	NA	172.791479368	0	0.28	2.33	1	168.306965723	168.311342064	"21"	759.17289546	756.216405367	1.5	0.1
0.01	1	0.0660278120000157	1	123	NA	172.791479368	0	0.28	2.33	1	168.540761129	168.606788941	"21"	759.17289546	756.216405367	1.5	0.1
0.01	1	0.00391325800001141	1	123	NA	172.791479368	0	0.28	2.33	1	168.841245354	168.845158612	"21"	759.17289546	756.216405367	1.5	0.1
0.01	1	0.0759958959999949	1	123	NA	172.791479368	0	0.28	2.33	1	169.075003934	169.15099983	"21"	759.17289546	756.216405367	1.5	0.1
0.01	1	0.0037611159999642	1	123	NA	172.791479368	0	0.28	2.33	1	169.375513074	169.37927419	"21"	759.17289546	756.216405367	1.5	0.1
0.01	1	0.0531585380000479	1	123	NA	172.791479368	0	0.28	2.33	1	169.609182009	169.662340547	"21"	759.17289546	756.216405367	1.5	0.1
0.01	1	0.00206287099990732	1	123	NA	172.791479368	0	0.28	2.33	1	169.893077962	169.895140833	"21"	759.17289546	756.216405367	1.5	0.1
0.01	1	0.0799300919999268	1	123	NA	172.791479368	0	0.28	2.33	1	170.126837464	170.206767556	"21"	759.17289546	756.216405367	1.5	0.1
0.01	1	0.00202954999997473	1	123	NA	172.791479368	0	0.28	2.33	1	170.443895334	170.445924884	"21"	759.17289546	756.216405367	1.5	0.1
0.01	1	0.0812135520000083	1	123	NA	172.791479368	0	0.28	2.33	1	170.677669979	170.758883531	"21"	759.17289546	756.216405367	1.5	0.1
0.01	1	0.00456139499999608	1	123	NA	172.791479368	0	0.28	2.33	1	170.994966424	170.999527819	"21"	759.17289546	756.216405367	1.5	0.1
0.01	1	0.0963463589999947	1	123	NA	172.791479368	0	0.28	2.33	1	171.228644544	171.324990903	"21"	759.17289546	756.216405367	1.5	0.1
0.01	1	0.00430756899993412	1	123	NA	172.791479368	0	0.28	2.33	1	171.562407767	171.566715336	"21"	759.17289546	756.216405367	1.5	0.1
0.01	1	0.0661261359999799	1	123	NA	172.791479368	0	0.28	2.33	1	171.796232369	171.862358505	"21"	759.17289546	756.216405367	1.5	0.1
0.01	1	0.00437336100003449	1	123	NA	172.791479368	0	0.28	2.33	1	172.09663984	172.101013201	"21"	759.17289546	756.216405367	1.5	0.1
0.01	1	0.459420156999954	2	123	NA	172.791479368	0	0.28	2.33	1	172.330439664	172.789859821	"21"	759.17289546	756.216405367	1.5	0.1
0.01	1	0.66698704199996	1	81	NA	182.976339412	0	0.24	2.57	1	174.817986594	175.484973636	"22"	759.17289546	756.216405367	1.5	0.1
0.01	1	0.00404235599989988	1	81	NA	182.976339412	0	0.24	2.57	1	175.7194541	175.723496456	"22"	759.17289546	756.216405367	1.5	0.1
0.01	1	0.0523100049999812	1	81	NA	182.976339412	0	0.24	2.57	1	175.95312318	176.005433185	"22"	759.17289546	756.216405367	1.5	0.1
0.01	1	0.00453703499999847	1	81	NA	182.976339412	0	0.24	2.57	1	176.236958409	176.241495444	"22"	759.17289546	756.216405367	1.5	0.1
0.01	1	0.0702188809999598	1	81	NA	182.976339412	0	0.24	2.57	1	176.470770779	176.54098966	"22"	759.17289546	756.216405367	1.5	0.1
0.01	1	0.00387420000004113	1	81	NA	182.976339412	0	0.24	2.57	1	176.771273634	176.775147834	"22"	759.17289546	756.216405367	1.5	0.1
0.01	1	0.457600356999933	1	81	NA	182.976339412	0	0.24	2.57	1	177.004960044	177.462560401	"22"	759.17289546	756.216405367	1.5	0.1
0.01	1	0.00392628800000239	1	81	NA	182.976339412	0	0.24	2.57	1	177.689426734	177.693353022	"22"	759.17289546	756.216405367	1.5	0.1
0.01	1	0.0671211249999715	1	81	NA	182.976339412	0	0.24	2.57	1	177.923090939	177.990212064	"22"	759.17289546	756.216405367	1.5	0.1
0.01	1	0.0045233119999466	1	81	NA	182.976339412	0	0.24	2.57	1	178.223699829	178.228223141	"22"	759.17289546	756.216405367	1.5	0.1
0.01	1	0.0852282070000001	1	81	NA	182.976339412	0	0.24	2.57	1	178.457467679	178.542695886	"22"	759.17289546	756.216405367	1.5	0.1
0.01	1	0.00387279699998544	1	81	NA	182.976339412	0	0.24	2.57	1	178.774696489	178.778569286	"22"	759.17289546	756.216405367	1.5	0.1
0.01	1	0.0861564850000605	1	81	NA	182.976339412	0	0.24	2.57	1	179.008313376	179.094469861	"22"	759.17289546	756.216405367	1.5	0.1
0.01	1	0.00390623299995241	1	81	NA	182.976339412	0	0.24	2.57	1	179.325499749	179.329405982	"22"	759.17289546	756.216405367	1.5	0.1
0.01	1	0.0953888359999837	1	81	NA	182.976339412	0	0.24	2.57	1	179.559200774	179.65458961	"22"	759.17289546	756.216405367	1.5	0.1
0.01	1	0.00207077499999286	1	81	NA	182.976339412	0	0.24	2.57	1	179.876466349	179.878537124	"22"	759.17289546	756.216405367	1.5	0.1
0.01	1	0.00207551200003309	1	81	NA	182.976339412	0	0.24	2.57	1	180.110169179	180.112244691	"22"	759.17289546	756.216405367	1.5	0.1
0.01	1	0.125268369999958	1	81	NA	182.976339412	0	0.24	2.57	1	180.343919736	180.469188106	"22"	759.17289546	756.216405367	1.5	0.1
0.01	1	0.00390598000001319	1	81	NA	182.976339412	0	0.24	2.57	1	180.694508434	180.698414414	"22"	759.17289546	756.216405367	1.5	0.1
0.01	1	0.108643822999966	1	81	NA	182.976339412	0	0.24	2.57	1	180.928250074	181.036893897	"22"	759.17289546	756.216405367	1.5	0.1
0.01	1	0.00374428500003887	1	81	NA	182.976339412	0	0.24	2.57	1	181.262173409	181.265917694	"22"	759.17289546	756.216405367	1.5	0.1
0.01	1	0.102342054000019	1	81	NA	182.976339412	0	0.24	2.57	1	181.495875309	181.598217363	"22"	759.17289546	756.216405367	1.5	0.1
0.01	1	0.00387399500004904	1	81	NA	182.976339412	0	0.24	2.57	1	181.829749641	181.833623636	"22"	759.17289546	756.216405367	1.5	0.1
0.01	1	0.0545315479999999	1	81	NA	182.976339412	0	0.24	2.57	1	182.063456364	182.117987912	"22"	759.17289546	756.216405367	1.5	0.1
0.01	1	0.627422797999998	2	81	NA	182.976339412	0	0.24	2.57	1	182.347361244	182.974784042	"22"	759.17289546	756.216405367	1.5	0.1
0.01	1	0.348706603999972	1	117	NA	190.639395918	0	0.17	2.74	1	185.001767794	185.350474398	"23"	759.17289546	756.216405367	1.5	0.1
0.01	1	0.00386690499999531	1	117	NA	190.639395918	0	0.17	2.74	1	185.586112229	185.589979134	"23"	759.17289546	756.216405367	1.5	0.1
0.01	1	0.0671170089999578	1	117	NA	190.639395918	0	0.17	2.74	1	185.819741476	185.886858485	"23"	759.17289546	756.216405367	1.5	0.1
0.01	1	0.0020004919999792	1	117	NA	190.639395918	0	0.17	2.74	1	186.120370154	186.122370646	"23"	759.17289546	756.216405367	1.5	0.1
0.01	1	0.106956271999934	1	117	NA	190.639395918	0	0.17	2.74	1	186.354017194	186.460973466	"23"	759.17289546	756.216405367	1.5	0.1
0.01	1	0.00197521100005815	1	117	NA	190.639395918	0	0.17	2.74	1	186.687877689	186.6898529	"23"	759.17289546	756.216405367	1.5	0.1
0.01	1	0.123415215000023	1	117	NA	190.639395918	0	0.17	2.74	1	186.921563696	187.044978911	"23"	759.17289546	756.216405367	1.5	0.1
0.01	1	0.0021080860000211	1	117	NA	190.639395918	0	0.17	2.74	1	187.272166118	187.274274204	"23"	759.17289546	756.216405367	1.5	0.1
0.01	1	0.00441100000000461	1	117	NA	190.639395918	0	0.17	2.74	1	187.505945239	187.510356239	"23"	759.17289546	756.216405367	1.5	0.1
0.01	1	0.0975387560000627	1	117	NA	190.639395918	0	0.17	2.74	1	187.739689706	187.837228462	"23"	759.17289546	756.216405367	1.5	0.1
0.01	1	0.002041878	1	117	NA	190.639395918	0	0.17	2.74	1	188.073565764	188.075607642	"23"	759.17289546	756.216405367	1.5	0.1
0.01	1	0.00443581299998641	1	117	NA	190.639395918	0	0.17	2.74	1	188.307293556	188.311729369	"23"	759.17289546	756.216405367	1.5	0.1
0.01	1	0.120768871999985	1	117	NA	190.639395918	0	0.17	2.74	1	188.541056281	188.661825153	"23"	759.17289546	756.216405367	1.5	0.1
0.01	1	0.00208015400005479	1	117	NA	190.639395918	0	0.17	2.74	1	188.891713124	188.893793278	"23"	759.17289546	756.216405367	1.5	0.1
0.01	1	0.151834994000069	1	117	NA	190.639395918	0	0.17	2.74	1	189.125365749	189.277200743	"23"	759.17289546	756.216405367	1.5	0.1
0.01	1	0.0020653349999975	1	117	NA	190.639395918	0	0.17	2.74	1	189.509287949	189.511353284	"23"	759.17289546	756.216405367	1.5	0.1
0.01	1	0.118830310000021	1	117	NA	190.639395918	0	0.17	2.74	1	189.743051779	189.861882089	"23"	759.17289546	756.216405367	1.5	0.1
0.01	1	0.544203673000084	2	117	NA	190.639395918	0	0.17	2.74	1	190.093663889	190.637867562	"23"	759.17289546	756.216405367	1.5	0.1
0.01	1	0.173142974000029	1	84	NA	204.127361774	0	0.38	3.12	1	192.68135872	192.854501694	"24"	759.17289546	756.216405367	1.5	0.1
0.01	1	0.00450651500000276	1	84	NA	204.127361774	0	0.38	3.12	1	193.081994764	193.086501279	"24"	759.17289546	756.216405367	1.5	0.1
0.01	1	0.0822745730000634	1	84	NA	204.127361774	0	0.38	3.12	1	193.315655459	193.397930032	"24"	759.17289546	756.216405367	1.5	0.1
0.01	1	0.00205426599995917	1	84	NA	204.127361774	0	0.38	3.12	1	193.632893536	193.634947802	"24"	759.17289546	756.216405367	1.5	0.1
0.01	1	0.106890112000087	1	84	NA	204.127361774	0	0.38	3.12	1	193.866655839	193.973545951	"24"	759.17289546	756.216405367	1.5	0.1
0.01	1	0.00397101400005795	1	84	NA	204.127361774	0	0.38	3.12	1	194.200529894	194.204500908	"24"	759.17289546	756.216405367	1.5	0.1
0.01	1	0.091979680999998	1	84	NA	204.127361774	0	0.38	3.12	1	194.434346104	194.526325785	"24"	759.17289546	756.216405367	1.5	0.1
0.01	1	0.00384386799998993	1	84	NA	204.127361774	0	0.38	3.12	1	194.751468924	194.755312792	"24"	759.17289546	756.216405367	1.5	0.1
0.01	1	0.00369382899998527	1	84	NA	204.127361774	0	0.38	3.12	1	194.985280419	194.988974248	"24"	759.17289546	756.216405367	1.5	0.1
0.01	1	0.0836557220000032	1	84	NA	204.127361774	0	0.38	3.12	1	195.218925881	195.302581603	"24"	759.17289546	756.216405367	1.5	0.1
0.01	1	0.0019825109999374	1	84	NA	204.127361774	0	0.38	3.12	1	195.536139792	195.538122303	"24"	759.17289546	756.216405367	1.5	0.1
0.01	1	0.115637540999955	1	84	NA	204.127361774	0	0.38	3.12	1	195.769805121	195.885442662	"24"	759.17289546	756.216405367	1.5	0.1
0.01	1	0.00198801299995921	1	84	NA	204.127361774	0	0.38	3.12	1	196.120401184	196.122389197	"24"	759.17289546	756.216405367	1.5	0.1
0.01	1	0.00374606299999414	1	84	NA	204.127361774	0	0.38	3.12	1	196.354125961	196.357872024	"24"	759.17289546	756.216405367	1.5	0.1
0.01	1	0.0985746669999799	1	84	NA	204.127361774	0	0.38	3.12	1	196.587946171	196.686520838	"24"	759.17289546	756.216405367	1.5	0.1
0.01	1	0.0046705249999377	1	84	NA	204.127361774	0	0.38	3.12	1	196.921847869	196.926518394	"24"	759.17289546	756.216405367	1.5	0.1
0.01	1	0.115199727999993	1	84	NA	204.127361774	0	0.38	3.12	1	197.155588644	197.270788372	"24"	759.17289546	756.216405367	1.5	0.1
0.01	1	0.0114609979999614	1	84	NA	204.127361774	0	0.38	3.12	1	197.506143511	197.517604509	"24"	759.17289546	756.216405367	1.5	0.1
0.01	1	0.139185142999963	1	84	NA	204.127361774	0	0.38	3.12	1	197.739777979	197.878963122	"24"	759.17289546	756.216405367	1.5	0.1
0.01	1	0.00220927700001994	1	84	NA	204.127361774	0	0.38	3.12	1	198.107118114	198.109327391	"24"	759.17289546	756.216405367	1.5	0.1
0.01	1	0.00395134899997629	1	84	NA	204.127361774	0	0.38	3.12	1	198.340871619	198.344822968	"24"	759.17289546	756.216405367	1.5	0.1
0.01	1	0.111290022999924	1	84	NA	204.127361774	0	0.38	3.12	1	198.574588134	198.685878157	"24"	759.17289546	756.216405367	1.5	0.1
0.01	1	0.00229962900004921	1	84	NA	204.127361774	0	0.38	3.12	1	198.908480056	198.910779685	"24"	759.17289546	756.216405367	1.5	0.1
0.01	1	0.00262541300003249	1	84	NA	204.127361774	0	0.38	3.12	1	199.142375548	199.145000961	"24"	759.17289546	756.216405367	1.5	0.1
0.01	1	0.00397994200000085	1	84	NA	204.127361774	0	0.38	3.12	1	199.375921454	199.379901396	"24"	759.17289546	756.216405367	1.5	0.1
0.01	1	0.10905394100007	1	84	NA	204.127361774	0	0.38	3.12	1	199.609611391	199.718665332	"24"	759.17289546	756.216405367	1.5	0.1
0.01	1	0.00198972400005459	1	84	NA	204.127361774	0	0.38	3.12	1	199.943605751	199.945595475	"24"	759.17289546	756.216405367	1.5	0.1
0.01	1	0.003875930999925	1	84	NA	204.127361774	0	0.38	3.12	1	200.177268571	200.181144502	"24"	759.17289546	756.216405367	1.5	0.1
0.01	1	0.0037456810000549	1	84	NA	204.127361774	0	0.38	3.12	1	200.411038981	200.414784662	"24"	759.17289546	756.216405367	1.5	0.1
0.01	1	0.120913335999944	1	84	NA	204.127361774	0	0.38	3.12	1	200.644657114	200.76557045	"24"	759.17289546	756.216405367	1.5	0.1
0.01	1	0.00457898500008014	1	84	NA	204.127361774	0	0.38	3.12	1	200.995395289	200.999974274	"24"	759.17289546	756.216405367	1.5	0.1
0.01	1	0.00397789700002704	1	84	NA	204.127361774	0	0.38	3.12	1	201.229088431	201.233066328	"24"	759.17289546	756.216405367	1.5	0.1
0.01	1	0.0037642650000862	1	84	NA	204.127361774	0	0.38	3.12	1	201.462808299	201.466572564	"24"	759.17289546	756.216405367	1.5	0.1
0.01	1	0.117892274999917	1	84	NA	204.127361774	0	0.38	3.12	1	201.696509279	201.814401554	"24"	759.17289546	756.216405367	1.5	0.1
0.01	1	0.0462949899999785	1	84	NA	204.127361774	0	0.38	3.12	1	202.047087019	202.093382009	"24"	759.17289546	756.216405367	1.5	0.1
0.01	1	0.259219956999914	1	84	NA	204.127361774	0	0.38	3.12	1	202.330835019	202.590054976	"24"	759.17289546	756.216405367	1.5	0.1
0.01	1	0.191532800000004	1	84	NA	204.127361774	0	0.38	3.12	1	202.815074434	203.006607234	"24"	759.17289546	756.216405367	1.5	0.1
0.01	1	0.300651820999974	1	84	NA	204.127361774	0	0.38	3.12	1	203.232474039	203.53312586	"24"	759.17289546	756.216405367	1.5	0.1
0.01	1	0.359238553999944	2	84	NA	204.127361774	0	0.38	3.12	1	203.766578259	204.125816813	"24"	759.17289546	756.216405367	1.5	0.1
0.01	1	1.460707523	1	22	214.554666929	NA	1	0	3.12	1	206.153925856	207.614633379	"25"	759.17289546	756.216405367	1.5	0.1
0.01	1	0.444872807000024	1	22	214.554666929	NA	1	0	3.12	1	207.840324841	208.285197648	"25"	759.17289546	756.216405367	1.5	0.1
0.01	1	0.616817259000072	1	22	214.554666929	NA	1	0	3.12	1	208.524668504	209.141485763	"25"	759.17289546	756.216405367	1.5	0.1
0.01	1	0.00198708599998554	1	22	214.554666929	NA	1	0	3.12	1	209.37614547	209.378132556	"25"	759.17289546	756.216405367	1.5	0.1
0.01	1	0.0685065699999541	1	22	214.554666929	NA	1	0	3.12	1	209.609896693	209.678403263	"25"	759.17289546	756.216405367	1.5	0.1
0.01	1	0.0951926449999974	1	22	214.554666929	NA	1	0	3.12	1	209.910302741	210.005495386	"25"	759.17289546	756.216405367	1.5	0.1
0.01	1	0.0020159399999784	1	22	214.554666929	NA	1	0	3.12	1	210.227433309	210.229449249	"25"	759.17289546	756.216405367	1.5	0.1
0.01	1	0.0878691599999684	1	22	214.554666929	NA	1	0	3.12	1	210.461220199	210.549089359	"25"	759.17289546	756.216405367	1.5	0.1
0.01	1	0.00216641099996195	1	22	214.554666929	NA	1	0	3.12	1	210.778439168	210.780605579	"25"	759.17289546	756.216405367	1.5	0.1
0.01	1	0.0822193640000251	1	22	214.554666929	NA	1	0	3.12	1	211.012178874	211.094398238	"25"	759.17289546	756.216405367	1.5	0.1
0.01	1	0.00457854499995847	1	22	214.554666929	NA	1	0	3.12	1	211.329314844	211.333893389	"25"	759.17289546	756.216405367	1.5	0.1
0.01	1	0.106062435000013	1	22	214.554666929	NA	1	0	3.12	1	211.563053411	211.669115846	"25"	759.17289546	756.216405367	1.5	0.1
0.01	1	0.00375580399997943	1	22	214.554666929	NA	1	0	3.12	1	211.896995536	211.90075134	"25"	759.17289546	756.216405367	1.5	0.1
0.01	1	0.107821590999947	1	22	214.554666929	NA	1	0	3.12	1	212.130749811	212.238571402	"25"	759.17289546	756.216405367	1.5	0.1
0.01	1	0.00198289399997975	1	22	214.554666929	NA	1	0	3.12	1	212.464723386	212.46670628	"25"	759.17289546	756.216405367	1.5	0.1
0.01	1	0.0589265290000185	1	22	214.554666929	NA	1	0	3.12	1	212.698379994	212.757306523	"25"	759.17289546	756.216405367	1.5	0.1
0.01	1	0.00376788500000202	1	22	214.554666929	NA	1	0	3.12	1	212.982166899	212.985934784	"25"	759.17289546	756.216405367	1.5	0.1
0.01	1	0.0696010090000527	1	22	214.554666929	NA	1	0	3.12	1	213.215865116	213.285466125	"25"	759.17289546	756.216405367	1.5	0.1
0.01	1	0.00390336600003138	1	22	214.554666929	NA	1	0	3.12	1	213.516398854	213.52030222	"25"	759.17289546	756.216405367	1.5	0.1
0.01	1	0.120622018000063	1	22	214.554666929	NA	1	0	3.12	1	213.750131374	213.870753392	"25"	759.17289546	756.216405367	1.5	0.1
0.01	1	0.00450677200001337	1	22	214.554666929	NA	1	0	3.12	1	214.100709709	214.105216481	"25"	759.17289546	756.216405367	1.5	0.1
0.01	1	0.103597049999962	1	22	214.554666929	NA	1	0	3.12	1	214.334462594	214.438059644	"25"	759.17289546	756.216405367	1.5	0.1
0.01	1	0.777067595999938	1	36	226.858447276	NA	1	0	3.12	1	216.604895929	217.381963525	"26"	759.17289546	756.216405367	1.5	0.1
0.01	1	0.0467236029999185	1	36	226.858447276	NA	1	0	3.12	1	217.623314929	217.670038532	"26"	759.17289546	756.216405367	1.5	0.1
0.01	1	0.0039689540000154	1	36	226.858447276	NA	1	0	3.12	1	217.907136406	217.91110536	"26"	759.17289546	756.216405367	1.5	0.1
0.01	1	0.0572349550000126	1	36	226.858447276	NA	1	0	3.12	1	218.140847109	218.198082064	"26"	759.17289546	756.216405367	1.5	0.1
0.01	1	0.00369008000006943	1	36	226.858447276	NA	1	0	3.12	1	218.424688616	218.428378696	"26"	759.17289546	756.216405367	1.5	0.1
0.01	1	0.0834679250000363	1	36	226.858447276	NA	1	0	3.12	1	218.658396184	218.741864109	"26"	759.17289546	756.216405367	1.5	0.1
0.01	1	0.0038124659999994	1	36	226.858447276	NA	1	0	3.12	1	218.975541244	218.97935371	"26"	759.17289546	756.216405367	1.5	0.1
0.01	1	0.285090555000011	1	36	226.858447276	NA	1	0	3.12	1	219.209379216	219.494469771	"26"	759.17289546	756.216405367	1.5	0.1
0.01	1	0.00379612200003976	1	36	226.858447276	NA	1	0	3.12	1	219.726825016	219.730621138	"26"	759.17289546	756.216405367	1.5	0.1
0.01	1	0.037704395999981	1	36	226.858447276	NA	1	0	3.12	1	219.960543016	219.998247412	"26"	759.17289546	756.216405367	1.5	0.1
0.01	1	0.00394314200002555	1	36	226.858447276	NA	1	0	3.12	1	220.227630004	220.231573146	"26"	759.17289546	756.216405367	1.5	0.1
0.01	1	0.0414901809999719	1	36	226.858447276	NA	1	0	3.12	1	220.461457099	220.50294728	"26"	759.17289546	756.216405367	1.5	0.1
0.01	1	0.00686930699998811	1	36	226.858447276	NA	1	0	3.12	1	220.728583541	220.735452848	"26"	759.17289546	756.216405367	1.5	0.1
0.01	1	0.00381409199997051	1	36	226.858447276	NA	1	0	3.12	1	220.962240636	220.966054728	"26"	759.17289546	756.216405367	1.5	0.1
0.01	1	0.049727125000004	1	36	226.858447276	NA	1	0	3.12	1	221.195899284	221.245626409	"26"	759.17289546	756.216405367	1.5	0.1
0.01	1	0.00370038400001249	1	36	226.858447276	NA	1	0	3.12	1	221.479686356	221.48338674	"26"	759.17289546	756.216405367	1.5	0.1
0.01	1	0.0357398959999955	1	36	226.858447276	NA	1	0	3.12	1	221.713561824	221.74930172	"26"	759.17289546	756.216405367	1.5	0.1
0.01	1	0.00362581100000625	1	36	226.858447276	NA	1	0	3.12	1	221.980608599	221.98423441	"26"	759.17289546	756.216405367	1.5	0.1
0.01	1	0.0478001660000018	1	36	226.858447276	NA	1	0	3.12	1	222.214319994	222.26212016	"26"	759.17289546	756.216405367	1.5	0.1
0.01	1	0.00200054100002944	1	36	226.858447276	NA	1	0	3.12	1	222.498145509	222.50014605	"26"	759.17289546	756.216405367	1.5	0.1
0.01	1	0.0738890580000771	1	36	226.858447276	NA	1	0	3.12	1	222.731843439	222.805732497	"26"	759.17289546	756.216405367	1.5	0.1
0.01	1	0.00206513800003449	1	36	226.858447276	NA	1	0	3.12	1	223.03245714	223.034522278	"26"	759.17289546	756.216405367	1.5	0.1
0.01	1	0.00382069900001625	1	36	226.858447276	NA	1	0	3.12	1	223.266089239	223.269909938	"26"	759.17289546	756.216405367	1.5	0.1
0.01	1	0.0897234819999539	1	36	226.858447276	NA	1	0	3.12	1	223.500010534	223.589734016	"26"	759.17289546	756.216405367	1.5	0.1
0.01	1	0.00197380899999189	1	36	226.858447276	NA	1	0	3.12	1	223.817056758	223.819030567	"26"	759.17289546	756.216405367	1.5	0.1
0.01	1	0.00447692499994901	1	36	226.858447276	NA	1	0	3.12	1	224.050761666	224.055238591	"26"	759.17289546	756.216405367	1.5	0.1
0.01	1	0.0817837349999309	1	36	226.858447276	NA	1	0	3.12	1	224.284488679	224.366272414	"26"	759.17289546	756.216405367	1.5	0.1
0.01	1	0.172376533000033	1	36	226.858447276	NA	1	0	3.12	1	224.601752429	224.774128962	"26"	759.17289546	756.216405367	1.5	0.1
0.01	1	0.00456845500002601	1	36	226.858447276	NA	1	0	3.12	1	225.002425084	225.006993539	"26"	759.17289546	756.216405367	1.5	0.1
0.01	1	0.00372655599994687	1	36	226.858447276	NA	1	0	3.12	1	225.236162876	225.239889432	"26"	759.17289546	756.216405367	1.5	0.1
0.01	1	0.00383966499998678	1	36	226.858447276	NA	1	0	3.12	1	225.469823811	225.473663476	"26"	759.17289546	756.216405367	1.5	0.1
0.01	1	0.00452302999997301	1	36	226.858447276	NA	1	0	3.12	1	225.703554319	225.708077349	"26"	759.17289546	756.216405367	1.5	0.1
0.01	1	0.100805802000082	1	36	226.858447276	NA	1	0	3.12	1	225.937216269	226.038022071	"26"	759.17289546	756.216405367	1.5	0.1
0.01	1	0.0020740280000382	1	36	226.858447276	NA	1	0	3.12	1	226.271165885	226.273239913	"26"	759.17289546	756.216405367	1.5	0.1
0.01	1	0.00448970699994788	1	36	226.858447276	NA	1	0	3.12	1	226.504950659	226.509440366	"26"	759.17289546	756.216405367	1.5	0.1
0.01	1	0.00367550599992228	1	36	226.858447276	NA	1	0	3.12	1	226.738628544	226.74230405	"26"	759.17289546	756.216405367	1.5	0.1
0.01	1	0.65768479999997	1	124	NA	234.967912625	0	0.18	3.3	1	228.908947261	229.566632061	"27"	759.17289546	756.216405367	1.5	0.1
0.01	1	0.0913033279999809	1	124	NA	234.967912625	0	0.18	3.3	1	229.793822434	229.885125762	"27"	759.17289546	756.216405367	1.5	0.1
0.01	1	0.00388381599998411	1	124	NA	234.967912625	0	0.18	3.3	1	230.111026294	230.11491011	"27"	759.17289546	756.216405367	1.5	0.1
0.01	1	0.116342422999992	1	124	NA	234.967912625	0	0.18	3.3	1	230.344730714	230.461073137	"27"	759.17289546	756.216405367	1.5	0.1
0.01	1	0.0951760810000906	1	124	NA	234.967912625	0	0.18	3.3	1	230.695226969	230.79040305	"27"	759.17289546	756.216405367	1.5	0.1
0.01	1	0.00394866999999977	1	124	NA	234.967912625	0	0.18	3.3	1	231.012455186	231.016403856	"27"	759.17289546	756.216405367	1.5	0.1
0.01	1	0.10354523500007	1	124	NA	234.967912625	0	0.18	3.3	1	231.246279359	231.349824594	"27"	759.17289546	756.216405367	1.5	0.1
0.01	1	0.00453854500005946	1	124	NA	234.967912625	0	0.18	3.3	1	231.580072984	231.584611529	"27"	759.17289546	756.216405367	1.5	0.1
0.01	1	0.00391520800008038	1	124	NA	234.967912625	0	0.18	3.3	1	231.813919034	231.817834242	"27"	759.17289546	756.216405367	1.5	0.1
0.01	1	0.294945176999931	1	124	NA	234.967912625	0	0.18	3.3	1	232.047629691	232.342574868	"27"	759.17289546	756.216405367	1.5	0.1
0.01	1	0.00446879499997976	1	124	NA	234.967912625	0	0.18	3.3	1	232.565153796	232.569622591	"27"	759.17289546	756.216405367	1.5	0.1
0.01	1	0.087125068999967	1	124	NA	234.967912625	0	0.18	3.3	1	232.798782011	232.88590708	"27"	759.17289546	756.216405367	1.5	0.1
0.01	1	0.00451673199995639	1	124	NA	234.967912625	0	0.18	3.3	1	233.116077939	233.120594671	"27"	759.17289546	756.216405367	1.5	0.1
0.01	1	0.00457524000000831	1	124	NA	234.967912625	0	0.18	3.3	1	233.349841389	233.354416629	"27"	759.17289546	756.216405367	1.5	0.1
0.01	1	0.0870806579999908	1	124	NA	234.967912625	0	0.18	3.3	1	233.583457874	233.670538532	"27"	759.17289546	756.216405367	1.5	0.1
0.01	1	0.00436002700007521	1	124	NA	234.967912625	0	0.18	3.3	1	233.900717714	233.905077741	"27"	759.17289546	756.216405367	1.5	0.1
0.01	1	0.103407252000011	1	124	NA	234.967912625	0	0.18	3.3	1	234.134466861	234.237874113	"27"	759.17289546	756.216405367	1.5	0.1
0.01	1	0.00201472399999147	1	124	NA	234.967912625	0	0.18	3.3	1	234.468344718	234.470359442	"27"	759.17289546	756.216405367	1.5	0.1
0.01	1	0.264330032999965	2	124	NA	234.967912625	0	0.18	3.3	1	234.701996559	234.966326592	"27"	759.17289546	756.216405367	1.5	0.1
0.01	1	0.095492930999967	1	13	240.481499901	NA	1	0	3.3	1	237.005957374	237.101450305	"28"	759.17289546	756.216405367	1.5	0.1
0.01	1	0.0895189230000142	1	13	240.481499901	NA	1	0	3.3	1	237.339767584	237.429286507	"28"	759.17289546	756.216405367	1.5	0.1
0.01	1	0.00209667000001446	1	13	240.481499901	NA	1	0	3.3	1	237.656970798	237.659067468	"28"	759.17289546	756.216405367	1.5	0.1
0.01	1	0.107662918000074	1	13	240.481499901	NA	1	0	3.3	1	237.890700076	237.998362994	"28"	759.17289546	756.216405367	1.5	0.1
0.01	1	0.00455246500007433	1	13	240.481499901	NA	1	0	3.3	1	238.224663359	238.229215824	"28"	759.17289546	756.216405367	1.5	0.1
0.01	1	0.0038150330000235	1	13	240.481499901	NA	1	0	3.3	1	238.458318451	238.462133484	"28"	759.17289546	756.216405367	1.5	0.1
0.01	1	0.0815953549999904	1	13	240.481499901	NA	1	0	3.3	1	238.692153821	238.773749176	"28"	759.17289546	756.216405367	1.5	0.1
0.01	1	0.00205666399995152	1	13	240.481499901	NA	1	0	3.3	1	239.009250599	239.011307263	"28"	759.17289546	756.216405367	1.5	0.1
0.01	1	0.0038172700000132	1	13	240.481499901	NA	1	0	3.3	1	239.243051356	239.246868626	"28"	759.17289546	756.216405367	1.5	0.1
0.01	1	0.082004043999973	1	13	240.481499901	NA	1	0	3.3	1	239.476757921	239.558761965	"28"	759.17289546	756.216405367	1.5	0.1
0.01	1	0.00200183899994499	1	13	240.481499901	NA	1	0	3.3	1	239.793945001	239.79594684	"28"	759.17289546	756.216405367	1.5	0.1
0.01	1	0.0982517769999731	1	13	240.481499901	NA	1	0	3.3	1	240.027603451	240.125855228	"28"	759.17289546	756.216405367	1.5	0.1
0.01	1	0.00391505300001427	1	13	240.481499901	NA	1	0	3.3	1	240.361628191	240.365543244	"28"	759.17289546	756.216405367	1.5	0.1
0.01	1	0.538965415999996	1	125	NA	249.999073838	0	0.22	3.52	1	242.515112791	243.054078207	"29"	759.17289546	756.216405367	1.5	0.1
0.01	1	0.074152196	1	125	NA	249.999073838	0	0.22	3.52	1	243.283180436	243.357332632	"29"	759.17289546	756.216405367	1.5	0.1
0.01	1	0.00382148300002427	1	125	NA	249.999073838	0	0.22	3.52	1	243.583653101	243.587474584	"29"	759.17289546	756.216405367	1.5	0.1
0.01	1	0.100273258000016	1	125	NA	249.999073838	0	0.22	3.52	1	243.81736011	243.917633368	"29"	759.17289546	756.216405367	1.5	0.1
0.01	1	0.00465081499999087	1	125	NA	249.999073838	0	0.22	3.52	1	244.151264699	244.155915514	"29"	759.17289546	756.216405367	1.5	0.1
0.01	1	0.0935020719999784	1	125	NA	249.999073838	0	0.22	3.52	1	244.384968094	244.478470166	"29"	759.17289546	756.216405367	1.5	0.1
0.01	1	0.00386896700001671	1	125	NA	249.999073838	0	0.22	3.52	1	244.702262891	244.706131858	"29"	759.17289546	756.216405367	1.5	0.1
0.01	1	0.0865862969999398	1	125	NA	249.999073838	0	0.22	3.52	1	244.935943274	245.022529571	"29"	759.17289546	756.216405367	1.5	0.1
0.01	1	0.00385951299995213	1	125	NA	249.999073838	0	0.22	3.52	1	245.253015119	245.256874632	"29"	759.17289546	756.216405367	1.5	0.1
0.01	1	0.0394917510000141	1	125	NA	249.999073838	0	0.22	3.52	1	245.486790994	245.526282745	"29"	759.17289546	756.216405367	1.5	0.1
0.01	1	0.00204906600004051	1	125	NA	249.999073838	0	0.22	3.52	1	245.753971448	245.756020514	"29"	759.17289546	756.216405367	1.5	0.1
0.01	1	0.114524812000013	1	125	NA	249.999073838	0	0.22	3.52	1	245.987663401	246.102188213	"29"	759.17289546	756.216405367	1.5	0.1
0.01	1	0.00215624100007972	1	125	NA	249.999073838	0	0.22	3.52	1	246.338252439	246.34040868	"29"	759.17289546	756.216405367	1.5	0.1
0.01	1	0.00415491299997939	1	125	NA	249.999073838	0	0.22	3.52	1	246.571985083	246.576139996	"29"	759.17289546	756.216405367	1.5	0.1
0.01	1	0.128002994999974	1	125	NA	249.999073838	0	0.22	3.52	1	246.805676599	246.933679594	"29"	759.17289546	756.216405367	1.5	0.1
0.01	1	0.00384453300000587	1	125	NA	249.999073838	0	0.22	3.52	1	247.156287251	247.160131784	"29"	759.17289546	756.216405367	1.5	0.1
0.01	1	0.00204748999999538	1	125	NA	249.999073838	0	0.22	3.52	1	247.390038514	247.392086004	"29"	759.17289546	756.216405367	1.5	0.1
0.01	1	0.00199936799992884	1	125	NA	249.999073838	0	0.22	3.52	1	247.62379702	247.625796388	"29"	759.17289546	756.216405367	1.5	0.1
0.01	1	0.0042474099999481	1	125	NA	249.999073838	0	0.22	3.52	1	247.857511179	247.861758589	"29"	759.17289546	756.216405367	1.5	0.1
0.01	1	0.170172531999924	1	125	NA	249.999073838	0	0.22	3.52	1	248.091227389	248.261399921	"29"	759.17289546	756.216405367	1.5	0.1
0.01	1	0.00293669600000612	1	125	NA	249.999073838	0	0.22	3.52	1	248.491890458	248.494827154	"29"	759.17289546	756.216405367	1.5	0.1
0.01	1	0.288481027999978	1	125	NA	249.999073838	0	0.22	3.52	1	248.725654857	249.014135885	"29"	759.17289546	756.216405367	1.5	0.1
0.01	1	0.754402950999975	2	125	NA	249.999073838	0	0.22	3.52	1	249.243139681	249.997542632	"29"	759.17289546	756.216405367	1.5	0.1
0.01	1	0.0072243490000119	1	105	NA	257.832623488	0	0.2	3.72	1	252.047906789	252.055131138	"30"	759.17289546	756.216405367	1.5	0.1
0.01	1	0.00435743000002731	1	105	NA	257.832623488	0	0.2	3.72	1	252.281631439	252.285988869	"30"	759.17289546	756.216405367	1.5	0.1
0.01	1	0.0669452079999928	1	105	NA	257.832623488	0	0.2	3.72	1	252.515437272	252.58238248	"30"	759.17289546	756.216405367	1.5	0.1
0.01	1	0.00382700199997998	1	105	NA	257.832623488	0	0.2	3.72	1	252.815803484	252.819630486	"30"	759.17289546	756.216405367	1.5	0.1
0.01	1	0.0771024840000791	1	105	NA	257.832623488	0	0.2	3.72	1	253.049617084	253.126719568	"30"	759.17289546	756.216405367	1.5	0.1
0.01	1	0.00197410600003423	1	105	NA	257.832623488	0	0.2	3.72	1	253.350122148	253.352096254	"30"	759.17289546	756.216405367	1.5	0.1
0.01	1	0.00221055099996192	1	105	NA	257.832623488	0	0.2	3.72	1	253.583765109	253.58597566	"30"	759.17289546	756.216405367	1.5	0.1
0.01	1	0.0850397609999618	1	105	NA	257.832623488	0	0.2	3.72	1	253.817539641	253.902579402	"30"	759.17289546	756.216405367	1.5	0.1
0.01	1	0.00382383900000605	1	105	NA	257.832623488	0	0.2	3.72	1	254.134714379	254.138538218	"30"	759.17289546	756.216405367	1.5	0.1
0.01	1	0.0772147030000951	1	105	NA	257.832623488	0	0.2	3.72	1	254.368422171	254.445636874	"30"	759.17289546	756.216405367	1.5	0.1
0.01	1	0.00199180699996759	1	105	NA	257.832623488	0	0.2	3.72	1	254.668922861	254.670914668	"30"	759.17289546	756.216405367	1.5	0.1
0.01	1	0.0038426480000453	1	105	NA	257.832623488	0	0.2	3.72	1	254.902681904	254.906524552	"30"	759.17289546	756.216405367	1.5	0.1
0.01	1	0.0616544639999574	1	105	NA	257.832623488	0	0.2	3.72	1	255.136408889	255.198063353	"30"	759.17289546	756.216405367	1.5	0.1
0.01	1	0.00426023399995756	1	105	NA	257.832623488	0	0.2	3.72	1	255.42022231	255.424482544	"30"	759.17289546	756.216405367	1.5	0.1
0.01	1	0.0557452630000626	1	105	NA	257.832623488	0	0.2	3.72	1	255.654067979	255.709813242	"30"	759.17289546	756.216405367	1.5	0.1
0.01	1	0.00390627800004495	1	105	NA	257.832623488	0	0.2	3.72	1	255.937746396	255.941652674	"30"	759.17289546	756.216405367	1.5	0.1
0.01	1	0.0502636500000335	1	105	NA	257.832623488	0	0.2	3.72	1	256.171470919	256.221734569	"30"	759.17289546	756.216405367	1.5	0.1
0.01	1	0.00384613899996111	1	105	NA	257.832623488	0	0.2	3.72	1	256.455220911	256.45906705	"30"	759.17289546	756.216405367	1.5	0.1
0.01	1	0.0769637610000018	1	105	NA	257.832623488	0	0.2	3.72	1	256.689040456	256.766004217	"30"	759.17289546	756.216405367	1.5	0.1
0.01	1	0.00388116999999966	1	105	NA	257.832623488	0	0.2	3.72	1	256.989466896	256.993348066	"30"	759.17289546	756.216405367	1.5	0.1
0.01	1	0.607757547000006	2	105	NA	257.832623488	0	0.2	3.72	1	257.223286029	257.831043576	"30"	759.17289546	756.216405367	1.5	0.1
