"payoff.level"	"balloon"	"rt"	"resp"	"explode.trial"	"explode.time"	"finish.time"	"exploded"	"trial.total"	"cumulative.total"	"finished"	"trial.start"	"trial.end"	"trial.num"	"secs"	"start.time"	"iti"	"isi"
0.01	1	2.42281415599973	1	64	NA	19.9358100380005	0	0.14	0.14	1	0.00811362300009932	2.43092777899983	"1"	6927.196300856	6873.64247712	1.5	0.1
0.01	1	1.50877850899997	1	64	NA	19.9358100380005	0	0.14	0.14	1	2.72939656300059	4.23817507200056	"1"	6927.196300856	6873.64247712	1.5	0.1
0.01	1	1.34233274100006	1	64	NA	19.9358100380005	0	0.14	0.14	1	4.46543492000001	5.80776766100007	"1"	6927.196300856	6873.64247712	1.5	0.1
0.01	1	1.17257120100021	1	64	NA	19.9358100380005	0	0.14	0.14	1	6.03486655800043	7.20743775900064	"1"	6927.196300856	6873.64247712	1.5	0.1
0.01	1	1.15407793899976	1	64	NA	19.9358100380005	0	0.14	0.14	1	7.43720762500016	8.59128556399992	"1"	6927.196300856	6873.64247712	1.5	0.1
0.01	1	1.11913906500013	1	64	NA	19.9358100380005	0	0.14	0.14	1	8.82288134000009	9.94202040500022	"1"	6927.196300856	6873.64247712	1.5	0.1
0.01	1	1.05653170699952	1	64	NA	19.9358100380005	0	0.14	0.14	1	10.1751263080005	11.231658015	"1"	6927.196300856	6873.64247712	1.5	0.1
0.01	1	1.96272798900009	1	64	NA	19.9358100380005	0	0.14	0.14	1	11.4606620780005	13.4233900670006	"1"	6927.196300856	6873.64247712	1.5	0.1
0.01	1	0.631588156000362	1	64	NA	19.9358100380005	0	0.14	0.14	1	13.6644362750003	14.2960244310007	"1"	6927.196300856	6873.64247712	1.5	0.1
0.01	1	0.457288104999861	1	64	NA	19.9358100380005	0	0.14	0.14	1	14.5325173730007	14.9898054780006	"1"	6927.196300856	6873.64247712	1.5	0.1
0.01	1	0.494781715000499	1	64	NA	19.9358100380005	0	0.14	0.14	1	15.2169415230001	15.7117232380006	"1"	6927.196300856	6873.64247712	1.5	0.1
0.01	1	0.359203803999662	1	64	NA	19.9358100380005	0	0.14	0.14	1	15.9347955430003	16.293999347	"1"	6927.196300856	6873.64247712	1.5	0.1
0.01	1	0.520416364000084	1	64	NA	19.9358100380005	0	0.14	0.14	1	16.5191299030002	17.0395462670003	"1"	6927.196300856	6873.64247712	1.5	0.1
0.01	1	0.383817493999231	1	64	NA	19.9358100380005	0	0.14	0.14	1	17.2704132530007	17.6542307469999	"1"	6927.196300856	6873.64247712	1.5	0.1
0.01	1	2.04605811399961	2	64	NA	19.9358100380005	0	0.14	0.14	1	17.8880404700003	19.9340985839999	"1"	6927.196300856	6873.64247712	1.5	0.1
0.01	1	1.80656271500084	1	68	NA	31.5148849470006	0	0.13	0.27	1	21.9782604749998	23.7848231900007	"2"	6927.196300856	6873.64247712	1.5	0.1
0.01	1	0.362963755000237	1	68	NA	31.5148849470006	0	0.13	0.27	1	24.0149671429999	24.3779308980002	"2"	6927.196300856	6873.64247712	1.5	0.1
0.01	1	0.297640487000535	1	68	NA	31.5148849470006	0	0.13	0.27	1	24.6160511580001	24.9136916450007	"2"	6927.196300856	6873.64247712	1.5	0.1
0.01	1	0.308120054999563	1	68	NA	31.5148849470006	0	0.13	0.27	1	25.1503274920005	25.4584475470001	"2"	6927.196300856	6873.64247712	1.5	0.1
0.01	1	0.293244320000667	1	68	NA	31.5148849470006	0	0.13	0.27	1	25.6845925349999	25.9778368550005	"2"	6927.196300856	6873.64247712	1.5	0.1
0.01	1	0.263774426000055	1	68	NA	31.5148849470006	0	0.13	0.27	1	26.2020287149999	26.4658031409999	"2"	6927.196300856	6873.64247712	1.5	0.1
0.01	1	0.267091359000005	1	68	NA	31.5148849470006	0	0.13	0.27	1	26.7029934299999	26.9700847889999	"2"	6927.196300856	6873.64247712	1.5	0.1
0.01	1	0.261788325000452	1	68	NA	31.5148849470006	0	0.13	0.27	1	27.2038188830002	27.4656072080006	"2"	6927.196300856	6873.64247712	1.5	0.1
0.01	1	0.281092178000108	1	68	NA	31.5148849470006	0	0.13	0.27	1	27.6878945830003	27.9689867610005	"2"	6927.196300856	6873.64247712	1.5	0.1
0.01	1	0.244144035000318	1	68	NA	31.5148849470006	0	0.13	0.27	1	28.205503618	28.4496476530003	"2"	6927.196300856	6873.64247712	1.5	0.1
0.01	1	0.281206795999424	1	68	NA	31.5148849470006	0	0.13	0.27	1	28.6728096430006	28.954016439	"2"	6927.196300856	6873.64247712	1.5	0.1
0.01	1	0.267332843000077	1	68	NA	31.5148849470006	0	0.13	0.27	1	29.1904496799998	29.4577825229999	"2"	6927.196300856	6873.64247712	1.5	0.1
0.01	1	0.439099088999683	1	68	NA	31.5148849470006	0	0.13	0.27	1	29.6914132930006	30.1305123820002	"2"	6927.196300856	6873.64247712	1.5	0.1
0.01	1	1.15419406100045	2	68	NA	31.5148849470006	0	0.13	0.27	1	30.359012678	31.5132067390005	"2"	6927.196300856	6873.64247712	1.5	0.1
0.01	1	1.20543023600021	1	33	NA	44.9880209970006	0	0.2	0.47	1	33.5646281429999	34.7700583790001	"3"	6927.196300856	6873.64247712	1.5	0.1
0.01	1	0.30460436300018	1	33	NA	44.9880209970006	0	0.2	0.47	1	35.0001818680003	35.3047862310004	"3"	6927.196300856	6873.64247712	1.5	0.1
0.01	1	0.259591494999768	1	33	NA	44.9880209970006	0	0.2	0.47	1	35.5343980930002	35.7939895879999	"3"	6927.196300856	6873.64247712	1.5	0.1
0.01	1	0.262926258999869	1	33	NA	44.9880209970006	0	0.2	0.47	1	36.0185824030004	36.2815086620003	"3"	6927.196300856	6873.64247712	1.5	0.1
0.01	1	0.226770161000786	1	33	NA	44.9880209970006	0	0.2	0.47	1	36.5193384029999	36.7461085640007	"3"	6927.196300856	6873.64247712	1.5	0.1
0.01	1	0.240204708999954	1	33	NA	44.9880209970006	0	0.2	0.47	1	36.9701658980002	37.2103706070002	"3"	6927.196300856	6873.64247712	1.5	0.1
0.01	1	0.244924820000051	1	33	NA	44.9880209970006	0	0.2	0.47	1	37.4376385900005	37.6825634100005	"3"	6927.196300856	6873.64247712	1.5	0.1
0.01	1	0.25538546000007	1	33	NA	44.9880209970006	0	0.2	0.47	1	37.9218047680006	38.1771902280007	"3"	6927.196300856	6873.64247712	1.5	0.1
0.01	1	0.260346514999583	1	33	NA	44.9880209970006	0	0.2	0.47	1	38.4059483580004	38.666294873	"3"	6927.196300856	6873.64247712	1.5	0.1
0.01	1	0.255296797000483	1	33	NA	44.9880209970006	0	0.2	0.47	1	38.8900648580002	39.1453616550007	"3"	6927.196300856	6873.64247712	1.5	0.1
0.01	1	0.227805799000635	1	33	NA	44.9880209970006	0	0.2	0.47	1	39.374261893	39.6020676920007	"3"	6927.196300856	6873.64247712	1.5	0.1
0.01	1	0.231675705999805	1	33	NA	44.9880209970006	0	0.2	0.47	1	39.824946359	40.0566220649998	"3"	6927.196300856	6873.64247712	1.5	0.1
0.01	1	0.228917856000407	1	33	NA	44.9880209970006	0	0.2	0.47	1	40.2924440229999	40.5213618790003	"3"	6927.196300856	6873.64247712	1.5	0.1
0.01	1	0.193295639000098	1	33	NA	44.9880209970006	0	0.2	0.47	1	40.7599294920001	40.9532251310002	"3"	6927.196300856	6873.64247712	1.5	0.1
0.01	1	0.264060634999623	1	33	NA	44.9880209970006	0	0.2	0.47	1	41.1773274430006	41.4413880780003	"3"	6927.196300856	6873.64247712	1.5	0.1
0.01	1	0.22824250100075	1	33	NA	44.9880209970006	0	0.2	0.47	1	41.6781444779999	41.9063869790007	"3"	6927.196300856	6873.64247712	1.5	0.1
0.01	1	0.232811573000617	1	33	NA	44.9880209970006	0	0.2	0.47	1	42.128810315	42.3616218880006	"3"	6927.196300856	6873.64247712	1.5	0.1
0.01	1	0.244590356000117	1	33	NA	44.9880209970006	0	0.2	0.47	1	42.5963226680005	42.8409130240007	"3"	6927.196300856	6873.64247712	1.5	0.1
0.01	1	0.225536323000597	1	33	NA	44.9880209970006	0	0.2	0.47	1	43.063749508	43.2892858310006	"3"	6927.196300856	6873.64247712	1.5	0.1
0.01	1	0.215015456000401	1	33	NA	44.9880209970006	0	0.2	0.47	1	43.5144883550001	43.7295038110005	"3"	6927.196300856	6873.64247712	1.5	0.1
0.01	1	1.02095530800034	2	33	NA	44.9880209970006	0	0.2	0.47	1	43.9653752880004	44.9863305960007	"3"	6927.196300856	6873.64247712	1.5	0.1
0.01	1	0.661517285000627	1	105	NA	60.3469886319999	0	0.28	0.75	1	47.0371384	47.6986556850006	"4"	6927.196300856	6873.64247712	1.5	0.1
0.01	1	0.174634752000202	1	105	NA	60.3469886319999	0	0.28	0.75	1	47.9386944600001	48.1133292120003	"4"	6927.196300856	6873.64247712	1.5	0.1
0.01	1	0.215289200999905	1	105	NA	60.3469886319999	0	0.28	0.75	1	48.3393337900006	48.5546229910005	"4"	6927.196300856	6873.64247712	1.5	0.1
0.01	1	0.147515641999235	1	105	NA	60.3469886319999	0	0.28	0.75	1	48.7900818100006	48.9375974519999	"4"	6927.196300856	6873.64247712	1.5	0.1
0.01	1	0.171833878999678	1	105	NA	60.3469886319999	0	0.28	0.75	1	49.1740187280002	49.3458526069999	"4"	6927.196300856	6873.64247712	1.5	0.1
0.01	1	0.155890920000274	1	105	NA	60.3469886319999	0	0.28	0.75	1	49.5746518980004	49.7305428180007	"4"	6927.196300856	6873.64247712	1.5	0.1
0.01	1	0.131305756999609	1	105	NA	60.3469886319999	0	0.28	0.75	1	49.9586764430005	50.0899822000001	"4"	6927.196300856	6873.64247712	1.5	0.1
0.01	1	0.107654232999266	1	105	NA	60.3469886319999	0	0.28	0.75	1	50.3260291880006	50.4336834209998	"4"	6927.196300856	6873.64247712	1.5	0.1
0.01	1	0.118094278999706	1	105	NA	60.3469886319999	0	0.28	0.75	1	50.6598459200004	50.7779401990001	"4"	6927.196300856	6873.64247712	1.5	0.1
0.01	1	0.110490480000408	1	105	NA	60.3469886319999	0	0.28	0.75	1	51.0104792780003	51.1209697580007	"4"	6927.196300856	6873.64247712	1.5	0.1
0.01	1	0.170173594999142	1	105	NA	60.3469886319999	0	0.28	0.75	1	51.3444032860007	51.5145768809998	"4"	6927.196300856	6873.64247712	1.5	0.1
0.01	1	0.152579433000028	1	105	NA	60.3469886319999	0	0.28	0.75	1	51.7450199980003	51.8975994310003	"4"	6927.196300856	6873.64247712	1.5	0.1
0.01	1	0.152555261000089	1	105	NA	60.3469886319999	0	0.28	0.75	1	52.1290034860003	52.2815587470004	"4"	6927.196300856	6873.64247712	1.5	0.1
0.01	1	0.144144011999742	1	105	NA	60.3469886319999	0	0.28	0.75	1	52.5129336890004	52.6570777010002	"4"	6927.196300856	6873.64247712	1.5	0.1
0.01	1	0.121324711999478	1	105	NA	60.3469886319999	0	0.28	0.75	1	52.8803376430005	53.001662355	"4"	6927.196300856	6873.64247712	1.5	0.1
0.01	1	0.155502784000419	1	105	NA	60.3469886319999	0	0.28	0.75	1	53.2309627149998	53.3864654990002	"4"	6927.196300856	6873.64247712	1.5	0.1
0.01	1	0.0512032070000714	1	105	NA	60.3469886319999	0	0.28	0.75	1	53.6148995430003	53.6661027500004	"4"	6927.196300856	6873.64247712	1.5	0.1
0.01	1	0.119640261000313	1	105	NA	60.3469886319999	0	0.28	0.75	1	53.898715583	54.0183558440003	"4"	6927.196300856	6873.64247712	1.5	0.1
0.01	1	0.41626211699986	1	105	NA	60.3469886319999	0	0.28	0.75	1	54.2492745879999	54.6655367049998	"4"	6927.196300856	6873.64247712	1.5	0.1
0.01	1	0.132932962000268	1	105	NA	60.3469886319999	0	0.28	0.75	1	54.9004550079999	55.0333879700001	"4"	6927.196300856	6873.64247712	1.5	0.1
0.01	1	0.134613405999517	1	105	NA	60.3469886319999	0	0.28	0.75	1	55.2676740880006	55.4022874940001	"4"	6927.196300856	6873.64247712	1.5	0.1
0.01	1	0.390202882999802	1	105	NA	60.3469886319999	0	0.28	0.75	1	55.634932078	56.0251349609998	"4"	6927.196300856	6873.64247712	1.5	0.1
0.01	1	0.253766809999433	1	105	NA	60.3469886319999	0	0.28	0.75	1	56.2525781680006	56.506344978	"4"	6927.196300856	6873.64247712	1.5	0.1
0.01	1	0.289136037999924	1	105	NA	60.3469886319999	0	0.28	0.75	1	56.7367847149999	57.0259207529998	"4"	6927.196300856	6873.64247712	1.5	0.1
0.01	1	0.242888892000337	1	105	NA	60.3469886319999	0	0.28	0.75	1	57.2542681949999	57.4971570870002	"4"	6927.196300856	6873.64247712	1.5	0.1
0.01	1	0.231492034999974	1	105	NA	60.3469886319999	0	0.28	0.75	1	57.7384403630003	57.9699323980003	"4"	6927.196300856	6873.64247712	1.5	0.1
0.01	1	0.228280615000585	1	105	NA	60.3469886319999	0	0.28	0.75	1	58.20598771	58.4342683250006	"4"	6927.196300856	6873.64247712	1.5	0.1
0.01	1	0.304240696000306	1	105	NA	60.3469886319999	0	0.28	0.75	1	58.6566375000002	58.9608781960005	"4"	6927.196300856	6873.64247712	1.5	0.1
0.01	1	1.15438386599999	2	105	NA	60.3469886319999	0	0.28	0.75	1	59.1909030780007	60.3452869440007	"4"	6927.196300856	6873.64247712	1.5	0.1
0.01	1	0.413839802999973	1	73	NA	75.6992614540004	0	0.46	1.21	1	62.3964314780005	62.8102712810005	"5"	6927.196300856	6873.64247712	1.5	0.1
0.01	1	0.153372515000228	1	73	NA	75.6992614540004	0	0.46	1.21	1	63.047502763	63.2008752780002	"5"	6927.196300856	6873.64247712	1.5	0.1
0.01	1	0.113715270999819	1	73	NA	75.6992614540004	0	0.46	1.21	1	63.4314507380004	63.5451660090002	"5"	6927.196300856	6873.64247712	1.5	0.1
0.01	1	0.0833707909996519	1	73	NA	75.6992614540004	0	0.46	1.21	1	63.7819634500001	63.8653342409998	"5"	6927.196300856	6873.64247712	1.5	0.1
0.01	1	0.00480162500025472	1	73	NA	75.6992614540004	0	0.46	1.21	1	64.0991901730004	64.1039917980006	"5"	6927.196300856	6873.64247712	1.5	0.1
0.01	1	0.101707906000229	1	73	NA	75.6992614540004	0	0.46	1.21	1	64.332885193	64.4345930990003	"5"	6927.196300856	6873.64247712	1.5	0.1
0.01	1	0.118245480000041	1	73	NA	75.6992614540004	0	0.46	1.21	1	64.6668138730001	64.7850593530002	"5"	6927.196300856	6873.64247712	1.5	0.1
0.01	1	0.0485909389999506	1	73	NA	75.6992614540004	0	0.46	1.21	1	65.0173358380007	65.0659267770006	"5"	6927.196300856	6873.64247712	1.5	0.1
0.01	1	0.0280617939997683	1	73	NA	75.6992614540004	0	0.46	1.21	1	65.3011800550003	65.329241849	"5"	6927.196300856	6873.64247712	1.5	0.1
0.01	1	0.00415280099969095	1	73	NA	75.6992614540004	0	0.46	1.21	1	65.5515715580004	65.5557243590001	"5"	6927.196300856	6873.64247712	1.5	0.1
0.01	1	0.00390617500033841	1	73	NA	75.6992614540004	0	0.46	1.21	1	65.7852693180002	65.7891754930006	"5"	6927.196300856	6873.64247712	1.5	0.1
0.01	1	0.00363384100000985	1	73	NA	75.6992614540004	0	0.46	1.21	1	66.0190359280004	66.0226697690005	"5"	6927.196300856	6873.64247712	1.5	0.1
0.01	1	0.00404460400022799	1	73	NA	75.6992614540004	0	0.46	1.21	1	66.2528179350002	66.2568625390004	"5"	6927.196300856	6873.64247712	1.5	0.1
0.01	1	0.00409941300040373	1	73	NA	75.6992614540004	0	0.46	1.21	1	66.486522358	66.4906217710004	"5"	6927.196300856	6873.64247712	1.5	0.1
0.01	1	0.00401844099997106	1	73	NA	75.6992614540004	0	0.46	1.21	1	66.7202443200003	66.7242627610003	"5"	6927.196300856	6873.64247712	1.5	0.1
0.01	1	0.00420768200001476	1	73	NA	75.6992614540004	0	0.46	1.21	1	66.9540160630004	66.9582237450004	"5"	6927.196300856	6873.64247712	1.5	0.1
0.01	1	0.00391849300012836	1	73	NA	75.6992614540004	0	0.46	1.21	1	67.1876091300001	67.1915276230002	"5"	6927.196300856	6873.64247712	1.5	0.1
0.01	1	0.00403537199963466	1	73	NA	75.6992614540004	0	0.46	1.21	1	67.4213638050005	67.4253991770001	"5"	6927.196300856	6873.64247712	1.5	0.1
0.01	1	0.00472557000011875	1	73	NA	75.6992614540004	0	0.46	1.21	1	67.6551098230002	67.6598353930003	"5"	6927.196300856	6873.64247712	1.5	0.1
0.01	1	0.00455612200039468	1	73	NA	75.6992614540004	0	0.46	1.21	1	67.8888679880001	67.8934241100005	"5"	6927.196300856	6873.64247712	1.5	0.1
0.01	1	0.00231203200019081	1	73	NA	75.6992614540004	0	0.46	1.21	1	68.1226442090001	68.1249562410003	"5"	6927.196300856	6873.64247712	1.5	0.1
0.01	1	0.0021786349998365	1	73	NA	75.6992614540004	0	0.46	1.21	1	68.3564149980002	68.3585936330001	"5"	6927.196300856	6873.64247712	1.5	0.1
0.01	1	0.00210711100044136	1	73	NA	75.6992614540004	0	0.46	1.21	1	68.590017517	68.5921246280004	"5"	6927.196300856	6873.64247712	1.5	0.1
0.01	1	0.00392659299996012	1	73	NA	75.6992614540004	0	0.46	1.21	1	68.8236901300006	68.8276167230006	"5"	6927.196300856	6873.64247712	1.5	0.1
0.01	1	0.00232000199957838	1	73	NA	75.6992614540004	0	0.46	1.21	1	69.0575438900005	69.0598638920001	"5"	6927.196300856	6873.64247712	1.5	0.1
0.01	1	0.00222339600077248	1	73	NA	75.6992614540004	0	0.46	1.21	1	69.2912904969999	69.2935138930006	"5"	6927.196300856	6873.64247712	1.5	0.1
0.01	1	0.00234320599975035	1	73	NA	75.6992614540004	0	0.46	1.21	1	69.5249973320006	69.5273405380003	"5"	6927.196300856	6873.64247712	1.5	0.1
0.01	1	0.00226776999988942	1	73	NA	75.6992614540004	0	0.46	1.21	1	69.7586790470004	69.7609468170003	"5"	6927.196300856	6873.64247712	1.5	0.1
0.01	1	0.00249389100008557	1	73	NA	75.6992614540004	0	0.46	1.21	1	69.9923367410001	69.9948306320002	"5"	6927.196300856	6873.64247712	1.5	0.1
0.01	1	0.00477692200001911	1	73	NA	75.6992614540004	0	0.46	1.21	1	70.2261904380002	70.2309673600002	"5"	6927.196300856	6873.64247712	1.5	0.1
0.01	1	0.00217894900015381	1	73	NA	75.6992614540004	0	0.46	1.21	1	70.4598783279998	70.462057277	"5"	6927.196300856	6873.64247712	1.5	0.1
0.01	1	0.0021949140000288	1	73	NA	75.6992614540004	0	0.46	1.21	1	70.6936787780005	70.6958736920005	"5"	6927.196300856	6873.64247712	1.5	0.1
0.01	1	0.00408824100031779	1	73	NA	75.6992614540004	0	0.46	1.21	1	70.9272435100002	70.9313317510005	"5"	6927.196300856	6873.64247712	1.5	0.1
0.01	1	0.0041371209999852	1	73	NA	75.6992614540004	0	0.46	1.21	1	71.1611225000006	71.1652596210006	"5"	6927.196300856	6873.64247712	1.5	0.1
0.01	1	0.00399626200032799	1	73	NA	75.6992614540004	0	0.46	1.21	1	71.3947972830001	71.3987935450004	"5"	6927.196300856	6873.64247712	1.5	0.1
0.01	1	0.0040967830000227	1	73	NA	75.6992614540004	0	0.46	1.21	1	71.6284779080006	71.6325746910006	"5"	6927.196300856	6873.64247712	1.5	0.1
0.01	1	0.00394699400021636	1	73	NA	75.6992614540004	0	0.46	1.21	1	71.8621694550002	71.8661164490004	"5"	6927.196300856	6873.64247712	1.5	0.1
0.01	1	0.00482494199968642	1	73	NA	75.6992614540004	0	0.46	1.21	1	72.0959726780002	72.1007976199999	"5"	6927.196300856	6873.64247712	1.5	0.1
0.01	1	0.0043856140000571	1	73	NA	75.6992614540004	0	0.46	1.21	1	72.3296190830006	72.3340046970006	"5"	6927.196300856	6873.64247712	1.5	0.1
0.01	1	0.191181330999825	1	73	NA	75.6992614540004	0	0.46	1.21	1	72.5634047100002	72.754586041	"5"	6927.196300856	6873.64247712	1.5	0.1
0.01	1	0.0141232050000326	1	73	NA	75.6992614540004	0	0.46	1.21	1	72.9807837030003	72.9949069080003	"5"	6927.196300856	6873.64247712	1.5	0.1
0.01	1	0.0102405150000777	1	73	NA	75.6992614540004	0	0.46	1.21	1	73.2312643080004	73.2415048230005	"5"	6927.196300856	6873.64247712	1.5	0.1
0.01	1	0.00257372000032774	1	73	NA	75.6992614540004	0	0.46	1.21	1	73.4649832969999	73.4675570170002	"5"	6927.196300856	6873.64247712	1.5	0.1
0.01	1	0.518990954999936	1	73	NA	75.6992614540004	0	0.46	1.21	1	73.698578003	74.2175689579999	"5"	6927.196300856	6873.64247712	1.5	0.1
0.01	1	0.010031386999799	1	73	NA	75.6992614540004	0	0.46	1.21	1	74.4498761800005	74.4599075670003	"5"	6927.196300856	6873.64247712	1.5	0.1
0.01	1	0.0021811919996253	1	73	NA	75.6992614540004	0	0.46	1.21	1	74.6836691850003	74.685850377	"5"	6927.196300856	6873.64247712	1.5	0.1
0.01	1	0.780270015000497	2	73	NA	75.6992614540004	0	0.46	1.21	1	74.9173995629999	75.6976695780004	"5"	6927.196300856	6873.64247712	1.5	0.1
0.01	1	1.27913208100017	1	45	90.4132619230004	NA	1	0	1.21	1	77.7386884380003	79.0178205190005	"6"	6927.196300856	6873.64247712	1.5	0.1
0.01	1	0.0047682820004411	1	45	90.4132619230004	NA	1	0	1.21	1	79.2579782980001	79.2627465800006	"6"	6927.196300856	6873.64247712	1.5	0.1
0.01	1	0.00216275399998267	1	45	90.4132619230004	NA	1	0	1.21	1	79.4917222069998	79.4938849609998	"6"	6927.196300856	6873.64247712	1.5	0.1
0.01	1	0.00451159000022017	1	45	90.4132619230004	NA	1	0	1.21	1	79.7253973030001	79.7299088930004	"6"	6927.196300856	6873.64247712	1.5	0.1
0.01	1	0.00216202499996143	1	45	90.4132619230004	NA	1	0	1.21	1	79.9591416600006	79.9613036850005	"6"	6927.196300856	6873.64247712	1.5	0.1
0.01	1	0.00216700100008893	1	45	90.4132619230004	NA	1	0	1.21	1	80.1927457780002	80.1949127790003	"6"	6927.196300856	6873.64247712	1.5	0.1
0.01	1	0.00232887599941023	1	45	90.4132619230004	NA	1	0	1.21	1	80.4265265150007	80.4288553910001	"6"	6927.196300856	6873.64247712	1.5	0.1
0.01	1	0.00216791399998328	1	45	90.4132619230004	NA	1	0	1.21	1	80.6602653330001	80.6624332470001	"6"	6927.196300856	6873.64247712	1.5	0.1
0.01	1	0.114622545999737	1	45	90.4132619230004	NA	1	0	1.21	1	80.8940371750004	81.0086597210002	"6"	6927.196300856	6873.64247712	1.5	0.1
0.01	1	0.00235204399996292	1	45	90.4132619230004	NA	1	0	1.21	1	81.2445418040006	81.2468938480006	"6"	6927.196300856	6873.64247712	1.5	0.1
0.01	1	0.00218105000021751	1	45	90.4132619230004	NA	1	0	1.21	1	81.4782575010004	81.4804385510006	"6"	6927.196300856	6873.64247712	1.5	0.1
0.01	1	0.114261258000624	1	45	90.4132619230004	NA	1	0	1.21	1	81.7121765279999	81.8264377860005	"6"	6927.196300856	6873.64247712	1.5	0.1
0.01	1	0.00222525099979975	1	45	90.4132619230004	NA	1	0	1.21	1	82.0625640890003	82.0647893400001	"6"	6927.196300856	6873.64247712	1.5	0.1
0.01	1	0.00218677000066236	1	45	90.4132619230004	NA	1	0	1.21	1	82.296304552	82.2984913220007	"6"	6927.196300856	6873.64247712	1.5	0.1
0.01	1	0.0946007520005878	1	45	90.4132619230004	NA	1	0	1.21	1	82.5300939389999	82.6246946910005	"6"	6927.196300856	6873.64247712	1.5	0.1
0.01	1	0.00294042600035027	1	45	90.4132619230004	NA	1	0	1.21	1	82.8473335369999	82.8502739630003	"6"	6927.196300856	6873.64247712	1.5	0.1
0.01	1	0.0022004910006217	1	45	90.4132619230004	NA	1	0	1.21	1	83.0810541000001	83.0832545910007	"6"	6927.196300856	6873.64247712	1.5	0.1
0.01	1	0.00214406399936706	1	45	90.4132619230004	NA	1	0	1.21	1	83.3148630880005	83.3170071519999	"6"	6927.196300856	6873.64247712	1.5	0.1
0.01	1	0.140372875000139	1	45	90.4132619230004	NA	1	0	1.21	1	83.5485597500001	83.6889326250002	"6"	6927.196300856	6873.64247712	1.5	0.1
0.01	1	0.00605030599945167	1	45	90.4132619230004	NA	1	0	1.21	1	83.9158164050004	83.9218667109999	"6"	6927.196300856	6873.64247712	1.5	0.1
0.01	1	0.0021195280005486	1	45	90.4132619230004	NA	1	0	1.21	1	84.1495319989999	84.1516515270005	"6"	6927.196300856	6873.64247712	1.5	0.1
0.01	1	0.00469963700015796	1	45	90.4132619230004	NA	1	0	1.21	1	84.3832932830001	84.3879929200002	"6"	6927.196300856	6873.64247712	1.5	0.1
0.01	1	0.00305948000004719	1	45	90.4132619230004	NA	1	0	1.21	1	84.6170331029998	84.6200925829999	"6"	6927.196300856	6873.64247712	1.5	0.1
0.01	1	0.00405830399995466	1	45	90.4132619230004	NA	1	0	1.21	1	84.850777523	84.854835827	"6"	6927.196300856	6873.64247712	1.5	0.1
0.01	1	0.00445800200031954	1	45	90.4132619230004	NA	1	0	1.21	1	85.0845478680003	85.0890058700006	"6"	6927.196300856	6873.64247712	1.5	0.1
0.01	1	0.131136521999906	1	45	90.4132619230004	NA	1	0	1.21	1	85.3181852730004	85.4493217950003	"6"	6927.196300856	6873.64247712	1.5	0.1
0.01	1	0.00257661299929168	1	45	90.4132619230004	NA	1	0	1.21	1	85.6855541290006	85.6881307419999	"6"	6927.196300856	6873.64247712	1.5	0.1
0.01	1	0.00262797200048226	1	45	90.4132619230004	NA	1	0	1.21	1	85.9192311090001	85.9218590810005	"6"	6927.196300856	6873.64247712	1.5	0.1
0.01	1	0.00219204500081105	1	45	90.4132619230004	NA	1	0	1.21	1	86.1529086179999	86.1551006630007	"6"	6927.196300856	6873.64247712	1.5	0.1
0.01	1	0.00215534200015099	1	45	90.4132619230004	NA	1	0	1.21	1	86.3865643079998	86.38871965	"6"	6927.196300856	6873.64247712	1.5	0.1
0.01	1	0.00407193999944866	1	45	90.4132619230004	NA	1	0	1.21	1	86.6203759750006	86.624447915	"6"	6927.196300856	6873.64247712	1.5	0.1
0.01	1	0.138975163000396	1	45	90.4132619230004	NA	1	0	1.21	1	86.8541582600001	86.9931334230005	"6"	6927.196300856	6873.64247712	1.5	0.1
0.01	1	0.00354718500057061	1	45	90.4132619230004	NA	1	0	1.21	1	87.2213766599998	87.2249238450004	"6"	6927.196300856	6873.64247712	1.5	0.1
0.01	1	0.00464103499962221	1	45	90.4132619230004	NA	1	0	1.21	1	87.4552010080006	87.4598420430002	"6"	6927.196300856	6873.64247712	1.5	0.1
0.01	1	0.00216172199998255	1	45	90.4132619230004	NA	1	0	1.21	1	87.6888436700001	87.6910053920001	"6"	6927.196300856	6873.64247712	1.5	0.1
0.01	1	0.00375462499960122	1	45	90.4132619230004	NA	1	0	1.21	1	87.9225275180006	87.9262821430002	"6"	6927.196300856	6873.64247712	1.5	0.1
0.01	1	0.132883398000558	1	45	90.4132619230004	NA	1	0	1.21	1	88.1562966299998	88.2891800280004	"6"	6927.196300856	6873.64247712	1.5	0.1
0.01	1	0.00233401900004537	1	45	90.4132619230004	NA	1	0	1.21	1	88.5236206790005	88.5259546980005	"6"	6927.196300856	6873.64247712	1.5	0.1
0.01	1	0.00209274999997433	1	45	90.4132619230004	NA	1	0	1.21	1	88.7573373770001	88.7594301270001	"6"	6927.196300856	6873.64247712	1.5	0.1
0.01	1	0.00212579799972445	1	45	90.4132619230004	NA	1	0	1.21	1	88.9910917570005	88.9932175550002	"6"	6927.196300856	6873.64247712	1.5	0.1
0.01	1	0.00401175200022408	1	45	90.4132619230004	NA	1	0	1.21	1	89.2247594930004	89.2287712450006	"6"	6927.196300856	6873.64247712	1.5	0.1
0.01	1	0.00394061699989834	1	45	90.4132619230004	NA	1	0	1.21	1	89.4584470600003	89.4623876770002	"6"	6927.196300856	6873.64247712	1.5	0.1
0.01	1	0.141829189999953	1	45	90.4132619230004	NA	1	0	1.21	1	89.692223088	89.8340522779999	"6"	6927.196300856	6873.64247712	1.5	0.1
0.01	1	0.0079606210001657	1	45	90.4132619230004	NA	1	0	1.21	1	90.0594645219999	90.067425143	"6"	6927.196300856	6873.64247712	1.5	0.1
0.01	1	0.00339349000023503	1	45	90.4132619230004	NA	1	0	1.21	1	90.2931453310002	90.2965388210005	"6"	6927.196300856	6873.64247712	1.5	0.1
0.01	1	1.91346877500018	1	10	96.6243185200001	NA	1	0	1.21	1	92.4635266129999	94.3769953880001	"7"	6927.196300856	6873.64247712	1.5	0.1
0.01	1	0.010785143999783	1	10	96.6243185200001	NA	1	0	1.21	1	94.6171405530004	94.6279256970001	"7"	6927.196300856	6873.64247712	1.5	0.1
0.01	1	0.00626143899989984	1	10	96.6243185200001	NA	1	0	1.21	1	94.8508953690007	94.8571568080006	"7"	6927.196300856	6873.64247712	1.5	0.1
0.01	1	0.0138982580001539	1	10	96.6243185200001	NA	1	0	1.21	1	95.0845881100004	95.0984863680005	"7"	6927.196300856	6873.64247712	1.5	0.1
0.01	1	0.00233326899979147	1	10	96.6243185200001	NA	1	0	1.21	1	95.3350884060001	95.3374216749999	"7"	6927.196300856	6873.64247712	1.5	0.1
0.01	1	0.00261003899959178	1	10	96.6243185200001	NA	1	0	1.21	1	95.5687157350003	95.5713257739999	"7"	6927.196300856	6873.64247712	1.5	0.1
0.01	1	0.0024964699996417	1	10	96.6243185200001	NA	1	0	1.21	1	95.8024240390005	95.8049205090001	"7"	6927.196300856	6873.64247712	1.5	0.1
0.01	1	0.00401366799997049	1	10	96.6243185200001	NA	1	0	1.21	1	96.0361611830003	96.0401748510003	"7"	6927.196300856	6873.64247712	1.5	0.1
0.01	1	0.00404725000043982	1	10	96.6243185200001	NA	1	0	1.21	1	96.2699102750003	96.2739575250007	"7"	6927.196300856	6873.64247712	1.5	0.1
0.01	1	0.00395266899977287	1	10	96.6243185200001	NA	1	0	1.21	1	96.5036991100005	96.5076517790003	"7"	6927.196300856	6873.64247712	1.5	0.1
0.01	1	0.511697772000844	1	37	NA	108.500141789	0	0.16	1.37	1	98.6740197099998	99.1857174820007	"8"	6927.196300856	6873.64247712	1.5	0.1
0.01	1	0.00444094500016945	1	37	NA	108.500141789	0	0.16	1.37	1	99.4252294580001	99.4296704030003	"8"	6927.196300856	6873.64247712	1.5	0.1
0.01	1	0.00274905600053899	1	37	NA	108.500141789	0	0.16	1.37	1	99.6588697890002	99.6616188450007	"8"	6927.196300856	6873.64247712	1.5	0.1
0.01	1	0.00406129099974351	1	37	NA	108.500141789	0	0.16	1.37	1	99.8926295700003	99.896690861	"8"	6927.196300856	6873.64247712	1.5	0.1
0.01	1	0.00217960999998468	1	37	NA	108.500141789	0	0.16	1.37	1	100.126436070001	100.128615680001	"8"	6927.196300856	6873.64247712	1.5	0.1
0.01	1	0.162195220000285	1	37	NA	108.500141789	0	0.16	1.37	1	100.360185208	100.522380428	"8"	6927.196300856	6873.64247712	1.5	0.1
0.01	1	0.0409498690005421	1	37	NA	108.500141789	0	0.16	1.37	1	100.744125538	100.785075407	"8"	6927.196300856	6873.64247712	1.5	0.1
0.01	1	0.00694887400004518	1	37	NA	108.500141789	0	0.16	1.37	1	101.011246875	101.018195749	"8"	6927.196300856	6873.64247712	1.5	0.1
0.01	1	0.002882268000576	1	37	NA	108.500141789	0	0.16	1.37	1	101.244981899	101.247864167	"8"	6927.196300856	6873.64247712	1.5	0.1
0.01	1	0.242193725000106	1	37	NA	108.500141789	0	0.16	1.37	1	101.478774138001	101.720967863001	"8"	6927.196300856	6873.64247712	1.5	0.1
0.01	1	0.0794044250005754	1	37	NA	108.500141789	0	0.16	1.37	1	101.946176548	102.025580973001	"8"	6927.196300856	6873.64247712	1.5	0.1
0.01	1	0.0116451489993779	1	37	NA	108.500141789	0	0.16	1.37	1	102.263406818	102.275051967	"8"	6927.196300856	6873.64247712	1.5	0.1
0.01	1	1.03257157999997	1	37	NA	108.500141789	0	0.16	1.37	1	102.513709758	103.546281338	"8"	6927.196300856	6873.64247712	1.5	0.1
0.01	1	1.95462724800018	1	37	NA	108.500141789	0	0.16	1.37	1	103.7825903	105.737217548	"8"	6927.196300856	6873.64247712	1.5	0.1
0.01	1	0.511252411999521	1	37	NA	108.500141789	0	0.16	1.37	1	105.969543943001	106.480796355	"8"	6927.196300856	6873.64247712	1.5	0.1
0.01	1	0.569100809000702	1	37	NA	108.500141789	0	0.16	1.37	1	106.704119133	107.273219942001	"8"	6927.196300856	6873.64247712	1.5	0.1
0.01	1	0.993113096000343	2	37	NA	108.500141789	0	0.16	1.37	1	107.505477183	108.498590279	"8"	6927.196300856	6873.64247712	1.5	0.1
0.01	1	0.425787133000085	1	108	NA	115.946301971	0	0.12	1.49	1	110.543996718	110.969783851	"9"	6927.196300856	6873.64247712	1.5	0.1
0.01	1	0.0139635250006904	1	108	NA	115.946301971	0	0.12	1.49	1	111.195081723	111.209045248001	"9"	6927.196300856	6873.64247712	1.5	0.1
0.01	1	0.00234555500082934	1	108	NA	115.946301971	0	0.12	1.49	1	111.445484688	111.447830243001	"9"	6927.196300856	6873.64247712	1.5	0.1
0.01	1	0.00415353800053708	1	108	NA	115.946301971	0	0.12	1.49	1	111.679246793	111.683400331	"9"	6927.196300856	6873.64247712	1.5	0.1
0.01	1	0.00391294100063533	1	108	NA	115.946301971	0	0.12	1.49	1	111.9128559	111.916768841001	"9"	6927.196300856	6873.64247712	1.5	0.1
0.01	1	0.030993510999906	1	108	NA	115.946301971	0	0.12	1.49	1	112.146683803	112.177677314	"9"	6927.196300856	6873.64247712	1.5	0.1
0.01	1	0.186868181999671	1	108	NA	115.946301971	0	0.12	1.49	1	112.413727900001	112.600596082	"9"	6927.196300856	6873.64247712	1.5	0.1
0.01	1	0.0579698430001372	1	108	NA	115.946301971	0	0.12	1.49	1	112.83113946	112.889109303001	"9"	6927.196300856	6873.64247712	1.5	0.1
0.01	1	0.0864673839996613	1	108	NA	115.946301971	0	0.12	1.49	1	113.114890945	113.201358329	"9"	6927.196300856	6873.64247712	1.5	0.1
0.01	1	0.057479102999423	1	108	NA	115.946301971	0	0.12	1.49	1	113.432150348001	113.489629451	"9"	6927.196300856	6873.64247712	1.5	0.1
0.01	1	0.406099259999792	1	108	NA	115.946301971	0	0.12	1.49	1	113.715939413	114.122038673	"9"	6927.196300856	6873.64247712	1.5	0.1
0.01	1	0.274549503999879	1	108	NA	115.946301971	0	0.12	1.49	1	114.350362732001	114.624912236	"9"	6927.196300856	6873.64247712	1.5	0.1
0.01	1	1.09355931999926	2	108	NA	115.946301971	0	0.12	1.49	1	114.851173798001	115.944733118	"9"	6927.196300856	6873.64247712	1.5	0.1
0.01	1	0.435342372000378	1	18	NA	124.212255467	0	0.16	1.65	1	117.98979021	118.425132582001	"10"	6927.196300856	6873.64247712	1.5	0.1
0.01	1	0.0319619150004655	1	18	NA	124.212255467	0	0.16	1.65	1	118.6575652	118.689527115001	"10"	6927.196300856	6873.64247712	1.5	0.1
0.01	1	0.0773780610006725	1	18	NA	124.212255467	0	0.16	1.65	1	118.924785843	119.002163904001	"10"	6927.196300856	6873.64247712	1.5	0.1
0.01	1	0.103622022000309	1	18	NA	124.212255467	0	0.16	1.65	1	119.225193298	119.32881532	"10"	6927.196300856	6873.64247712	1.5	0.1
0.01	1	0.114769649999289	1	18	NA	124.212255467	0	0.16	1.65	1	119.559108228001	119.673877878	"10"	6927.196300856	6873.64247712	1.5	0.1
0.01	1	0.0921057949999522	1	18	NA	124.212255467	0	0.16	1.65	1	119.90967436	120.001780155	"10"	6927.196300856	6873.64247712	1.5	0.1
0.01	1	0.133844257000419	1	18	NA	124.212255467	0	0.16	1.65	1	120.226976348	120.360820605	"10"	6927.196300856	6873.64247712	1.5	0.1
0.01	1	0.104209845000696	1	18	NA	124.212255467	0	0.16	1.65	1	120.594134655	120.698344500001	"10"	6927.196300856	6873.64247712	1.5	0.1
0.01	1	0.088638641000216	1	18	NA	124.212255467	0	0.16	1.65	1	120.928035373	121.016674014	"10"	6927.196300856	6873.64247712	1.5	0.1
0.01	1	0.149228737000158	1	18	NA	124.212255467	0	0.16	1.65	1	121.245289353	121.39451809	"10"	6927.196300856	6873.64247712	1.5	0.1
0.01	1	0.0931203199997981	1	18	NA	124.212255467	0	0.16	1.65	1	121.629260293001	121.722380613	"10"	6927.196300856	6873.64247712	1.5	0.1
0.01	1	0.110929450000185	1	18	NA	124.212255467	0	0.16	1.65	1	121.946500778	122.057430228	"10"	6927.196300856	6873.64247712	1.5	0.1
0.01	1	0.105338952000238	1	18	NA	124.212255467	0	0.16	1.65	1	122.280324333	122.385663285	"10"	6927.196300856	6873.64247712	1.5	0.1
0.01	1	0.122437392999927	1	18	NA	124.212255467	0	0.16	1.65	1	122.614273115	122.736710508	"10"	6927.196300856	6873.64247712	1.5	0.1
0.01	1	0.148626469000192	1	18	NA	124.212255467	0	0.16	1.65	1	122.964860078	123.113486547	"10"	6927.196300856	6873.64247712	1.5	0.1
0.01	1	0.100916728999437	1	18	NA	124.212255467	0	0.16	1.65	1	123.348900890001	123.449817619	"10"	6927.196300856	6873.64247712	1.5	0.1
0.01	1	0.527999357999761	2	18	NA	124.212255467	0	0.16	1.65	1	123.68271142	124.210710778	"10"	6927.196300856	6873.64247712	1.5	0.1
0.01	1	0.668298041000526	1	2	127.408708030001	NA	1	0	1.65	1	126.25367518	126.921973221	"11"	6927.196300856	6873.64247712	1.5	0.1
0.01	1	0.142413053000382	1	2	127.408708030001	NA	1	0	1.65	1	127.155220132	127.297633185	"11"	6927.196300856	6873.64247712	1.5	0.1
0.01	1	0.767374080000081	1	107	NA	157.155254873001	0	0.26	1.91	1	129.442388813	130.209762893001	"12"	6927.196300856	6873.64247712	1.5	0.1
0.01	1	0.429237149000073	1	107	NA	157.155254873001	0	0.26	1.91	1	130.444066958	130.873304107	"12"	6927.196300856	6873.64247712	1.5	0.1
0.01	1	0.418917742999838	1	107	NA	157.155254873001	0	0.26	1.91	1	131.111864633001	131.530782376	"12"	6927.196300856	6873.64247712	1.5	0.1
0.01	1	0.341871474999607	1	107	NA	157.155254873001	0	0.26	1.91	1	131.76300657	132.104878045	"12"	6927.196300856	6873.64247712	1.5	0.1
0.01	1	0.448007455000152	1	107	NA	157.155254873001	0	0.26	1.91	1	132.330577738	132.778585193	"12"	6927.196300856	6873.64247712	1.5	0.1
0.01	1	0.347090672999911	1	107	NA	157.155254873001	0	0.26	1.91	1	133.015148198	133.362238871	"12"	6927.196300856	6873.64247712	1.5	0.1
0.01	1	0.33929110400004	1	107	NA	157.155254873001	0	0.26	1.91	1	133.599373688	133.938664792	"12"	6927.196300856	6873.64247712	1.5	0.1
0.01	1	1.05098171700047	1	107	NA	157.155254873001	0	0.26	1.91	1	134.167128538	135.218110255	"12"	6927.196300856	6873.64247712	1.5	0.1
0.01	1	0.53294000599999	1	107	NA	157.155254873001	0	0.26	1.91	1	135.452519093	135.985459099	"12"	6927.196300856	6873.64247712	1.5	0.1
0.01	1	0.397978607999903	1	107	NA	157.155254873001	0	0.26	1.91	1	136.22046958	136.618448188	"12"	6927.196300856	6873.64247712	1.5	0.1
0.01	1	0.499540143000559	1	107	NA	157.155254873001	0	0.26	1.91	1	136.854831398	137.354371541001	"12"	6927.196300856	6873.64247712	1.5	0.1
0.01	1	0.645267333000447	1	107	NA	157.155254873001	0	0.26	1.91	1	137.589409035	138.234676368001	"12"	6927.196300856	6873.64247712	1.5	0.1
0.01	1	1.04856291400029	1	107	NA	157.155254873001	0	0.26	1.91	1	138.457491928	139.506054842001	"12"	6927.196300856	6873.64247712	1.5	0.1
0.01	1	0.507381659999737	1	107	NA	157.155254873001	0	0.26	1.91	1	139.743154243	140.250535903	"12"	6927.196300856	6873.64247712	1.5	0.1
0.01	1	2.65164211499996	1	107	NA	157.155254873001	0	0.26	1.91	1	140.477616268	143.129258383	"12"	6927.196300856	6873.64247712	1.5	0.1
0.01	1	0.948853667000549	1	107	NA	157.155254873001	0	0.26	1.91	1	143.365827838	144.314681505	"12"	6927.196300856	6873.64247712	1.5	0.1
0.01	1	0.875133738999466	1	107	NA	157.155254873001	0	0.26	1.91	1	144.551100268	145.426234007	"12"	6927.196300856	6873.64247712	1.5	0.1
0.01	1	0.84499584599962	1	107	NA	157.155254873001	0	0.26	1.91	1	145.65302716	146.498023006	"12"	6927.196300856	6873.64247712	1.5	0.1
0.01	1	0.71947488800015	1	107	NA	157.155254873001	0	0.26	1.91	1	146.738138053001	147.457612941001	"12"	6927.196300856	6873.64247712	1.5	0.1
0.01	1	1.01623277900035	1	107	NA	157.155254873001	0	0.26	1.91	1	147.68969449	148.705927269	"12"	6927.196300856	6873.64247712	1.5	0.1
0.01	1	0.740933029999724	1	107	NA	157.155254873001	0	0.26	1.91	1	148.941818015001	149.682751045	"12"	6927.196300856	6873.64247712	1.5	0.1
0.01	1	0.851981081000304	1	107	NA	157.155254873001	0	0.26	1.91	1	149.9102466	150.762227681001	"12"	6927.196300856	6873.64247712	1.5	0.1
0.01	1	1.17329764099941	1	107	NA	157.155254873001	0	0.26	1.91	1	150.995301675001	152.168599316	"12"	6927.196300856	6873.64247712	1.5	0.1
0.01	1	0.972819128999618	1	107	NA	157.155254873001	0	0.26	1.91	1	152.397673952	153.370493081	"12"	6927.196300856	6873.64247712	1.5	0.1
0.01	1	1.54700203499942	1	107	NA	157.155254873001	0	0.26	1.91	1	153.59973683	155.146738865	"12"	6927.196300856	6873.64247712	1.5	0.1
0.01	1	0.943324982000377	1	107	NA	157.155254873001	0	0.26	1.91	1	155.385999508	156.329324490001	"12"	6927.196300856	6873.64247712	1.5	0.1
0.01	1	0.599031828999614	2	107	NA	157.155254873001	0	0.26	1.91	1	156.554665350001	157.153697179	"12"	6927.196300856	6873.64247712	1.5	0.1
0.01	1	0.832906229999935	1	119	NA	178.451668041001	0	0.41	2.32	1	159.209155123001	160.042061353	"13"	6927.196300856	6873.64247712	1.5	0.1
0.01	1	0.147408832999645	1	119	NA	178.451668041001	0	0.41	2.32	1	160.277550138	160.424958971	"13"	6927.196300856	6873.64247712	1.5	0.1
0.01	1	0.131173714999932	1	119	NA	178.451668041001	0	0.41	2.32	1	160.66157192	160.792745635	"13"	6927.196300856	6873.64247712	1.5	0.1
0.01	1	0.11604326899942	1	119	NA	178.451668041001	0	0.41	2.32	1	161.028907413001	161.144950682	"13"	6927.196300856	6873.64247712	1.5	0.1
0.01	1	0.157282679999298	1	119	NA	178.451668041001	0	0.41	2.32	1	161.379418375001	161.536701055	"13"	6927.196300856	6873.64247712	1.5	0.1
0.01	1	0.0952475770000092	1	119	NA	178.451668041001	0	0.41	2.32	1	161.76337908	161.858626657	"13"	6927.196300856	6873.64247712	1.5	0.1
0.01	1	0.0804859439995198	1	119	NA	178.451668041001	0	0.41	2.32	1	162.097334263	162.177820207	"13"	6927.196300856	6873.64247712	1.5	0.1
0.01	1	0.0909552269995402	1	119	NA	178.451668041001	0	0.41	2.32	1	162.414806008001	162.505761235	"13"	6927.196300856	6873.64247712	1.5	0.1
0.01	1	0.102634525999747	1	119	NA	178.451668041001	0	0.41	2.32	1	162.731769118001	162.834403644	"13"	6927.196300856	6873.64247712	1.5	0.1
0.01	1	0.0876623029998882	1	119	NA	178.451668041001	0	0.41	2.32	1	163.065657388001	163.153319691	"13"	6927.196300856	6873.64247712	1.5	0.1
0.01	1	0.0658606329998292	1	119	NA	178.451668041001	0	0.41	2.32	1	163.382885323001	163.448745956	"13"	6927.196300856	6873.64247712	1.5	0.1
0.01	1	0.0941079370004445	1	119	NA	178.451668041001	0	0.41	2.32	1	163.683299773	163.77740771	"13"	6927.196300856	6873.64247712	1.5	0.1
0.01	1	0.106041258000005	1	119	NA	178.451668041001	0	0.41	2.32	1	164.000623033	164.106664291	"13"	6927.196300856	6873.64247712	1.5	0.1
0.01	1	0.0747782979997282	1	119	NA	178.451668041001	0	0.41	2.32	1	164.334553913	164.409332211	"13"	6927.196300856	6873.64247712	1.5	0.1
0.01	1	0.365958708000107	1	119	NA	178.451668041001	0	0.41	2.32	1	164.63498468	165.000943388	"13"	6927.196300856	6873.64247712	1.5	0.1
0.01	1	0.0446824270002253	1	119	NA	178.451668041001	0	0.41	2.32	1	165.236026833	165.280709260001	"13"	6927.196300856	6873.64247712	1.5	0.1
0.01	1	0.0255646730001899	1	119	NA	178.451668041001	0	0.41	2.32	1	165.503078768	165.528643441	"13"	6927.196300856	6873.64247712	1.5	0.1
0.01	1	0.00408223799968255	1	119	NA	178.451668041001	0	0.41	2.32	1	165.753463205	165.757545443	"13"	6927.196300856	6873.64247712	1.5	0.1
0.01	1	0.0218029249999745	1	119	NA	178.451668041001	0	0.41	2.32	1	165.987191213	166.008994138	"13"	6927.196300856	6873.64247712	1.5	0.1
0.01	1	0.524859750999894	1	119	NA	178.451668041001	0	0.41	2.32	1	166.237595888	166.762455639	"13"	6927.196300856	6873.64247712	1.5	0.1
0.01	1	0.00229790299999877	1	119	NA	178.451668041001	0	0.41	2.32	1	166.988873497	166.9911714	"13"	6927.196300856	6873.64247712	1.5	0.1
0.01	1	0.0041103479998128	1	119	NA	178.451668041001	0	0.41	2.32	1	167.222726103	167.226836451	"13"	6927.196300856	6873.64247712	1.5	0.1
0.01	1	0.00276141599988478	1	119	NA	178.451668041001	0	0.41	2.32	1	167.456341087001	167.459102503	"13"	6927.196300856	6873.64247712	1.5	0.1
0.01	1	0.464426131999971	1	119	NA	178.451668041001	0	0.41	2.32	1	167.690088848	168.15451498	"13"	6927.196300856	6873.64247712	1.5	0.1
0.01	1	0.0420639499998288	1	119	NA	178.451668041001	0	0.41	2.32	1	168.39130122	168.43336517	"13"	6927.196300856	6873.64247712	1.5	0.1
0.01	1	0.07968730399989	1	119	NA	178.451668041001	0	0.41	2.32	1	168.65834222	168.738029524	"13"	6927.196300856	6873.64247712	1.5	0.1
0.01	1	0.633651330000248	1	119	NA	178.451668041001	0	0.41	2.32	1	168.975561483	169.609212813	"13"	6927.196300856	6873.64247712	1.5	0.1
0.01	1	0.0623417870001504	1	119	NA	178.451668041001	0	0.41	2.32	1	169.84358218	169.905923967	"13"	6927.196300856	6873.64247712	1.5	0.1
0.01	1	0.114192523999918	1	119	NA	178.451668041001	0	0.41	2.32	1	170.144171725	170.258364249	"13"	6927.196300856	6873.64247712	1.5	0.1
0.01	1	0.651514773000599	1	119	NA	178.451668041001	0	0.41	2.32	1	170.49481138	171.146326153001	"13"	6927.196300856	6873.64247712	1.5	0.1
0.01	1	0.125692317999892	1	119	NA	178.451668041001	0	0.41	2.32	1	171.379642018001	171.505334336	"13"	6927.196300856	6873.64247712	1.5	0.1
0.01	1	2.24818079900069	1	119	NA	178.451668041001	0	0.41	2.32	1	171.730151023	173.978331822001	"13"	6927.196300856	6873.64247712	1.5	0.1
0.01	1	0.0721342979995825	1	119	NA	178.451668041001	0	0.41	2.32	1	174.217747223001	174.289881521	"13"	6927.196300856	6873.64247712	1.5	0.1
0.01	1	0.0835904899995512	1	119	NA	178.451668041001	0	0.41	2.32	1	174.518293073001	174.601883563	"13"	6927.196300856	6873.64247712	1.5	0.1
0.01	1	0.0532172809998883	1	119	NA	178.451668041001	0	0.41	2.32	1	174.835518463	174.888735744	"13"	6927.196300856	6873.64247712	1.5	0.1
0.01	1	0.417866892000347	1	119	NA	178.451668041001	0	0.41	2.32	1	175.119202555	175.537069447	"13"	6927.196300856	6873.64247712	1.5	0.1
0.01	1	0.0549877600005857	1	119	NA	178.451668041001	0	0.41	2.32	1	175.770382748	175.825370508001	"13"	6927.196300856	6873.64247712	1.5	0.1
0.01	1	0.404444392999721	1	119	NA	178.451668041001	0	0.41	2.32	1	176.054158700001	176.458603093	"13"	6927.196300856	6873.64247712	1.5	0.1
0.01	1	0.0893857940000089	1	119	NA	178.451668041001	0	0.41	2.32	1	176.68850887	176.777894664	"13"	6927.196300856	6873.64247712	1.5	0.1
0.01	1	0.420188584000243	1	119	NA	178.451668041001	0	0.41	2.32	1	177.005792943	177.425981527001	"13"	6927.196300856	6873.64247712	1.5	0.1
0.01	1	0.0738835800002562	1	119	NA	178.451668041001	0	0.41	2.32	1	177.656863028	177.730746608	"13"	6927.196300856	6873.64247712	1.5	0.1
0.01	1	0.492775867000091	2	119	NA	178.451668041001	0	0.41	2.32	1	177.95732742	178.450103287	"13"	6927.196300856	6873.64247712	1.5	0.1
0.01	1	0.915790228999867	1	71	NA	194.867181722	0	0.22	2.54	1	180.478239808001	181.394030037	"14"	6927.196300856	6873.64247712	1.5	0.1
0.01	1	0.0195698799998354	1	71	NA	194.867181722	0	0.22	2.54	1	181.63014561	181.64971549	"14"	6927.196300856	6873.64247712	1.5	0.1
0.01	1	0.0261829920000309	1	71	NA	194.867181722	0	0.22	2.54	1	181.88062481	181.906807802	"14"	6927.196300856	6873.64247712	1.5	0.1
0.01	1	0.0296821659994748	1	71	NA	194.867181722	0	0.22	2.54	1	182.131110758	182.160792924	"14"	6927.196300856	6873.64247712	1.5	0.1
0.01	1	0.0113680140002543	1	71	NA	194.867181722	0	0.22	2.54	1	182.398186783	182.409554797	"14"	6927.196300856	6873.64247712	1.5	0.1
0.01	1	0.0336976750004396	1	71	NA	194.867181722	0	0.22	2.54	1	182.631848563	182.665546238	"14"	6927.196300856	6873.64247712	1.5	0.1
0.01	1	0.0312439400004223	1	71	NA	194.867181722	0	0.22	2.54	1	182.89900923	182.93025317	"14"	6927.196300856	6873.64247712	1.5	0.1
0.01	1	0.00454790000003413	1	71	NA	194.867181722	0	0.22	2.54	1	183.166102203	183.170650103	"14"	6927.196300856	6873.64247712	1.5	0.1
0.01	1	0.0425083580003047	1	71	NA	194.867181722	0	0.22	2.54	1	183.399819133	183.442327491	"14"	6927.196300856	6873.64247712	1.5	0.1
0.01	1	0.0220094549995338	1	71	NA	194.867181722	0	0.22	2.54	1	183.683546578	183.705556033	"14"	6927.196300856	6873.64247712	1.5	0.1
0.01	1	1.5404231399998	1	71	NA	194.867181722	0	0.22	2.54	1	183.934107293	185.474530433	"14"	6927.196300856	6873.64247712	1.5	0.1
0.01	1	0.0493628900003387	1	71	NA	194.867181722	0	0.22	2.54	1	185.703743391	185.753106281	"14"	6927.196300856	6873.64247712	1.5	0.1
0.01	1	1.09467268699973	1	71	NA	194.867181722	0	0.22	2.54	1	185.987578508	187.082251195	"14"	6927.196300856	6873.64247712	1.5	0.1
0.01	1	0.254876353999862	1	71	NA	194.867181722	0	0.22	2.54	1	187.323088523	187.577964877	"14"	6927.196300856	6873.64247712	1.5	0.1
0.01	1	1.09125337800015	1	71	NA	194.867181722	0	0.22	2.54	1	187.807265118	188.898518496	"14"	6927.196300856	6873.64247712	1.5	0.1
0.01	1	0.283612604000155	1	71	NA	194.867181722	0	0.22	2.54	1	189.126136378	189.409748982001	"14"	6927.196300856	6873.64247712	1.5	0.1
0.01	1	0.886672194000312	1	71	NA	194.867181722	0	0.22	2.54	1	189.643723123	190.530395317001	"14"	6927.196300856	6873.64247712	1.5	0.1
0.01	1	0.311893611999949	1	71	NA	194.867181722	0	0.22	2.54	1	190.762222595	191.074116207	"14"	6927.196300856	6873.64247712	1.5	0.1
0.01	1	0.641963908999969	1	71	NA	194.867181722	0	0.22	2.54	1	191.296404713	191.938368622	"14"	6927.196300856	6873.64247712	1.5	0.1
0.01	1	0.292540281999209	1	71	NA	194.867181722	0	0.22	2.54	1	192.164472920001	192.457013202	"14"	6927.196300856	6873.64247712	1.5	0.1
0.01	1	0.76664234800046	1	71	NA	194.867181722	0	0.22	2.54	1	192.68200651	193.448648858001	"14"	6927.196300856	6873.64247712	1.5	0.1
0.01	1	0.238750063000225	1	71	NA	194.867181722	0	0.22	2.54	1	193.683778399	193.922528462001	"14"	6927.196300856	6873.64247712	1.5	0.1
0.01	1	0.714322085999811	2	71	NA	194.867181722	0	0.22	2.54	1	194.151282055001	194.865604141	"14"	6927.196300856	6873.64247712	1.5	0.1
0.01	1	0.967438829000457	1	32	214.722262873001	NA	1	0	2.54	1	196.905811028	197.873249857001	"15"	6927.196300856	6873.64247712	1.5	0.1
0.01	1	0.174393880000025	1	32	214.722262873001	NA	1	0	2.54	1	198.107872543001	198.282266423001	"15"	6927.196300856	6873.64247712	1.5	0.1
0.01	1	0.110138400000324	1	32	214.722262873001	NA	1	0	2.54	1	198.508600063	198.618738463	"15"	6927.196300856	6873.64247712	1.5	0.1
0.01	1	0.134460536000006	1	32	214.722262873001	NA	1	0	2.54	1	198.842486623001	198.976947159001	"15"	6927.196300856	6873.64247712	1.5	0.1
0.01	1	0.127549095000177	1	32	214.722262873001	NA	1	0	2.54	1	199.209705153	199.337254248	"15"	6927.196300856	6873.64247712	1.5	0.1
0.01	1	0.096973620999961	1	32	214.722262873001	NA	1	0	2.54	1	199.560274763	199.657248384	"15"	6927.196300856	6873.64247712	1.5	0.1
0.01	1	0.0679984830003377	1	32	214.722262873001	NA	1	0	2.54	1	199.894204215	199.962202698001	"15"	6927.196300856	6873.64247712	1.5	0.1
0.01	1	0.103292884000439	1	32	214.722262873001	NA	1	0	2.54	1	200.194777248	200.298070132	"15"	6927.196300856	6873.64247712	1.5	0.1
0.01	1	0.136534294999365	1	32	214.722262873001	NA	1	0	2.54	1	200.528584078001	200.665118373	"15"	6927.196300856	6873.64247712	1.5	0.1
0.01	1	0.0905037689999517	1	32	214.722262873001	NA	1	0	2.54	1	200.895927833	200.986431602	"15"	6927.196300856	6873.64247712	1.5	0.1
0.01	1	0.948101137999402	1	32	214.722262873001	NA	1	0	2.54	1	201.213103683001	202.161204821	"15"	6927.196300856	6873.64247712	1.5	0.1
0.01	1	0.202755532000083	1	32	214.722262873001	NA	1	0	2.54	1	202.398530779	202.601286311	"15"	6927.196300856	6873.64247712	1.5	0.1
0.01	1	0.152800865000245	1	32	214.722262873001	NA	1	0	2.54	1	202.832504228	202.985305093001	"15"	6927.196300856	6873.64247712	1.5	0.1
0.01	1	0.720601958999396	1	32	214.722262873001	NA	1	0	2.54	1	203.21655564	203.937157599	"15"	6927.196300856	6873.64247712	1.5	0.1
0.01	1	0.3624269740003	1	32	214.722262873001	NA	1	0	2.54	1	204.168061943	204.530488917	"15"	6927.196300856	6873.64247712	1.5	0.1
0.01	1	0.264248118999603	1	32	214.722262873001	NA	1	0	2.54	1	204.769056300001	205.033304419	"15"	6927.196300856	6873.64247712	1.5	0.1
0.01	1	1.20407978300045	1	32	214.722262873001	NA	1	0	2.54	1	205.269996438	206.474076221	"15"	6927.196300856	6873.64247712	1.5	0.1
0.01	1	0.193017949999557	1	32	214.722262873001	NA	1	0	2.54	1	206.705663288	206.898681238	"15"	6927.196300856	6873.64247712	1.5	0.1
0.01	1	0.197506635000536	1	32	214.722262873001	NA	1	0	2.54	1	207.12315184	207.320658475001	"15"	6927.196300856	6873.64247712	1.5	0.1
0.01	1	0.165144919999875	1	32	214.722262873001	NA	1	0	2.54	1	207.557041468001	207.722186388	"15"	6927.196300856	6873.64247712	1.5	0.1
0.01	1	0.203226205000647	1	32	214.722262873001	NA	1	0	2.54	1	207.957757843	208.160984048001	"15"	6927.196300856	6873.64247712	1.5	0.1
0.01	1	0.178825475999474	1	32	214.722262873001	NA	1	0	2.54	1	208.391816543	208.570642019	"15"	6927.196300856	6873.64247712	1.5	0.1
0.01	1	0.210070254999664	1	32	214.722262873001	NA	1	0	2.54	1	208.792558118001	209.002628373	"15"	6927.196300856	6873.64247712	1.5	0.1
0.01	1	0.174747531999856	1	32	214.722262873001	NA	1	0	2.54	1	209.226583663	209.401331195	"15"	6927.196300856	6873.64247712	1.5	0.1
0.01	1	0.174689438999849	1	32	214.722262873001	NA	1	0	2.54	1	209.627264258001	209.801953697	"15"	6927.196300856	6873.64247712	1.5	0.1
0.01	1	0.15879030799988	1	32	214.722262873001	NA	1	0	2.54	1	210.027870913001	210.186661221001	"15"	6927.196300856	6873.64247712	1.5	0.1
0.01	1	0.197189350000372	1	32	214.722262873001	NA	1	0	2.54	1	210.411912988	210.609102338	"15"	6927.196300856	6873.64247712	1.5	0.1
0.01	1	0.19605871099975	1	32	214.722262873001	NA	1	0	2.54	1	210.846067108	211.042125819	"15"	6927.196300856	6873.64247712	1.5	0.1
0.01	1	0.194228262999786	1	32	214.722262873001	NA	1	0	2.54	1	211.280086275	211.474314538	"15"	6927.196300856	6873.64247712	1.5	0.1
0.01	1	0.137003694999294	1	32	214.722262873001	NA	1	0	2.54	1	211.697414603001	211.834418298	"15"	6927.196300856	6873.64247712	1.5	0.1
0.01	1	2.06530511999972	1	32	214.722262873001	NA	1	0	2.54	1	212.064702915	214.130008035	"15"	6927.196300856	6873.64247712	1.5	0.1
0.01	1	0.232429059000424	1	32	214.722262873001	NA	1	0	2.54	1	214.368600668	214.601029727	"15"	6927.196300856	6873.64247712	1.5	0.1
0.01	1	1.61410351199993	1	7	219.964438748	NA	1	0	2.54	1	216.75594403	218.370047542	"16"	6927.196300856	6873.64247712	1.5	0.1
0.01	1	0.0256024359996445	1	7	219.964438748	NA	1	0	2.54	1	218.608991028001	218.634593464	"16"	6927.196300856	6873.64247712	1.5	0.1
0.01	1	0.0551409099998637	1	7	219.964438748	NA	1	0	2.54	1	218.859455362001	218.914596272	"16"	6927.196300856	6873.64247712	1.5	0.1
0.01	1	0.0115210740004841	1	7	219.964438748	NA	1	0	2.54	1	219.143466703	219.154987777	"16"	6927.196300856	6873.64247712	1.5	0.1
0.01	1	0.00251019099960104	1	7	219.964438748	NA	1	0	2.54	1	219.376939301001	219.379449492	"16"	6927.196300856	6873.64247712	1.5	0.1
0.01	1	0.00257664399941859	1	7	219.964438748	NA	1	0	2.54	1	219.610807841001	219.613384485	"16"	6927.196300856	6873.64247712	1.5	0.1
0.01	1	0.00235012500070297	1	7	219.964438748	NA	1	0	2.54	1	219.844459123	219.846809248001	"16"	6927.196300856	6873.64247712	1.5	0.1
0.01	1	0.570080801000586	1	49	NA	229.290589891	0	0.2	2.74	1	222.014802918	222.584883719001	"17"	6927.196300856	6873.64247712	1.5	0.1
0.01	1	0.11395322000044	1	49	NA	229.290589891	0	0.2	2.74	1	222.816103288	222.930056508	"17"	6927.196300856	6873.64247712	1.5	0.1
0.01	1	0.042610939000042	1	49	NA	229.290589891	0	0.2	2.74	1	223.166768893	223.209379832	"17"	6927.196300856	6873.64247712	1.5	0.1
0.01	1	0.128529831000378	1	49	NA	229.290589891	0	0.2	2.74	1	223.433776033	223.562305864	"17"	6927.196300856	6873.64247712	1.5	0.1
0.01	1	0.0894042039999476	1	49	NA	229.290589891	0	0.2	2.74	1	223.784461998001	223.873866202	"17"	6927.196300856	6873.64247712	1.5	0.1
0.01	1	0.0926381130002483	1	49	NA	229.290589891	0	0.2	2.74	1	224.101585718	224.194223831	"17"	6927.196300856	6873.64247712	1.5	0.1
0.01	1	0.0714734619996307	1	49	NA	229.290589891	0	0.2	2.74	1	224.418729380001	224.490202842	"17"	6927.196300856	6873.64247712	1.5	0.1
0.01	1	0.0431222690003779	1	49	NA	229.290589891	0	0.2	2.74	1	224.719257478	224.762379747001	"17"	6927.196300856	6873.64247712	1.5	0.1
0.01	1	0.127290953999363	1	49	NA	229.290589891	0	0.2	2.74	1	224.986411413	225.113702367	"17"	6927.196300856	6873.64247712	1.5	0.1
0.01	1	0.0561931900001582	1	49	NA	229.290589891	0	0.2	2.74	1	225.33710934	225.39330253	"17"	6927.196300856	6873.64247712	1.5	0.1
0.01	1	0.0374147790007555	1	49	NA	229.290589891	0	0.2	2.74	1	225.620854078	225.658268857001	"17"	6927.196300856	6873.64247712	1.5	0.1
0.01	1	0.0741802810007357	1	49	NA	229.290589891	0	0.2	2.74	1	225.887973809	225.962154090001	"17"	6927.196300856	6873.64247712	1.5	0.1
0.01	1	0.0456089899998915	1	49	NA	229.290589891	0	0.2	2.74	1	226.188468643	226.234077633	"17"	6927.196300856	6873.64247712	1.5	0.1
0.01	1	0.0503474990000541	1	49	NA	229.290589891	0	0.2	2.74	1	226.455638325	226.505985824	"17"	6927.196300856	6873.64247712	1.5	0.1
0.01	1	0.0621101630003977	1	49	NA	229.290589891	0	0.2	2.74	1	226.739412301	226.801522464	"17"	6927.196300856	6873.64247712	1.5	0.1
0.01	1	0.0893112900002961	1	49	NA	229.290589891	0	0.2	2.74	1	227.039940628	227.129251918001	"17"	6927.196300856	6873.64247712	1.5	0.1
0.01	1	0.0694880330001979	1	49	NA	229.290589891	0	0.2	2.74	1	227.357084735	227.426572768	"17"	6927.196300856	6873.64247712	1.5	0.1
0.01	1	0.119789313999718	1	49	NA	229.290589891	0	0.2	2.74	1	227.657630433	227.777419747	"17"	6927.196300856	6873.64247712	1.5	0.1
0.01	1	0.113688532999731	1	49	NA	229.290589891	0	0.2	2.74	1	228.008111195	228.121799728	"17"	6927.196300856	6873.64247712	1.5	0.1
0.01	1	0.0595836859993142	1	49	NA	229.290589891	0	0.2	2.74	1	228.358790570001	228.418374256	"17"	6927.196300856	6873.64247712	1.5	0.1
0.01	1	0.64637232899986	2	49	NA	229.290589891	0	0.2	2.74	1	228.642635293	229.289007622	"17"	6927.196300856	6873.64247712	1.5	0.1
0.01	1	0.685465622000265	1	17	238.22832929	NA	1	0	2.74	1	231.347187983	232.032653605001	"18"	6927.196300856	6873.64247712	1.5	0.1
0.01	1	0.031907474000036	1	17	238.22832929	NA	1	0	2.74	1	232.265293415	232.297200889	"18"	6927.196300856	6873.64247712	1.5	0.1
0.01	1	0.0462432060003266	1	17	238.22832929	NA	1	0	2.74	1	232.532533708	232.578776914001	"18"	6927.196300856	6873.64247712	1.5	0.1
0.01	1	0.0418363999997382	1	17	238.22832929	NA	1	0	2.74	1	232.816164493001	232.858000893	"18"	6927.196300856	6873.64247712	1.5	0.1
0.01	1	0.0466747480004415	1	17	238.22832929	NA	1	0	2.74	1	233.08333555	233.130010298	"18"	6927.196300856	6873.64247712	1.5	0.1
0.01	1	0.00297870599933958	1	17	238.22832929	NA	1	0	2.74	1	233.367141567001	233.370120273	"18"	6927.196300856	6873.64247712	1.5	0.1
0.01	1	0.011098562999905	1	17	238.22832929	NA	1	0	2.74	1	233.600875232	233.611973795	"18"	6927.196300856	6873.64247712	1.5	0.1
0.01	1	0.0620525300000736	1	17	238.22832929	NA	1	0	2.74	1	233.834702463	233.896754993	"18"	6927.196300856	6873.64247712	1.5	0.1
0.01	1	0.0117823929995211	1	17	238.22832929	NA	1	0	2.74	1	234.118482433	234.130264826	"18"	6927.196300856	6873.64247712	1.5	0.1
0.01	1	0.0169712510005411	1	17	238.22832929	NA	1	0	2.74	1	234.368954488	234.385925739	"18"	6927.196300856	6873.64247712	1.5	0.1
0.01	1	0.837621175999629	1	17	238.22832929	NA	1	0	2.74	1	234.619414522001	235.457035698	"18"	6927.196300856	6873.64247712	1.5	0.1
0.01	1	0.00415076900026179	1	17	238.22832929	NA	1	0	2.74	1	235.687722808	235.691873577	"18"	6927.196300856	6873.64247712	1.5	0.1
0.01	1	0.728088402000139	1	17	238.22832929	NA	1	0	2.74	1	235.921461683	236.649550085001	"18"	6927.196300856	6873.64247712	1.5	0.1
0.01	1	0.10446732499986	1	17	238.22832929	NA	1	0	2.74	1	236.873050805	236.97751813	"18"	6927.196300856	6873.64247712	1.5	0.1
0.01	1	0.122902568999962	1	17	238.22832929	NA	1	0	2.74	1	237.206951523	237.329854092	"18"	6927.196300856	6873.64247712	1.5	0.1
0.01	1	0.195288221999363	1	17	238.22832929	NA	1	0	2.74	1	237.557556143001	237.752844365	"18"	6927.196300856	6873.64247712	1.5	0.1
0.01	1	0.131049845000234	1	17	238.22832929	NA	1	0	2.74	1	237.974996643	238.106046488	"18"	6927.196300856	6873.64247712	1.5	0.1
0.01	1	0.610740611999972	1	20	247.861459528001	NA	1	0	2.74	1	240.278779163	240.889519775	"19"	6927.196300856	6873.64247712	1.5	0.1
0.01	1	0.0405800689995885	1	20	247.861459528001	NA	1	0	2.74	1	241.13018867	241.170768739	"19"	6927.196300856	6873.64247712	1.5	0.1
0.01	1	0.0199299289997725	1	20	247.861459528001	NA	1	0	2.74	1	241.397416493	241.417346422	"19"	6927.196300856	6873.64247712	1.5	0.1
0.01	1	0.0428277069995602	1	20	247.861459528001	NA	1	0	2.74	1	241.647740553	241.69056826	"19"	6927.196300856	6873.64247712	1.5	0.1
0.01	1	0.0395617630001652	1	20	247.861459528001	NA	1	0	2.74	1	241.914926678	241.954488441001	"19"	6927.196300856	6873.64247712	1.5	0.1
0.01	1	0.0522406460004277	1	20	247.861459528001	NA	1	0	2.74	1	242.182001438	242.234242084	"19"	6927.196300856	6873.64247712	1.5	0.1
0.01	1	0.0407569640001384	1	20	247.861459528001	NA	1	0	2.74	1	242.465834618	242.506591582001	"19"	6927.196300856	6873.64247712	1.5	0.1
0.01	1	0.0766816850000396	1	20	247.861459528001	NA	1	0	2.74	1	242.732989488	242.809671173	"19"	6927.196300856	6873.64247712	1.5	0.1
0.01	1	0.0560942259999138	1	20	247.861459528001	NA	1	0	2.74	1	243.033437918	243.089532144	"19"	6927.196300856	6873.64247712	1.5	0.1
0.01	1	0.0279055730006803	1	20	247.861459528001	NA	1	0	2.74	1	243.317164223	243.345069796001	"19"	6927.196300856	6873.64247712	1.5	0.1
0.01	1	1.04292793900004	1	20	247.861459528001	NA	1	0	2.74	1	243.567669648	244.610597587	"19"	6927.196300856	6873.64247712	1.5	0.1
0.01	1	0.0688005510000949	1	20	247.861459528001	NA	1	0	2.74	1	244.83657012	244.905370671	"19"	6927.196300856	6873.64247712	1.5	0.1
0.01	1	0.128082733000156	1	20	247.861459528001	NA	1	0	2.74	1	245.136999408001	245.265082141001	"19"	6927.196300856	6873.64247712	1.5	0.1
0.01	1	0.0911523250006212	1	20	247.861459528001	NA	1	0	2.74	1	245.48755627	245.578708595001	"19"	6927.196300856	6873.64247712	1.5	0.1
0.01	1	0.0769396989999223	1	20	247.861459528001	NA	1	0	2.74	1	245.804781785	245.881721484	"19"	6927.196300856	6873.64247712	1.5	0.1
0.01	1	0.0961095080001542	1	20	247.861459528001	NA	1	0	2.74	1	246.105305248	246.201414756	"19"	6927.196300856	6873.64247712	1.5	0.1
0.01	1	0.0744166360000236	1	20	247.861459528001	NA	1	0	2.74	1	246.439149003	246.513565639	"19"	6927.196300856	6873.64247712	1.5	0.1
0.01	1	0.126763365999977	1	20	247.861459528001	NA	1	0	2.74	1	246.73971427	246.866477636	"19"	6927.196300856	6873.64247712	1.5	0.1
0.01	1	0.167313212999943	1	20	247.861459528001	NA	1	0	2.74	1	247.090294208	247.257607421	"19"	6927.196300856	6873.64247712	1.5	0.1
0.01	1	0.26394479999999	1	20	247.861459528001	NA	1	0	2.74	1	247.491027370001	247.754972170001	"19"	6927.196300856	6873.64247712	1.5	0.1
0.01	1	0.585623754000153	1	21	NA	254.62813463	0	0.14	2.88	1	249.911630788	250.497254542001	"20"	6927.196300856	6873.64247712	1.5	0.1
0.01	1	0.00248437699974602	1	21	NA	254.62813463	0	0.14	2.88	1	250.729788579	250.732272956	"20"	6927.196300856	6873.64247712	1.5	0.1
0.01	1	0.00249195600008534	1	21	NA	254.62813463	0	0.14	2.88	1	250.963559795	250.966051751	"20"	6927.196300856	6873.64247712	1.5	0.1
0.01	1	0.00215208499957953	1	21	NA	254.62813463	0	0.14	2.88	1	251.197146602	251.199298687	"20"	6927.196300856	6873.64247712	1.5	0.1
0.01	1	0.00252909799928602	1	21	NA	254.62813463	0	0.14	2.88	1	251.430922549001	251.433451647	"20"	6927.196300856	6873.64247712	1.5	0.1
0.01	1	0.00212808400010545	1	21	NA	254.62813463	0	0.14	2.88	1	251.664600178	251.666728262	"20"	6927.196300856	6873.64247712	1.5	0.1
0.01	1	0.128352114999871	1	21	NA	254.62813463	0	0.14	2.88	1	251.89840162	252.026753735	"20"	6927.196300856	6873.64247712	1.5	0.1
0.01	1	0.10377846099982	1	21	NA	254.62813463	0	0.14	2.88	1	252.249043918	252.352822379	"20"	6927.196300856	6873.64247712	1.5	0.1
0.01	1	0.0585606409995307	1	21	NA	254.62813463	0	0.14	2.88	1	252.582831415	252.641392056	"20"	6927.196300856	6873.64247712	1.5	0.1
0.01	1	0.0473440830000982	1	21	NA	254.62813463	0	0.14	2.88	1	252.866617838	252.913961921	"20"	6927.196300856	6873.64247712	1.5	0.1
0.01	1	0.0828509450002457	1	21	NA	254.62813463	0	0.14	2.88	1	253.150731163	253.233582108001	"20"	6927.196300856	6873.64247712	1.5	0.1
0.01	1	0.0464672220005014	1	21	NA	254.62813463	0	0.14	2.88	1	253.467757323	253.514224545001	"20"	6927.196300856	6873.64247712	1.5	0.1
0.01	1	0.0423654830001396	1	21	NA	254.62813463	0	0.14	2.88	1	253.751431483	253.793796966001	"20"	6927.196300856	6873.64247712	1.5	0.1
0.01	1	0.0870737919995008	1	21	NA	254.62813463	0	0.14	2.88	1	254.018504653	254.105578445	"20"	6927.196300856	6873.64247712	1.5	0.1
0.01	1	0.290818413000125	2	21	NA	254.62813463	0	0.14	2.88	1	254.335763015	254.626581428	"20"	6927.196300856	6873.64247712	1.5	0.1
0.01	1	0.426175565000449	1	26	NA	264.114553688	0	0.21	3.09	1	256.656323043	257.082498608001	"21"	6927.196300856	6873.64247712	1.5	0.1
0.01	1	0.013844975000211	1	26	NA	264.114553688	0	0.21	3.09	1	257.307455503	257.321300478	"21"	6927.196300856	6873.64247712	1.5	0.1
0.01	1	0.0272952180002903	1	26	NA	264.114553688	0	0.21	3.09	1	257.55780986	257.585105078	"21"	6927.196300856	6873.64247712	1.5	0.1
0.01	1	0.0485820680005418	1	26	NA	264.114553688	0	0.21	3.09	1	257.80823599	257.856818058	"21"	6927.196300856	6873.64247712	1.5	0.1
0.01	1	0.0618833090002227	1	26	NA	264.114553688	0	0.21	3.09	1	258.09214513	258.154028439	"21"	6927.196300856	6873.64247712	1.5	0.1
0.01	1	0.0337497079999594	1	26	NA	264.114553688	0	0.21	3.09	1	258.37599494	258.409744648	"21"	6927.196300856	6873.64247712	1.5	0.1
0.01	1	0.013931176999904	1	26	NA	264.114553688	0	0.21	3.09	1	258.643008208001	258.656939385	"21"	6927.196300856	6873.64247712	1.5	0.1
0.01	1	0.0365825919998315	1	26	NA	264.114553688	0	0.21	3.09	1	258.89346414	258.930046732	"21"	6927.196300856	6873.64247712	1.5	0.1
0.01	1	0.0563439340003242	1	26	NA	264.114553688	0	0.21	3.09	1	259.16057302	259.216916954	"21"	6927.196300856	6873.64247712	1.5	0.1
0.01	1	0.0297577279998222	1	26	NA	264.114553688	0	0.21	3.09	1	259.44430325	259.474060978	"21"	6927.196300856	6873.64247712	1.5	0.1
0.01	1	0.0335309980000602	1	26	NA	264.114553688	0	0.21	3.09	1	259.711551793001	259.745082791001	"21"	6927.196300856	6873.64247712	1.5	0.1
0.01	1	0.0072451509995517	1	26	NA	264.114553688	0	0.21	3.09	1	259.978618980001	259.985864131	"21"	6927.196300856	6873.64247712	1.5	0.1
0.01	1	0.0453791479994834	1	26	NA	264.114553688	0	0.21	3.09	1	260.212376840001	260.257755988	"21"	6927.196300856	6873.64247712	1.5	0.1
0.01	1	0.0256521719993543	1	26	NA	264.114553688	0	0.21	3.09	1	260.496094503001	260.521746675	"21"	6927.196300856	6873.64247712	1.5	0.1
0.01	1	0.0714658119995875	1	26	NA	264.114553688	0	0.21	3.09	1	260.746591719	260.818057531	"21"	6927.196300856	6873.64247712	1.5	0.1
0.01	1	0.0116402670000753	1	26	NA	264.114553688	0	0.21	3.09	1	261.04708431	261.058724577	"21"	6927.196300856	6873.64247712	1.5	0.1
0.01	1	0.0321097400001236	1	26	NA	264.114553688	0	0.21	3.09	1	261.28086567	261.31297541	"21"	6927.196300856	6873.64247712	1.5	0.1
0.01	1	0.0700853030002691	1	26	NA	264.114553688	0	0.21	3.09	1	261.547903928	261.617989231	"21"	6927.196300856	6873.64247712	1.5	0.1
0.01	1	0.0564428499992573	1	26	NA	264.114553688	0	0.21	3.09	1	261.848511300001	261.90495415	"21"	6927.196300856	6873.64247712	1.5	0.1
0.01	1	0.124805229000231	1	26	NA	264.114553688	0	0.21	3.09	1	262.132218292	262.257023521001	"21"	6927.196300856	6873.64247712	1.5	0.1
0.01	1	0.447812835999684	1	26	NA	264.114553688	0	0.21	3.09	1	262.482770385001	262.930583221	"21"	6927.196300856	6873.64247712	1.5	0.1
0.01	1	0.945663196999703	2	26	NA	264.114553688	0	0.21	3.09	1	263.167308853001	264.11297205	"21"	6927.196300856	6873.64247712	1.5	0.1
0.01	1	0.73387787899992	1	97	NA	281.210470577	0	0.57	3.66	1	266.172398232	266.906276111	"22"	6927.196300856	6873.64247712	1.5	0.1
0.01	1	0.00221840300037002	1	97	NA	281.210470577	0	0.57	3.66	1	267.140728374	267.142946777	"22"	6927.196300856	6873.64247712	1.5	0.1
0.01	1	0.0192786950001391	1	97	NA	281.210470577	0	0.57	3.66	1	267.374352118	267.393630813001	"22"	6927.196300856	6873.64247712	1.5	0.1
0.01	1	0.0181495120004911	1	97	NA	281.210470577	0	0.57	3.66	1	267.624779173	267.642928685001	"22"	6927.196300856	6873.64247712	1.5	0.1
0.01	1	0.00419281899939961	1	97	NA	281.210470577	0	0.57	3.66	1	267.875151900001	267.879344719	"22"	6927.196300856	6873.64247712	1.5	0.1
0.01	1	0.0208718429994406	1	97	NA	281.210470577	0	0.57	3.66	1	268.109001010001	268.129872853	"22"	6927.196300856	6873.64247712	1.5	0.1
0.01	1	0.0179713239995181	1	97	NA	281.210470577	0	0.57	3.66	1	268.359415175	268.377386499	"22"	6927.196300856	6873.64247712	1.5	0.1
0.01	1	0.00280476300031296	1	97	NA	281.210470577	0	0.57	3.66	1	268.609713765	268.612518528001	"22"	6927.196300856	6873.64247712	1.5	0.1
0.01	1	0.014163842999551	1	97	NA	281.210470577	0	0.57	3.66	1	268.843537628	268.857701471	"22"	6927.196300856	6873.64247712	1.5	0.1
0.01	1	0.00242417399931583	1	97	NA	281.210470577	0	0.57	3.66	1	269.093988375001	269.096412549	"22"	6927.196300856	6873.64247712	1.5	0.1
0.01	1	0.00471623199973692	1	97	NA	281.210470577	0	0.57	3.66	1	269.327690718001	269.33240695	"22"	6927.196300856	6873.64247712	1.5	0.1
0.01	1	0.00269434199981333	1	97	NA	281.210470577	0	0.57	3.66	1	269.561385275	269.564079617	"22"	6927.196300856	6873.64247712	1.5	0.1
0.01	1	0.00364148900007422	1	97	NA	281.210470577	0	0.57	3.66	1	269.79506563	269.798707119	"22"	6927.196300856	6873.64247712	1.5	0.1
0.01	1	0.0212950619998082	1	97	NA	281.210470577	0	0.57	3.66	1	270.028929380001	270.050224442	"22"	6927.196300856	6873.64247712	1.5	0.1
0.01	1	0.0181095340003594	1	97	NA	281.210470577	0	0.57	3.66	1	270.279294091	270.297403625001	"22"	6927.196300856	6873.64247712	1.5	0.1
0.01	1	0.0157515110004169	1	97	NA	281.210470577	0	0.57	3.66	1	270.52967224	270.545423751	"22"	6927.196300856	6873.64247712	1.5	0.1
0.01	1	0.02211669099961	1	97	NA	281.210470577	0	0.57	3.66	1	270.78009266	270.802209351	"22"	6927.196300856	6873.64247712	1.5	0.1
0.01	1	0.0121992899994439	1	97	NA	281.210470577	0	0.57	3.66	1	271.030603693001	271.042802983	"22"	6927.196300856	6873.64247712	1.5	0.1
0.01	1	0.00271631800023897	1	97	NA	281.210470577	0	0.57	3.66	1	271.280961983	271.283678301001	"22"	6927.196300856	6873.64247712	1.5	0.1
0.01	1	0.00357677000010881	1	97	NA	281.210470577	0	0.57	3.66	1	271.514602191	271.518178961001	"22"	6927.196300856	6873.64247712	1.5	0.1
0.01	1	0.0122674569993251	1	97	NA	281.210470577	0	0.57	3.66	1	271.748387033001	271.76065449	"22"	6927.196300856	6873.64247712	1.5	0.1
0.01	1	0.00291842299975542	1	97	NA	281.210470577	0	0.57	3.66	1	271.998861725	272.001780148	"22"	6927.196300856	6873.64247712	1.5	0.1
0.01	1	0.00285203000021284	1	97	NA	281.210470577	0	0.57	3.66	1	272.232566233	272.235418263001	"22"	6927.196300856	6873.64247712	1.5	0.1
0.01	1	0.00217399399934948	1	97	NA	281.210470577	0	0.57	3.66	1	272.466299780001	272.468473774	"22"	6927.196300856	6873.64247712	1.5	0.1
0.01	1	0.00475117199948727	1	97	NA	281.210470577	0	0.57	3.66	1	272.700019638	272.70477081	"22"	6927.196300856	6873.64247712	1.5	0.1
0.01	1	0.00211576699985017	1	97	NA	281.210470577	0	0.57	3.66	1	272.933715122001	272.935830889	"22"	6927.196300856	6873.64247712	1.5	0.1
0.01	1	0.00211154600037844	1	97	NA	281.210470577	0	0.57	3.66	1	273.167510116	273.169621662	"22"	6927.196300856	6873.64247712	1.5	0.1
0.01	1	0.00482482699953835	1	97	NA	281.210470577	0	0.57	3.66	1	273.401359008	273.406183835	"22"	6927.196300856	6873.64247712	1.5	0.1
0.01	1	0.00427499800025544	1	97	NA	281.210470577	0	0.57	3.66	1	273.635005893	273.639280891	"22"	6927.196300856	6873.64247712	1.5	0.1
0.01	1	0.00388739299978624	1	97	NA	281.210470577	0	0.57	3.66	1	273.86864855	273.872535943	"22"	6927.196300856	6873.64247712	1.5	0.1
0.01	1	0.00480049499947199	1	97	NA	281.210470577	0	0.57	3.66	1	274.102370348	274.107170843	"22"	6927.196300856	6873.64247712	1.5	0.1
0.01	1	0.00472121499933564	1	97	NA	281.210470577	0	0.57	3.66	1	274.336069853	274.340791068	"22"	6927.196300856	6873.64247712	1.5	0.1
0.01	1	0.00473505500031024	1	97	NA	281.210470577	0	0.57	3.66	1	274.569938458	274.574673513001	"22"	6927.196300856	6873.64247712	1.5	0.1
0.01	1	0.00385211399952823	1	97	NA	281.210470577	0	0.57	3.66	1	274.803512213	274.807364327	"22"	6927.196300856	6873.64247712	1.5	0.1
0.01	1	0.00233162900076422	1	97	NA	281.210470577	0	0.57	3.66	1	275.037359915	275.039691544001	"22"	6927.196300856	6873.64247712	1.5	0.1
0.01	1	0.00220672199975525	1	97	NA	281.210470577	0	0.57	3.66	1	275.27095282	275.273159542	"22"	6927.196300856	6873.64247712	1.5	0.1
0.01	1	0.00219893899975432	1	97	NA	281.210470577	0	0.57	3.66	1	275.504716188	275.506915127	"22"	6927.196300856	6873.64247712	1.5	0.1
0.01	1	0.00735802100007277	1	97	NA	281.210470577	0	0.57	3.66	1	275.738418448001	275.745776469001	"22"	6927.196300856	6873.64247712	1.5	0.1
0.01	1	0.00734526199994434	1	97	NA	281.210470577	0	0.57	3.66	1	275.972229785	275.979575047	"22"	6927.196300856	6873.64247712	1.5	0.1
0.01	1	0.0352975200003129	1	97	NA	281.210470577	0	0.57	3.66	1	276.205902615	276.241200135	"22"	6927.196300856	6873.64247712	1.5	0.1
0.01	1	0.0238165979999394	1	97	NA	281.210470577	0	0.57	3.66	1	276.472989428	276.496806026	"22"	6927.196300856	6873.64247712	1.5	0.1
0.01	1	0.014546264999808	1	97	NA	281.210470577	0	0.57	3.66	1	276.723536333	276.738082598	"22"	6927.196300856	6873.64247712	1.5	0.1
0.01	1	0.0034937299997182	1	97	NA	281.210470577	0	0.57	3.66	1	276.973971317	276.977465047	"22"	6927.196300856	6873.64247712	1.5	0.1
0.01	1	0.00307944499945734	1	97	NA	281.210470577	0	0.57	3.66	1	277.207522665	277.21060211	"22"	6927.196300856	6873.64247712	1.5	0.1
0.01	1	0.0153577620003489	1	97	NA	281.210470577	0	0.57	3.66	1	277.44143618	277.456793942	"22"	6927.196300856	6873.64247712	1.5	0.1
0.01	1	0.0303378630005682	1	97	NA	281.210470577	0	0.57	3.66	1	277.691703288	277.722041151001	"22"	6927.196300856	6873.64247712	1.5	0.1
0.01	1	0.00223771699984354	1	97	NA	281.210470577	0	0.57	3.66	1	277.958945631	277.961183348	"22"	6927.196300856	6873.64247712	1.5	0.1
0.01	1	0.00966674600022088	1	97	NA	281.210470577	0	0.57	3.66	1	278.192614253	278.202280999	"22"	6927.196300856	6873.64247712	1.5	0.1
0.01	1	0.0237979900002756	1	97	NA	281.210470577	0	0.57	3.66	1	278.426289703	278.450087693001	"22"	6927.196300856	6873.64247712	1.5	0.1
0.01	1	0.0121205249997729	1	97	NA	281.210470577	0	0.57	3.66	1	278.676686608001	278.688807133	"22"	6927.196300856	6873.64247712	1.5	0.1
0.01	1	0.00207865299944388	1	97	NA	281.210470577	0	0.57	3.66	1	278.927142291001	278.929220944	"22"	6927.196300856	6873.64247712	1.5	0.1
0.01	1	0.0027101470004709	1	97	NA	281.210470577	0	0.57	3.66	1	279.160910247	279.163620394001	"22"	6927.196300856	6873.64247712	1.5	0.1
0.01	1	0.00257591299941851	1	97	NA	281.210470577	0	0.57	3.66	1	279.394704529001	279.397280442	"22"	6927.196300856	6873.64247712	1.5	0.1
0.01	1	0.0027827719995912	1	97	NA	281.210470577	0	0.57	3.66	1	279.628303313	279.631086085	"22"	6927.196300856	6873.64247712	1.5	0.1
0.01	1	0.00218590300028154	1	97	NA	281.210470577	0	0.57	3.66	1	279.86204371	279.864229613	"22"	6927.196300856	6873.64247712	1.5	0.1
0.01	1	0.00273342299988144	1	97	NA	281.210470577	0	0.57	3.66	1	280.095844725	280.098578148	"22"	6927.196300856	6873.64247712	1.5	0.1
0.01	1	0.0101121999996394	1	97	NA	281.210470577	0	0.57	3.66	1	280.329480993	280.339593193	"22"	6927.196300856	6873.64247712	1.5	0.1
0.01	1	0.64568057500037	2	97	NA	281.210470577	0	0.57	3.66	1	280.563184538	281.208865113001	"22"	6927.196300856	6873.64247712	1.5	0.1
0.01	1	0.719076937999489	1	118	NA	300.138700544	0	0.48	4.14	1	283.251104298	283.970181236	"23"	6927.196300856	6873.64247712	1.5	0.1
0.01	1	0.0219478470007743	1	118	NA	300.138700544	0	0.48	4.14	1	284.202724813	284.224672660001	"23"	6927.196300856	6873.64247712	1.5	0.1
0.01	1	0.027721505000045	1	118	NA	300.138700544	0	0.48	4.14	1	284.453042415	284.48076392	"23"	6927.196300856	6873.64247712	1.5	0.1
0.01	1	0.0349528079996162	1	118	NA	300.138700544	0	0.48	4.14	1	284.70349063	284.738443438	"23"	6927.196300856	6873.64247712	1.5	0.1
0.01	1	0.00737828300043475	1	118	NA	300.138700544	0	0.48	4.14	1	284.97066686	284.978045143001	"23"	6927.196300856	6873.64247712	1.5	0.1
0.01	1	0.0139843180004391	1	118	NA	300.138700544	0	0.48	4.14	1	285.204590278	285.218574596001	"23"	6927.196300856	6873.64247712	1.5	0.1
0.01	1	0.0121339520001129	1	118	NA	300.138700544	0	0.48	4.14	1	285.454782168	285.46691612	"23"	6927.196300856	6873.64247712	1.5	0.1
0.01	1	0.0331749260003562	1	118	NA	300.138700544	0	0.48	4.14	1	285.688583858	285.721758784	"23"	6927.196300856	6873.64247712	1.5	0.1
0.01	1	0.00281008500041935	1	118	NA	300.138700544	0	0.48	4.14	1	285.955585363	285.958395448	"23"	6927.196300856	6873.64247712	1.5	0.1
0.01	1	0.00317433799955325	1	118	NA	300.138700544	0	0.48	4.14	1	286.189344445001	286.192518783	"23"	6927.196300856	6873.64247712	1.5	0.1
0.01	1	0.00316291799936153	1	118	NA	300.138700544	0	0.48	4.14	1	286.423126291001	286.426289209	"23"	6927.196300856	6873.64247712	1.5	0.1
0.01	1	0.0159553129997221	1	118	NA	300.138700544	0	0.48	4.14	1	286.656817623	286.672772936	"23"	6927.196300856	6873.64247712	1.5	0.1
0.01	1	0.00376681900070253	1	118	NA	300.138700544	0	0.48	4.14	1	286.90723884	286.911005659001	"23"	6927.196300856	6873.64247712	1.5	0.1
0.01	1	0.0198834439997881	1	118	NA	300.138700544	0	0.48	4.14	1	287.140952735001	287.160836179	"23"	6927.196300856	6873.64247712	1.5	0.1
0.01	1	0.00975073200061161	1	118	NA	300.138700544	0	0.48	4.14	1	287.391437423	287.401188155	"23"	6927.196300856	6873.64247712	1.5	0.1
0.01	1	0.0156519100000878	1	118	NA	300.138700544	0	0.48	4.14	1	287.625113908	287.640765818001	"23"	6927.196300856	6873.64247712	1.5	0.1
0.01	1	0.00214217299981101	1	118	NA	300.138700544	0	0.48	4.14	1	287.875558397001	287.87770057	"23"	6927.196300856	6873.64247712	1.5	0.1
0.01	1	0.0354514220007331	1	118	NA	300.138700544	0	0.48	4.14	1	288.109270393	288.144721815001	"23"	6927.196300856	6873.64247712	1.5	0.1
0.01	1	0.00481358000070031	1	118	NA	300.138700544	0	0.48	4.14	1	288.376392063	288.381205643001	"23"	6927.196300856	6873.64247712	1.5	0.1
0.01	1	0.215992835000179	1	118	NA	300.138700544	0	0.48	4.14	1	288.610118673	288.826111508	"23"	6927.196300856	6873.64247712	1.5	0.1
0.01	1	0.00226109699997323	1	118	NA	300.138700544	0	0.48	4.14	1	289.060907611	289.063168708	"23"	6927.196300856	6873.64247712	1.5	0.1
0.01	1	0.00209172699942428	1	118	NA	300.138700544	0	0.48	4.14	1	289.294612608001	289.296704335	"23"	6927.196300856	6873.64247712	1.5	0.1
0.01	1	0.554341184000805	1	118	NA	300.138700544	0	0.48	4.14	1	289.528387863	290.082729047001	"23"	6927.196300856	6873.64247712	1.5	0.1
0.01	1	0.00214258100004372	1	118	NA	300.138700544	0	0.48	4.14	1	290.313014262	290.315156843	"23"	6927.196300856	6873.64247712	1.5	0.1
0.01	1	0.0941532050001115	1	118	NA	300.138700544	0	0.48	4.14	1	290.5466609	290.640814105001	"23"	6927.196300856	6873.64247712	1.5	0.1
0.01	1	0.481837407000057	1	118	NA	300.138700544	0	0.48	4.14	1	290.863905178	291.345742585	"23"	6927.196300856	6873.64247712	1.5	0.1
0.01	1	0.00211157299963816	1	118	NA	300.138700544	0	0.48	4.14	1	291.58176316	291.583874733	"23"	6927.196300856	6873.64247712	1.5	0.1
0.01	1	0.0981634999998278	1	118	NA	300.138700544	0	0.48	4.14	1	291.815541575001	291.913705075001	"23"	6927.196300856	6873.64247712	1.5	0.1
0.01	1	0.00385183399976086	1	118	NA	300.138700544	0	0.48	4.14	1	292.149381255001	292.153233089	"23"	6927.196300856	6873.64247712	1.5	0.1
0.01	1	0.0820884129998376	1	118	NA	300.138700544	0	0.48	4.14	1	292.38323399	292.465322403	"23"	6927.196300856	6873.64247712	1.5	0.1
0.01	1	0.00210942800003977	1	118	NA	300.138700544	0	0.48	4.14	1	292.700360292	292.70246972	"23"	6927.196300856	6873.64247712	1.5	0.1
0.01	1	1.09163487600017	1	118	NA	300.138700544	0	0.48	4.14	1	292.93411625	294.025751126001	"23"	6927.196300856	6873.64247712	1.5	0.1
0.01	1	0.00481400500029849	1	118	NA	300.138700544	0	0.48	4.14	1	294.252930468	294.257744473	"23"	6927.196300856	6873.64247712	1.5	0.1
0.01	1	0.10765703800007	1	118	NA	300.138700544	0	0.48	4.14	1	294.486688673001	294.594345711001	"23"	6927.196300856	6873.64247712	1.5	0.1
0.01	1	0.00396230099977402	1	118	NA	300.138700544	0	0.48	4.14	1	294.82053489	294.824497191	"23"	6927.196300856	6873.64247712	1.5	0.1
0.01	1	0.0990414420002708	1	118	NA	300.138700544	0	0.48	4.14	1	295.054324375	295.153365817	"23"	6927.196300856	6873.64247712	1.5	0.1
0.01	1	0.00487113999952271	1	118	NA	300.138700544	0	0.48	4.14	1	295.388220063001	295.393091203	"23"	6927.196300856	6873.64247712	1.5	0.1
0.01	1	0.100525672999538	1	118	NA	300.138700544	0	0.48	4.14	1	295.621967795	295.722493468	"23"	6927.196300856	6873.64247712	1.5	0.1
0.01	1	0.773078705999978	1	118	NA	300.138700544	0	0.48	4.14	1	295.95573313	296.728811836	"23"	6927.196300856	6873.64247712	1.5	0.1
0.01	1	0.00391578400012804	1	118	NA	300.138700544	0	0.48	4.14	1	296.957505823	296.961421607	"23"	6927.196300856	6873.64247712	1.5	0.1
0.01	1	0.194404521000251	1	118	NA	300.138700544	0	0.48	4.14	1	297.191268783	297.385673304	"23"	6927.196300856	6873.64247712	1.5	0.1
0.01	1	0.00209298000027047	1	118	NA	300.138700544	0	0.48	4.14	1	297.608562688	297.610655668001	"23"	6927.196300856	6873.64247712	1.5	0.1
0.01	1	0.232290627000111	1	118	NA	300.138700544	0	0.48	4.14	1	297.842342895	298.074633522	"23"	6927.196300856	6873.64247712	1.5	0.1
0.01	1	0.00217945700023847	1	118	NA	300.138700544	0	0.48	4.14	1	298.30976011	298.311939567	"23"	6927.196300856	6873.64247712	1.5	0.1
0.01	1	0.17728866500056	1	118	NA	300.138700544	0	0.48	4.14	1	298.543426913	298.720715578001	"23"	6927.196300856	6873.64247712	1.5	0.1
0.01	1	0.00473674000022584	1	118	NA	300.138700544	0	0.48	4.14	1	298.944138413	298.948875153001	"23"	6927.196300856	6873.64247712	1.5	0.1
0.01	1	0.207224705000044	1	118	NA	300.138700544	0	0.48	4.14	1	299.177913893001	299.385138598001	"23"	6927.196300856	6873.64247712	1.5	0.1
0.01	1	0.00476766999963729	1	118	NA	300.138700544	0	0.48	4.14	1	299.612005318	299.616772988	"23"	6927.196300856	6873.64247712	1.5	0.1
0.01	1	0.291358788999787	2	118	NA	300.138700544	0	0.48	4.14	1	299.845758032	300.137116821	"23"	6927.196300856	6873.64247712	1.5	0.1
0.01	1	0.562058418000561	1	100	NA	315.91476057	0	0.35	4.49	1	302.18288383	302.744942248	"24"	6927.196300856	6873.64247712	1.5	0.1
0.01	1	0.129349781999736	1	100	NA	315.91476057	0	0.35	4.49	1	302.984218116	303.113567898	"24"	6927.196300856	6873.64247712	1.5	0.1
0.01	1	0.00473662700005661	1	100	NA	315.91476057	0	0.35	4.49	1	303.351619463	303.35635609	"24"	6927.196300856	6873.64247712	1.5	0.1
0.01	1	0.0963925229998495	1	100	NA	315.91476057	0	0.35	4.49	1	303.585245216001	303.681637739001	"24"	6927.196300856	6873.64247712	1.5	0.1
0.01	1	0.0048090250002133	1	100	NA	315.91476057	0	0.35	4.49	1	303.919254943	303.924063968	"24"	6927.196300856	6873.64247712	1.5	0.1
0.01	1	0.104321760999483	1	100	NA	315.91476057	0	0.35	4.49	1	304.152980579001	304.25730234	"24"	6927.196300856	6873.64247712	1.5	0.1
0.01	1	0.00221254900043277	1	100	NA	315.91476057	0	0.35	4.49	1	304.486974687	304.489187236	"24"	6927.196300856	6873.64247712	1.5	0.1
0.01	1	1.58634457700009	1	100	NA	315.91476057	0	0.35	4.49	1	304.720557648	306.306902225	"24"	6927.196300856	6873.64247712	1.5	0.1
0.01	1	0.00266898300014873	1	100	NA	315.91476057	0	0.35	4.49	1	306.540288225	306.542957208	"24"	6927.196300856	6873.64247712	1.5	0.1
0.01	1	0.0042446330007806	1	100	NA	315.91476057	0	0.35	4.49	1	306.77407427	306.778318903001	"24"	6927.196300856	6873.64247712	1.5	0.1
0.01	1	0.00418794700090075	1	100	NA	315.91476057	0	0.35	4.49	1	307.00768455	307.011872497001	"24"	6927.196300856	6873.64247712	1.5	0.1
0.01	1	0.00861606399939774	1	100	NA	315.91476057	0	0.35	4.49	1	307.241452623	307.250068687	"24"	6927.196300856	6873.64247712	1.5	0.1
0.01	1	0.00244674999976269	1	100	NA	315.91476057	0	0.35	4.49	1	307.475226477	307.477673227	"24"	6927.196300856	6873.64247712	1.5	0.1
0.01	1	0.00255834800009325	1	100	NA	315.91476057	0	0.35	4.49	1	307.709050153	307.711608501	"24"	6927.196300856	6873.64247712	1.5	0.1
0.01	1	0.00214180300008593	1	100	NA	315.91476057	0	0.35	4.49	1	307.942654351	307.944796154	"24"	6927.196300856	6873.64247712	1.5	0.1
0.01	1	0.152661803999763	1	100	NA	315.91476057	0	0.35	4.49	1	308.176272958	308.328934762	"24"	6927.196300856	6873.64247712	1.5	0.1
0.01	1	0.00476476500080025	1	100	NA	315.91476057	0	0.35	4.49	1	308.560434878	308.565199643001	"24"	6927.196300856	6873.64247712	1.5	0.1
0.01	1	0.518919154000287	1	100	NA	315.91476057	0	0.35	4.49	1	308.794018245	309.312937399	"24"	6927.196300856	6873.64247712	1.5	0.1
0.01	1	0.00279766800031211	1	100	NA	315.91476057	0	0.35	4.49	1	309.545220893	309.548018561	"24"	6927.196300856	6873.64247712	1.5	0.1
0.01	1	0.00216687600004661	1	100	NA	315.91476057	0	0.35	4.49	1	309.779015222	309.781182098	"24"	6927.196300856	6873.64247712	1.5	0.1
0.01	1	0.00393798299955961	1	100	NA	315.91476057	0	0.35	4.49	1	310.012812368001	310.016750351	"24"	6927.196300856	6873.64247712	1.5	0.1
0.01	1	0.154211962999398	1	100	NA	315.91476057	0	0.35	4.49	1	310.246545155001	310.400757118	"24"	6927.196300856	6873.64247712	1.5	0.1
0.01	1	0.00209645300037664	1	100	NA	315.91476057	0	0.35	4.49	1	310.630426523	310.632522976	"24"	6927.196300856	6873.64247712	1.5	0.1
0.01	1	0.00349909600026876	1	100	NA	315.91476057	0	0.35	4.49	1	310.864192205	310.867691301	"24"	6927.196300856	6873.64247712	1.5	0.1
0.01	1	0.144262679000349	1	100	NA	315.91476057	0	0.35	4.49	1	311.098014458	311.242277137	"24"	6927.196300856	6873.64247712	1.5	0.1
0.01	1	1.49624389400014	1	100	NA	315.91476057	0	0.35	4.49	1	311.465246068	312.961489962	"24"	6927.196300856	6873.64247712	1.5	0.1
0.01	1	0.0020956419994036	1	100	NA	315.91476057	0	0.35	4.49	1	313.201475849	313.203571491	"24"	6927.196300856	6873.64247712	1.5	0.1
0.01	1	0.00211555999976554	1	100	NA	315.91476057	0	0.35	4.49	1	313.435203507001	313.437319067	"24"	6927.196300856	6873.64247712	1.5	0.1
0.01	1	0.00224228099978063	1	100	NA	315.91476057	0	0.35	4.49	1	313.669002001	313.671244282	"24"	6927.196300856	6873.64247712	1.5	0.1
0.01	1	0.185995928000011	1	100	NA	315.91476057	0	0.35	4.49	1	313.902639280001	314.088635208001	"24"	6927.196300856	6873.64247712	1.5	0.1
0.01	1	0.00308100200072658	1	100	NA	315.91476057	0	0.35	4.49	1	314.319948597	314.323029599001	"24"	6927.196300856	6873.64247712	1.5	0.1
0.01	1	0.00384717999986606	1	100	NA	315.91476057	0	0.35	4.49	1	314.553656815	314.557503995	"24"	6927.196300856	6873.64247712	1.5	0.1
0.01	1	0.0136930620001294	1	100	NA	315.91476057	0	0.35	4.49	1	314.787490728	314.80118379	"24"	6927.196300856	6873.64247712	1.5	0.1
0.01	1	0.00313831200037384	1	100	NA	315.91476057	0	0.35	4.49	1	315.037813119	315.040951431	"24"	6927.196300856	6873.64247712	1.5	0.1
0.01	1	0.00306371599981503	1	100	NA	315.91476057	0	0.35	4.49	1	315.271568291	315.274632007	"24"	6927.196300856	6873.64247712	1.5	0.1
0.01	1	0.407791591000205	2	100	NA	315.91476057	0	0.35	4.49	1	315.50538461	315.913176201	"24"	6927.196300856	6873.64247712	1.5	0.1
0.01	1	0.562093272000311	1	46	NA	328.900020967	0	0.36	4.85	1	317.95942035	318.521513622	"25"	6927.196300856	6873.64247712	1.5	0.1
0.01	1	0.0021087630002512	1	46	NA	328.900020967	0	0.36	4.85	1	318.760863632	318.762972395	"25"	6927.196300856	6873.64247712	1.5	0.1
0.01	1	0.00229944400052773	1	46	NA	328.900020967	0	0.36	4.85	1	318.994608285	318.996907729001	"25"	6927.196300856	6873.64247712	1.5	0.1
0.01	1	0.00389136700050585	1	46	NA	328.900020967	0	0.36	4.85	1	319.228293178	319.232184545001	"25"	6927.196300856	6873.64247712	1.5	0.1
0.01	1	0.146828504000041	1	46	NA	328.900020967	0	0.36	4.85	1	319.462051298	319.608879802	"25"	6927.196300856	6873.64247712	1.5	0.1
0.01	1	0.00318465400050627	1	46	NA	328.900020967	0	0.36	4.85	1	319.845904867	319.849089521001	"25"	6927.196300856	6873.64247712	1.5	0.1
0.01	1	0.0021861169998374	1	46	NA	328.900020967	0	0.36	4.85	1	320.079730348	320.081916465	"25"	6927.196300856	6873.64247712	1.5	0.1
0.01	1	0.00396035500034486	1	46	NA	328.900020967	0	0.36	4.85	1	320.313500528	320.317460883	"25"	6927.196300856	6873.64247712	1.5	0.1
0.01	1	0.00405136399967887	1	46	NA	328.900020967	0	0.36	4.85	1	320.547197603	320.551248967	"25"	6927.196300856	6873.64247712	1.5	0.1
0.01	1	0.15636307099976	1	46	NA	328.900020967	0	0.36	4.85	1	320.780867178	320.937230249	"25"	6927.196300856	6873.64247712	1.5	0.1
0.01	1	0.00232176899953629	1	46	NA	328.900020967	0	0.36	4.85	1	321.164917081001	321.16723885	"25"	6927.196300856	6873.64247712	1.5	0.1
0.01	1	0.0022242240002015	1	46	NA	328.900020967	0	0.36	4.85	1	321.398658295	321.400882519	"25"	6927.196300856	6873.64247712	1.5	0.1
0.01	1	0.00242495299971779	1	46	NA	328.900020967	0	0.36	4.85	1	321.632271673	321.634696626	"25"	6927.196300856	6873.64247712	1.5	0.1
0.01	1	0.167062258999977	1	46	NA	328.900020967	0	0.36	4.85	1	321.866054845001	322.033117104001	"25"	6927.196300856	6873.64247712	1.5	0.1
0.01	1	0.00485323199973209	1	46	NA	328.900020967	0	0.36	4.85	1	322.266705363	322.271558595	"25"	6927.196300856	6873.64247712	1.5	0.1
0.01	1	0.149277498999254	1	46	NA	328.900020967	0	0.36	4.85	1	322.500460298001	322.649737797	"25"	6927.196300856	6873.64247712	1.5	0.1
0.01	1	0.00218628699985857	1	46	NA	328.900020967	0	0.36	4.85	1	322.884396793001	322.88658308	"25"	6927.196300856	6873.64247712	1.5	0.1
0.01	1	0.138493738999387	1	46	NA	328.900020967	0	0.36	4.85	1	323.118168722001	323.256662461	"25"	6927.196300856	6873.64247712	1.5	0.1
0.01	1	0.00251730400032102	1	46	NA	328.900020967	0	0.36	4.85	1	323.485470925	323.487988229001	"25"	6927.196300856	6873.64247712	1.5	0.1
0.01	1	0.00265017100082332	1	46	NA	328.900020967	0	0.36	4.85	1	323.719185657	323.721835828001	"25"	6927.196300856	6873.64247712	1.5	0.1
0.01	1	0.160028798999519	1	46	NA	328.900020967	0	0.36	4.85	1	323.952822728001	324.112851527	"25"	6927.196300856	6873.64247712	1.5	0.1
0.01	1	0.00449660800040874	1	46	NA	328.900020967	0	0.36	4.85	1	324.336892225	324.341388833001	"25"	6927.196300856	6873.64247712	1.5	0.1
0.01	1	0.00289018500006932	1	46	NA	328.900020967	0	0.36	4.85	1	324.570599727001	324.573489912001	"25"	6927.196300856	6873.64247712	1.5	0.1
0.01	1	0.00217121900004713	1	46	NA	328.900020967	0	0.36	4.85	1	324.804240253	324.806411472	"25"	6927.196300856	6873.64247712	1.5	0.1
0.01	1	0.148770521999722	1	46	NA	328.900020967	0	0.36	4.85	1	325.038007603001	325.186778125	"25"	6927.196300856	6873.64247712	1.5	0.1
0.01	1	0.00479465500029619	1	46	NA	328.900020967	0	0.36	4.85	1	325.422063553	325.426858208	"25"	6927.196300856	6873.64247712	1.5	0.1
0.01	1	0.00219280000055733	1	46	NA	328.900020967	0	0.36	4.85	1	325.655810073	325.658002873	"25"	6927.196300856	6873.64247712	1.5	0.1
0.01	1	0.152902128999813	1	46	NA	328.900020967	0	0.36	4.85	1	325.889500533001	326.042402662	"25"	6927.196300856	6873.64247712	1.5	0.1
0.01	1	0.00262869500056695	1	46	NA	328.900020967	0	0.36	4.85	1	326.273475301	326.276103996001	"25"	6927.196300856	6873.64247712	1.5	0.1
0.01	1	0.00232173999938823	1	46	NA	328.900020967	0	0.36	4.85	1	326.507150383	326.509472123	"25"	6927.196300856	6873.64247712	1.5	0.1
0.01	1	0.00226752799972019	1	46	NA	328.900020967	0	0.36	4.85	1	326.740825284	326.743092812	"25"	6927.196300856	6873.64247712	1.5	0.1
0.01	1	0.139100028999565	1	46	NA	328.900020967	0	0.36	4.85	1	326.97458684	327.113686869	"25"	6927.196300856	6873.64247712	1.5	0.1
0.01	1	0.00475550700048188	1	46	NA	328.900020967	0	0.36	4.85	1	327.342040603	327.34679611	"25"	6927.196300856	6873.64247712	1.5	0.1
0.01	1	0.00471703500079457	1	46	NA	328.900020967	0	0.36	4.85	1	327.575725893	327.580442928001	"25"	6927.196300856	6873.64247712	1.5	0.1
0.01	1	0.168410688000222	1	46	NA	328.900020967	0	0.36	4.85	1	327.80934037	327.977751058001	"25"	6927.196300856	6873.64247712	1.5	0.1
0.01	1	0.0785988150000776	1	46	NA	328.900020967	0	0.36	4.85	1	328.210023755	328.28862257	"25"	6927.196300856	6873.64247712	1.5	0.1
0.01	1	0.371321099999477	2	46	NA	328.900020967	0	0.36	4.85	1	328.527159015001	328.898480115	"25"	6927.196300856	6873.64247712	1.5	0.1
0.01	1	0.551247777999379	1	102	NA	347.107395929001	0	0.51	5.36	1	330.931331473001	331.482579251	"26"	6927.196300856	6873.64247712	1.5	0.1
0.01	1	0.00809398399997008	1	102	NA	347.107395929001	0	0.51	5.36	1	331.716025209001	331.724119193001	"26"	6927.196300856	6873.64247712	1.5	0.1
0.01	1	0.00323235399991972	1	102	NA	347.107395929001	0	0.51	5.36	1	331.949666167	331.952898521	"26"	6927.196300856	6873.64247712	1.5	0.1
0.01	1	0.00414040299983753	1	102	NA	347.107395929001	0	0.51	5.36	1	332.18343843	332.187578833	"26"	6927.196300856	6873.64247712	1.5	0.1
0.01	1	0.00227675199948862	1	102	NA	347.107395929001	0	0.51	5.36	1	332.417068241	332.419344993	"26"	6927.196300856	6873.64247712	1.5	0.1
0.01	1	0.00477658500039979	1	102	NA	347.107395929001	0	0.51	5.36	1	332.650958593	332.655735178	"26"	6927.196300856	6873.64247712	1.5	0.1
0.01	1	0.00409743999989587	1	102	NA	347.107395929001	0	0.51	5.36	1	332.884632443001	332.888729883	"26"	6927.196300856	6873.64247712	1.5	0.1
0.01	1	0.124246256999868	1	102	NA	347.107395929001	0	0.51	5.36	1	333.118334953	333.24258121	"26"	6927.196300856	6873.64247712	1.5	0.1
0.01	1	0.0021818400000484	1	102	NA	347.107395929001	0	0.51	5.36	1	333.468896097001	333.471077937001	"26"	6927.196300856	6873.64247712	1.5	0.1
0.01	1	0.00222322700028599	1	102	NA	347.107395929001	0	0.51	5.36	1	333.702661343	333.70488457	"26"	6927.196300856	6873.64247712	1.5	0.1
0.01	1	0.00218168199990032	1	102	NA	347.107395929001	0	0.51	5.36	1	333.936445079	333.938626761	"26"	6927.196300856	6873.64247712	1.5	0.1
0.01	1	0.00412082899947563	1	102	NA	347.107395929001	0	0.51	5.36	1	334.170107540001	334.174228369	"26"	6927.196300856	6873.64247712	1.5	0.1
0.01	1	0.1664036330003	1	102	NA	347.107395929001	0	0.51	5.36	1	334.403808058	334.570211691001	"26"	6927.196300856	6873.64247712	1.5	0.1
0.01	1	0.0021573720005108	1	102	NA	347.107395929001	0	0.51	5.36	1	334.804503227	334.806660599001	"26"	6927.196300856	6873.64247712	1.5	0.1
0.01	1	0.00443926400021155	1	102	NA	347.107395929001	0	0.51	5.36	1	335.038160616	335.04259988	"26"	6927.196300856	6873.64247712	1.5	0.1
0.01	1	0.153691900000013	1	102	NA	347.107395929001	0	0.51	5.36	1	335.271958715	335.425650615	"26"	6927.196300856	6873.64247712	1.5	0.1
0.01	1	0.00233856000068045	1	102	NA	347.107395929001	0	0.51	5.36	1	335.655984041	335.658322601001	"26"	6927.196300856	6873.64247712	1.5	0.1
0.01	1	0.00214480900012859	1	102	NA	347.107395929001	0	0.51	5.36	1	335.889684493	335.891829302001	"26"	6927.196300856	6873.64247712	1.5	0.1
0.01	1	0.00222759100051917	1	102	NA	347.107395929001	0	0.51	5.36	1	336.123429409	336.125657000001	"26"	6927.196300856	6873.64247712	1.5	0.1
0.01	1	0.00217979199987894	1	102	NA	347.107395929001	0	0.51	5.36	1	336.357097691	336.359277483	"26"	6927.196300856	6873.64247712	1.5	0.1
0.01	1	0.00222671600022295	1	102	NA	347.107395929001	0	0.51	5.36	1	336.590829113	336.593055829	"26"	6927.196300856	6873.64247712	1.5	0.1
0.01	1	0.00387578699974256	1	102	NA	347.107395929001	0	0.51	5.36	1	336.824610278	336.828486065	"26"	6927.196300856	6873.64247712	1.5	0.1
0.01	1	0.00482993500008888	1	102	NA	347.107395929001	0	0.51	5.36	1	337.058363328	337.063193263	"26"	6927.196300856	6873.64247712	1.5	0.1
0.01	1	0.00407502699999895	1	102	NA	347.107395929001	0	0.51	5.36	1	337.29198503	337.296060057	"26"	6927.196300856	6873.64247712	1.5	0.1
0.01	1	0.00410620300044684	1	102	NA	347.107395929001	0	0.51	5.36	1	337.525692178	337.529798381001	"26"	6927.196300856	6873.64247712	1.5	0.1
0.01	1	0.162112663000698	1	102	NA	347.107395929001	0	0.51	5.36	1	337.759377163	337.921489826001	"26"	6927.196300856	6873.64247712	1.5	0.1
0.01	1	0.00244772899986856	1	102	NA	347.107395929001	0	0.51	5.36	1	338.160212421	338.16266015	"26"	6927.196300856	6873.64247712	1.5	0.1
0.01	1	0.00258734199996979	1	102	NA	347.107395929001	0	0.51	5.36	1	338.393749109	338.396336451	"26"	6927.196300856	6873.64247712	1.5	0.1
0.01	1	0.00252183100019465	1	102	NA	347.107395929001	0	0.51	5.36	1	338.627604885	338.630126716001	"26"	6927.196300856	6873.64247712	1.5	0.1
0.01	1	0.00216391300000396	1	102	NA	347.107395929001	0	0.51	5.36	1	338.861327675	338.863491588	"26"	6927.196300856	6873.64247712	1.5	0.1
0.01	1	0.00272866000068461	1	102	NA	347.107395929001	0	0.51	5.36	1	339.094996289	339.097724949001	"26"	6927.196300856	6873.64247712	1.5	0.1
0.01	1	0.00252383899987763	1	102	NA	347.107395929001	0	0.51	5.36	1	339.328786433	339.331310272	"26"	6927.196300856	6873.64247712	1.5	0.1
0.01	1	0.00477532500008238	1	102	NA	347.107395929001	0	0.51	5.36	1	339.562437398	339.567212723	"26"	6927.196300856	6873.64247712	1.5	0.1
0.01	1	0.00485724999998638	1	102	NA	347.107395929001	0	0.51	5.36	1	339.796251758	339.801109008	"26"	6927.196300856	6873.64247712	1.5	0.1
0.01	1	0.0022989580002104	1	102	NA	347.107395929001	0	0.51	5.36	1	340.030005951	340.032304909	"26"	6927.196300856	6873.64247712	1.5	0.1
0.01	1	0.002663364	1	102	NA	347.107395929001	0	0.51	5.36	1	340.263714843	340.266378207	"26"	6927.196300856	6873.64247712	1.5	0.1
0.01	1	0.00219445599941537	1	102	NA	347.107395929001	0	0.51	5.36	1	340.497413413001	340.499607869	"26"	6927.196300856	6873.64247712	1.5	0.1
0.01	1	0.262842308000472	1	102	NA	347.107395929001	0	0.51	5.36	1	340.731144403	340.993986711001	"26"	6927.196300856	6873.64247712	1.5	0.1
0.01	1	0.265157678999458	1	102	NA	347.107395929001	0	0.51	5.36	1	341.231925273	341.497082952	"26"	6927.196300856	6873.64247712	1.5	0.1
0.01	1	0.388092805000269	1	102	NA	347.107395929001	0	0.51	5.36	1	341.7328429	342.120935705	"26"	6927.196300856	6873.64247712	1.5	0.1
0.01	1	0.746853249999731	1	102	NA	347.107395929001	0	0.51	5.36	1	342.350714965	343.097568215	"26"	6927.196300856	6873.64247712	1.5	0.1
0.01	1	0.00238284199986083	1	102	NA	347.107395929001	0	0.51	5.36	1	343.335444519001	343.337827361001	"26"	6927.196300856	6873.64247712	1.5	0.1
0.01	1	0.00231879500006471	1	102	NA	347.107395929001	0	0.51	5.36	1	343.569236092	343.571554887	"26"	6927.196300856	6873.64247712	1.5	0.1
0.01	1	0.094303564999791	1	102	NA	347.107395929001	0	0.51	5.36	1	343.802906918	343.897210483	"26"	6927.196300856	6873.64247712	1.5	0.1
0.01	1	0.104590920000192	1	102	NA	347.107395929001	0	0.51	5.36	1	344.13684841	344.241439330001	"26"	6927.196300856	6873.64247712	1.5	0.1
0.01	1	0.00459812200006127	1	102	NA	347.107395929001	0	0.51	5.36	1	344.470735898	344.47533402	"26"	6927.196300856	6873.64247712	1.5	0.1
0.01	1	0.0642999800002144	1	102	NA	347.107395929001	0	0.51	5.36	1	344.704474358	344.768774338	"26"	6927.196300856	6873.64247712	1.5	0.1
0.01	1	0.00373769000088942	1	102	NA	347.107395929001	0	0.51	5.36	1	345.004962575	345.008700265001	"26"	6927.196300856	6873.64247712	1.5	0.1
0.01	1	0.690776704999735	1	102	NA	347.107395929001	0	0.51	5.36	1	345.238646523	345.929423228	"26"	6927.196300856	6873.64247712	1.5	0.1
0.01	1	0.00479584700042324	1	102	NA	347.107395929001	0	0.51	5.36	1	346.157004388	346.161800235001	"26"	6927.196300856	6873.64247712	1.5	0.1
0.01	1	0.0436378630001855	1	102	NA	347.107395929001	0	0.51	5.36	1	346.39062835	346.434266213	"26"	6927.196300856	6873.64247712	1.5	0.1
0.01	1	0.448004935999961	2	102	NA	347.107395929001	0	0.51	5.36	1	346.657817723	347.105822659	"26"	6927.196300856	6873.64247712	1.5	0.1
0.01	1	6.30205441499947	1	120	NA	386.410093561	0	0.960000000000001	6.32	1	349.161949875001	355.46400429	"27"	6927.196300856	6873.64247712	1.5	0.1
0.01	1	0.0868696870002168	1	120	NA	386.410093561	0	0.960000000000001	6.32	1	355.68957296	355.776442647	"27"	6927.196300856	6873.64247712	1.5	0.1
0.01	1	0.00420062000011967	1	120	NA	386.410093561	0	0.960000000000001	6.32	1	356.006771293	356.010971913001	"27"	6927.196300856	6873.64247712	1.5	0.1
0.01	1	0.0553269030006049	1	120	NA	386.410093561	0	0.960000000000001	6.32	1	356.240489418	356.295816321001	"27"	6927.196300856	6873.64247712	1.5	0.1
0.01	1	0.795875826000156	1	120	NA	386.410093561	0	0.960000000000001	6.32	1	356.524326863	357.320202689	"27"	6927.196300856	6873.64247712	1.5	0.1
0.01	1	0.058381107999594	1	120	NA	386.410093561	0	0.960000000000001	6.32	1	357.542665673001	357.601046781	"27"	6927.196300856	6873.64247712	1.5	0.1
0.01	1	0.00211323500025173	1	120	NA	386.410093561	0	0.960000000000001	6.32	1	357.82657966	357.828692895	"27"	6927.196300856	6873.64247712	1.5	0.1
0.01	1	0.00405300900001748	1	120	NA	386.410093561	0	0.960000000000001	6.32	1	358.060239660001	358.064292669001	"27"	6927.196300856	6873.64247712	1.5	0.1
0.01	1	0.105495161000363	1	120	NA	386.410093561	0	0.960000000000001	6.32	1	358.293934958	358.399430119	"27"	6927.196300856	6873.64247712	1.5	0.1
0.01	1	0.00407218399959675	1	120	NA	386.410093561	0	0.960000000000001	6.32	1	358.627885943	358.631958127	"27"	6927.196300856	6873.64247712	1.5	0.1
0.01	1	0.00400225199973647	1	120	NA	386.410093561	0	0.960000000000001	6.32	1	358.861664543	358.865666795	"27"	6927.196300856	6873.64247712	1.5	0.1
0.01	1	0.0734585250002056	1	120	NA	386.410093561	0	0.960000000000001	6.32	1	359.095276988	359.168735513001	"27"	6927.196300856	6873.64247712	1.5	0.1
0.01	1	0.002526659999603	1	120	NA	386.410093561	0	0.960000000000001	6.32	1	359.395862727	359.398389387	"27"	6927.196300856	6873.64247712	1.5	0.1
0.01	1	0.00417832199946133	1	120	NA	386.410093561	0	0.960000000000001	6.32	1	359.629513253	359.633691575	"27"	6927.196300856	6873.64247712	1.5	0.1
0.01	1	0.0572250450004503	1	120	NA	386.410093561	0	0.960000000000001	6.32	1	359.863206522	359.920431567	"27"	6927.196300856	6873.64247712	1.5	0.1
0.01	1	0.00208939900039695	1	120	NA	386.410093561	0	0.960000000000001	6.32	1	360.147109243	360.149198642001	"27"	6927.196300856	6873.64247712	1.5	0.1
0.01	1	0.00405720400067366	1	120	NA	386.410093561	0	0.960000000000001	6.32	1	360.380850875	360.384908079001	"27"	6927.196300856	6873.64247712	1.5	0.1
0.01	1	0.00470949999998993	1	120	NA	386.410093561	0	0.960000000000001	6.32	1	360.614618128	360.619327628	"27"	6927.196300856	6873.64247712	1.5	0.1
0.01	1	0.088023725000312	1	120	NA	386.410093561	0	0.960000000000001	6.32	1	360.848222188	360.936245913001	"27"	6927.196300856	6873.64247712	1.5	0.1
0.01	1	0.00320759399983217	1	120	NA	386.410093561	0	0.960000000000001	6.32	1	361.165426665	361.168634259	"27"	6927.196300856	6873.64247712	1.5	0.1
0.01	1	0.00210533899917209	1	120	NA	386.410093561	0	0.960000000000001	6.32	1	361.399177130001	361.401282469	"27"	6927.196300856	6873.64247712	1.5	0.1
0.01	1	0.00250057699940953	1	120	NA	386.410093561	0	0.960000000000001	6.32	1	361.632994913	361.63549549	"27"	6927.196300856	6873.64247712	1.5	0.1
0.01	1	0.00211064300037833	1	120	NA	386.410093561	0	0.960000000000001	6.32	1	361.866626147	361.86873679	"27"	6927.196300856	6873.64247712	1.5	0.1
0.01	1	0.00406392299919389	1	120	NA	386.410093561	0	0.960000000000001	6.32	1	362.100361608001	362.104425531	"27"	6927.196300856	6873.64247712	1.5	0.1
0.01	1	0.00406022400056827	1	120	NA	386.410093561	0	0.960000000000001	6.32	1	362.334046713	362.338106937001	"27"	6927.196300856	6873.64247712	1.5	0.1
0.01	1	0.00396598100087431	1	120	NA	386.410093561	0	0.960000000000001	6.32	1	362.567860888	362.571826869001	"27"	6927.196300856	6873.64247712	1.5	0.1
0.01	1	0.00403368299976137	1	120	NA	386.410093561	0	0.960000000000001	6.32	1	362.801560058	362.805593741	"27"	6927.196300856	6873.64247712	1.5	0.1
0.01	1	0.0998560389998602	1	120	NA	386.410093561	0	0.960000000000001	6.32	1	363.035360848	363.135216887	"27"	6927.196300856	6873.64247712	1.5	0.1
0.01	1	0.00479781499961973	1	120	NA	386.410093561	0	0.960000000000001	6.32	1	363.369320958001	363.374118773	"27"	6927.196300856	6873.64247712	1.5	0.1
0.01	1	0.00494265499946778	1	120	NA	386.410093561	0	0.960000000000001	6.32	1	363.602842193	363.607784848	"27"	6927.196300856	6873.64247712	1.5	0.1
0.01	1	0.00412640299964551	1	120	NA	386.410093561	0	0.960000000000001	6.32	1	363.836589248001	363.840715651	"27"	6927.196300856	6873.64247712	1.5	0.1
0.01	1	0.00265236299946991	1	120	NA	386.410093561	0	0.960000000000001	6.32	1	364.070314815001	364.072967178	"27"	6927.196300856	6873.64247712	1.5	0.1
0.01	1	0.00243554200005747	1	120	NA	386.410093561	0	0.960000000000001	6.32	1	364.304098495	364.306534037	"27"	6927.196300856	6873.64247712	1.5	0.1
0.01	1	0.00272884400055773	1	120	NA	386.410093561	0	0.960000000000001	6.32	1	364.537747661	364.540476505001	"27"	6927.196300856	6873.64247712	1.5	0.1
0.01	1	0.00465084400002524	1	120	NA	386.410093561	0	0.960000000000001	6.32	1	364.771526566	364.77617741	"27"	6927.196300856	6873.64247712	1.5	0.1
0.01	1	0.00220120799986034	1	120	NA	386.410093561	0	0.960000000000001	6.32	1	365.005208589	365.007409797	"27"	6927.196300856	6873.64247712	1.5	0.1
0.01	1	0.00233841600038431	1	120	NA	386.410093561	0	0.960000000000001	6.32	1	365.238970788	365.241309204001	"27"	6927.196300856	6873.64247712	1.5	0.1
0.01	1	0.00232781799968507	1	120	NA	386.410093561	0	0.960000000000001	6.32	1	365.472655252001	365.47498307	"27"	6927.196300856	6873.64247712	1.5	0.1
0.01	1	0.00352099800056749	1	120	NA	386.410093561	0	0.960000000000001	6.32	1	365.706360733	365.709881731001	"27"	6927.196300856	6873.64247712	1.5	0.1
0.01	1	0.00219447899962688	1	120	NA	386.410093561	0	0.960000000000001	6.32	1	365.940214377	365.942408856	"27"	6927.196300856	6873.64247712	1.5	0.1
0.01	1	0.00219672399998672	1	120	NA	386.410093561	0	0.960000000000001	6.32	1	366.174007383001	366.176204107001	"27"	6927.196300856	6873.64247712	1.5	0.1
0.01	1	0.00214086300002236	1	120	NA	386.410093561	0	0.960000000000001	6.32	1	366.407653787001	366.409794650001	"27"	6927.196300856	6873.64247712	1.5	0.1
0.01	1	0.00213602199983143	1	120	NA	386.410093561	0	0.960000000000001	6.32	1	366.641390579	366.643526601	"27"	6927.196300856	6873.64247712	1.5	0.1
0.01	1	0.00344419999964884	1	120	NA	386.410093561	0	0.960000000000001	6.32	1	366.875074493	366.878518693	"27"	6927.196300856	6873.64247712	1.5	0.1
0.01	1	0.274864815000001	1	120	NA	386.410093561	0	0.960000000000001	6.32	1	367.108783198	367.383648013	"27"	6927.196300856	6873.64247712	1.5	0.1
0.01	1	0.0375998629997412	1	120	NA	386.410093561	0	0.960000000000001	6.32	1	367.609611055001	367.647210918	"27"	6927.196300856	6873.64247712	1.5	0.1
0.01	1	0.00234561099932762	1	120	NA	386.410093561	0	0.960000000000001	6.32	1	367.876696711	367.879042322	"27"	6927.196300856	6873.64247712	1.5	0.1
