"payoff.level"	"balloon"	"rt"	"resp"	"explode.trial"	"explode.time"	"finish.time"	"exploded"	"trial.total"	"cumulative.total"	"finished"	"trial.start"	"trial.end"	"trial.num"	"secs"	"start.time"	"iti"	"isi"
0.01	1	1.17811173500377	1	64	NA	15.9205353830039	0	0.55	0.55	1	0.0122075559993391	1.19031929100311	"1"	54596.931629243	53971.751610553	1.5	0.1
0.01	1	0.00540432799607515	1	64	NA	15.9205353830039	0	0.55	0.55	1	1.48135688800539	1.48676121600147	"1"	54596.931629243	53971.751610553	1.5	0.1
0.01	1	0.0917199280011118	1	64	NA	15.9205353830039	0	0.55	0.55	1	1.71497058300156	1.80669051100267	"1"	54596.931629243	53971.751610553	1.5	0.1
0.01	1	0.00385633899713866	1	64	NA	15.9205353830039	0	0.55	0.55	1	2.03224414300348	2.03610048200062	"1"	54596.931629243	53971.751610553	1.5	0.1
0.01	1	0.00393403899943223	1	64	NA	15.9205353830039	0	0.55	0.55	1	2.26584522300254	2.26977926200198	"1"	54596.931629243	53971.751610553	1.5	0.1
0.01	1	0.0270693000056781	1	64	NA	15.9205353830039	0	0.55	0.55	1	2.49973119499919	2.52680049500486	"1"	54596.931629243	53971.751610553	1.5	0.1
0.01	1	0.00207509299798403	1	64	NA	15.9205353830039	0	0.55	0.55	1	2.76665366300585	2.76872875600384	"1"	54596.931629243	53971.751610553	1.5	0.1
0.01	1	0.0305915960052516	1	64	NA	15.9205353830039	0	0.55	0.55	1	3.00051754000015	3.0311091360054	"1"	54596.931629243	53971.751610553	1.5	0.1
0.01	1	0.00394532400241587	1	64	NA	15.9205353830039	0	0.55	0.55	1	3.26773081000283	3.27167613400525	"1"	54596.931629243	53971.751610553	1.5	0.1
0.01	1	0.00381516900233692	1	64	NA	15.9205353830039	0	0.55	0.55	1	3.50133928300056	3.5051544520029	"1"	54596.931629243	53971.751610553	1.5	0.1
0.01	1	0.00366451800073264	1	64	NA	15.9205353830039	0	0.55	0.55	1	3.73505363800359	3.73871815600432	"1"	54596.931629243	53971.751610553	1.5	0.1
0.01	1	0.00703301400062628	1	64	NA	15.9205353830039	0	0.55	0.55	1	3.96886558800179	3.97589860200242	"1"	54596.931629243	53971.751610553	1.5	0.1
0.01	1	0.00455373500153655	1	64	NA	15.9205353830039	0	0.55	0.55	1	4.20244388800347	4.20699762300501	"1"	54596.931629243	53971.751610553	1.5	0.1
0.01	1	0.0197028760012472	1	64	NA	15.9205353830039	0	0.55	0.55	1	4.43626779800252	4.45597067400377	"1"	54596.931629243	53971.751610553	1.5	0.1
0.01	1	0.00385848800215172	1	64	NA	15.9205353830039	0	0.55	0.55	1	4.68669513799978	4.69055362600193	"1"	54596.931629243	53971.751610553	1.5	0.1
0.01	1	0.00375529099983396	1	64	NA	15.9205353830039	0	0.55	0.55	1	4.92035308300547	4.9241083740053	"1"	54596.931629243	53971.751610553	1.5	0.1
0.01	1	0.00398865500028478	1	64	NA	15.9205353830039	0	0.55	0.55	1	5.15415466500417	5.15814332000446	"1"	54596.931629243	53971.751610553	1.5	0.1
0.01	1	0.050221887002408	1	64	NA	15.9205353830039	0	0.55	0.55	1	5.38781266300066	5.43803455000307	"1"	54596.931629243	53971.751610553	1.5	0.1
0.01	1	0.00391100900014862	1	64	NA	15.9205353830039	0	0.55	0.55	1	5.67170987300051	5.67562088200066	"1"	54596.931629243	53971.751610553	1.5	0.1
0.01	1	0.069874956003332	1	64	NA	15.9205353830039	0	0.55	0.55	1	5.90532171000086	5.97519666600419	"1"	54596.931629243	53971.751610553	1.5	0.1
0.01	1	0.00460234500496881	1	64	NA	15.9205353830039	0	0.55	0.55	1	6.20583168799931	6.21043403300428	"1"	54596.931629243	53971.751610553	1.5	0.1
0.01	1	0.00392188400292071	1	64	NA	15.9205353830039	0	0.55	0.55	1	6.43959928800177	6.44352117200469	"1"	54596.931629243	53971.751610553	1.5	0.1
0.01	1	0.0699545410025166	1	64	NA	15.9205353830039	0	0.55	0.55	1	6.67327355300222	6.74322809400473	"1"	54596.931629243	53971.751610553	1.5	0.1
0.01	1	0.00379716000315966	1	64	NA	15.9205353830039	0	0.55	0.55	1	6.9739227300015	6.97771989000466	"1"	54596.931629243	53971.751610553	1.5	0.1
0.01	1	0.0955753079979331	1	64	NA	15.9205353830039	0	0.55	0.55	1	7.20760437500576	7.30317968300369	"1"	54596.931629243	53971.751610553	1.5	0.1
0.01	1	0.00370687399845337	1	64	NA	15.9205353830039	0	0.55	0.55	1	7.54140867000388	7.54511554400233	"1"	54596.931629243	53971.751610553	1.5	0.1
0.01	1	0.104892704999656	1	64	NA	15.9205353830039	0	0.55	0.55	1	7.77514512299967	7.88003782799933	"1"	54596.931629243	53971.751610553	1.5	0.1
0.01	1	0.0045163920003688	1	64	NA	15.9205353830039	0	0.55	0.55	1	8.10910469300143	8.1136210850018	"1"	54596.931629243	53971.751610553	1.5	0.1
0.01	1	0.003694988998177	1	64	NA	15.9205353830039	0	0.55	0.55	1	8.34271306500159	8.34640805399977	"1"	54596.931629243	53971.751610553	1.5	0.1
0.01	1	0.102051515001222	1	64	NA	15.9205353830039	0	0.55	0.55	1	8.57654074300081	8.67859225800203	"1"	54596.931629243	53971.751610553	1.5	0.1
0.01	1	0.00358032599615399	1	64	NA	15.9205353830039	0	0.55	0.55	1	8.91044793800393	8.91402826400008	"1"	54596.931629243	53971.751610553	1.5	0.1
0.01	1	0.00399577200005297	1	64	NA	15.9205353830039	0	0.55	0.55	1	9.1441121300013	9.14810790200136	"1"	54596.931629243	53971.751610553	1.5	0.1
0.01	1	0.00380571599816903	1	64	NA	15.9205353830039	0	0.55	0.55	1	9.37793725800293	9.3817429740011	"1"	54596.931629243	53971.751610553	1.5	0.1
0.01	1	0.00391262500488665	1	64	NA	15.9205353830039	0	0.55	0.55	1	9.61162570300075	9.61553832800564	"1"	54596.931629243	53971.751610553	1.5	0.1
0.01	1	0.00357408099807799	1	64	NA	15.9205353830039	0	0.55	0.55	1	9.84526807300426	9.84884215400234	"1"	54596.931629243	53971.751610553	1.5	0.1
0.01	1	0.00459038000553846	1	64	NA	15.9205353830039	0	0.55	0.55	1	10.0791321979996	10.0837225780051	"1"	54596.931629243	53971.751610553	1.5	0.1
0.01	1	0.00417673800257035	1	64	NA	15.9205353830039	0	0.55	0.55	1	10.3127452039989	10.3169219420015	"1"	54596.931629243	53971.751610553	1.5	0.1
0.01	1	0.0916414599996642	1	64	NA	15.9205353830039	0	0.55	0.55	1	10.5465985830015	10.6382400430011	"1"	54596.931629243	53971.751610553	1.5	0.1
0.01	1	0.0039747759947204	1	64	NA	15.9205353830039	0	0.55	0.55	1	10.8636990400046	10.8676738159993	"1"	54596.931629243	53971.751610553	1.5	0.1
0.01	1	0.00207973900251091	1	64	NA	15.9205353830039	0	0.55	0.55	1	11.097507945	11.0995876840025	"1"	54596.931629243	53971.751610553	1.5	0.1
0.01	1	0.00263232900033472	1	64	NA	15.9205353830039	0	0.55	0.55	1	11.331152753999	11.3337850829994	"1"	54596.931629243	53971.751610553	1.5	0.1
0.01	1	0.114322329995048	1	64	NA	15.9205353830039	0	0.55	0.55	1	11.5649546980057	11.6792770280008	"1"	54596.931629243	53971.751610553	1.5	0.1
0.01	1	0.00356468499376206	1	64	NA	15.9205353830039	0	0.55	0.55	1	11.9156034930056	11.9191681779994	"1"	54596.931629243	53971.751610553	1.5	0.1
0.01	1	0.00386552499548998	1	64	NA	15.9205353830039	0	0.55	0.55	1	12.1491463550046	12.1530118800001	"1"	54596.931629243	53971.751610553	1.5	0.1
0.01	1	0.00437424900155747	1	64	NA	15.9205353830039	0	0.55	0.55	1	12.3829701260038	12.3873443750053	"1"	54596.931629243	53971.751610553	1.5	0.1
0.01	1	0.00401794900244568	1	64	NA	15.9205353830039	0	0.55	0.55	1	12.6166766250026	12.620694574005	"1"	54596.931629243	53971.751610553	1.5	0.1
0.01	1	0.00443938500393415	1	64	NA	15.9205353830039	0	0.55	0.55	1	12.8503010080021	12.8547403930061	"1"	54596.931629243	53971.751610553	1.5	0.1
0.01	1	0.00373162300093099	1	64	NA	15.9205353830039	0	0.55	0.55	1	13.0840852250039	13.0878168480049	"1"	54596.931629243	53971.751610553	1.5	0.1
0.01	1	0.105843090997951	1	64	NA	15.9205353830039	0	0.55	0.55	1	13.317828365005	13.4236714560029	"1"	54596.931629243	53971.751610553	1.5	0.1
0.01	1	0.00364231599814957	1	64	NA	15.9205353830039	0	0.55	0.55	1	13.6516973780017	13.6553396939998	"1"	54596.931629243	53971.751610553	1.5	0.1
0.01	1	0.00331751000339864	1	64	NA	15.9205353830039	0	0.55	0.55	1	13.8854923460021	13.8888098560055	"1"	54596.931629243	53971.751610553	1.5	0.1
0.01	1	0.00377773600484943	1	64	NA	15.9205353830039	0	0.55	0.55	1	14.1191779500004	14.1229556860053	"1"	54596.931629243	53971.751610553	1.5	0.1
0.01	1	0.00390649499604478	1	64	NA	15.9205353830039	0	0.55	0.55	1	14.3529476250042	14.3568541200002	"1"	54596.931629243	53971.751610553	1.5	0.1
0.01	1	0.00389199100027326	1	64	NA	15.9205353830039	0	0.55	0.55	1	14.5866093650038	14.5905013560041	"1"	54596.931629243	53971.751610553	1.5	0.1
0.01	1	0.122308727004565	1	64	NA	15.9205353830039	0	0.55	0.55	1	14.8203636149992	14.9426723420038	"1"	54596.931629243	53971.751610553	1.5	0.1
0.01	1	0.747933220998675	2	64	NA	15.9205353830039	0	0.55	0.55	1	15.1708931530011	15.9188263739998	"1"	54596.931629243	53971.751610553	1.5	0.1
0.01	1	1.72023633400386	1	68	36.3765712900058	NA	1	0	0.55	1	17.9756922369997	19.6959285710036	"2"	54596.931629243	53971.751610553	1.5	0.1
0.01	1	0.00463379000575515	1	68	36.3765712900058	NA	1	0	0.55	1	19.9289194779994	19.9335532680052	"2"	54596.931629243	53971.751610553	1.5	0.1
0.01	1	0.0596260629972676	1	68	36.3765712900058	NA	1	0	0.55	1	20.1627047170041	20.2223307800014	"2"	54596.931629243	53971.751610553	1.5	0.1
0.01	1	0.00379758099734318	1	68	36.3765712900058	NA	1	0	0.55	1	20.4464333330034	20.4502309140007	"2"	54596.931629243	53971.751610553	1.5	0.1
0.01	1	0.111003895006434	1	68	36.3765712900058	NA	1	0	0.55	1	20.6802262429992	20.7912301380056	"2"	54596.931629243	53971.751610553	1.5	0.1
0.01	1	0.00375721499585779	1	68	36.3765712900058	NA	1	0	0.55	1	21.0141515050054	21.0179087200013	"2"	54596.931629243	53971.751610553	1.5	0.1
0.01	1	0.00421300099696964	1	68	36.3765712900058	NA	1	0	0.55	1	21.247835027003	21.252048028	"2"	54596.931629243	53971.751610553	1.5	0.1
0.01	1	0.0620082239984185	1	68	36.3765712900058	NA	1	0	0.55	1	21.4815659950036	21.543574219002	"2"	54596.931629243	53971.751610553	1.5	0.1
0.01	1	0.00376957000116818	1	68	36.3765712900058	NA	1	0	0.55	1	21.7653432180014	21.7691127880025	"2"	54596.931629243	53971.751610553	1.5	0.1
0.01	1	0.00388879000092857	1	68	36.3765712900058	NA	1	0	0.55	1	21.9991139699996	22.0030027600005	"2"	54596.931629243	53971.751610553	1.5	0.1
0.01	1	0.118294523002987	1	68	36.3765712900058	NA	1	0	0.55	1	22.2327904280028	22.3510849510058	"2"	54596.931629243	53971.751610553	1.5	0.1
0.01	1	0.00451284999871859	1	68	36.3765712900058	NA	1	0	0.55	1	22.5835729230021	22.5880857730008	"2"	54596.931629243	53971.751610553	1.5	0.1
0.01	1	0.0035174989970983	1	68	36.3765712900058	NA	1	0	0.55	1	22.817097555002	22.8206150539991	"2"	54596.931629243	53971.751610553	1.5	0.1
0.01	1	0.00391322700306773	1	68	36.3765712900058	NA	1	0	0.55	1	23.0508282750015	23.0547415020046	"2"	54596.931629243	53971.751610553	1.5	0.1
0.01	1	0.106962437006587	1	68	36.3765712900058	NA	1	0	0.55	1	23.2846079279989	23.3915703650055	"2"	54596.931629243	53971.751610553	1.5	0.1
0.01	1	0.00335293799435021	1	68	36.3765712900058	NA	1	0	0.55	1	23.6185495700047	23.621902507999	"2"	54596.931629243	53971.751610553	1.5	0.1
0.01	1	0.00464278199797263	1	68	36.3765712900058	NA	1	0	0.55	1	23.8522539680052	23.8568967500032	"2"	54596.931629243	53971.751610553	1.5	0.1
0.01	1	0.0037764930020785	1	68	36.3765712900058	NA	1	0	0.55	1	24.0859131350007	24.0896896280028	"2"	54596.931629243	53971.751610553	1.5	0.1
0.01	1	0.00396545400144532	1	68	36.3765712900058	NA	1	0	0.55	1	24.3196778300044	24.3236432840058	"2"	54596.931629243	53971.751610553	1.5	0.1
0.01	1	0.00402525599929504	1	68	36.3765712900058	NA	1	0	0.55	1	24.5534013100041	24.5574265660034	"2"	54596.931629243	53971.751610553	1.5	0.1
0.01	1	0.00385936800012132	1	68	36.3765712900058	NA	1	0	0.55	1	24.7870586900026	24.7909180580027	"2"	54596.931629243	53971.751610553	1.5	0.1
0.01	1	0.11418169499666	1	68	36.3765712900058	NA	1	0	0.55	1	25.0209043330033	25.1350860279999	"2"	54596.931629243	53971.751610553	1.5	0.1
0.01	1	0.00459251699794549	1	68	36.3765712900058	NA	1	0	0.55	1	25.3715053730048	25.3760978900027	"2"	54596.931629243	53971.751610553	1.5	0.1
0.01	1	0.00397872499888763	1	68	36.3765712900058	NA	1	0	0.55	1	25.6051414530011	25.609120178	"2"	54596.931629243	53971.751610553	1.5	0.1
0.01	1	0.00209777700365521	1	68	36.3765712900058	NA	1	0	0.55	1	25.838981891	25.8410796680037	"2"	54596.931629243	53971.751610553	1.5	0.1
0.01	1	0.0226863450006931	1	68	36.3765712900058	NA	1	0	0.55	1	26.0726113230048	26.0952976680055	"2"	54596.931629243	53971.751610553	1.5	0.1
0.01	1	0.00314490800519707	1	68	36.3765712900058	NA	1	0	0.55	1	26.3230265419988	26.326171450004	"2"	54596.931629243	53971.751610553	1.5	0.1
0.01	1	0.00210703199991258	1	68	36.3765712900058	NA	1	0	0.55	1	26.5568000950007	26.5589071270006	"2"	54596.931629243	53971.751610553	1.5	0.1
0.01	1	0.00203520200011553	1	68	36.3765712900058	NA	1	0	0.55	1	26.7904861600036	26.7925213620038	"2"	54596.931629243	53971.751610553	1.5	0.1
0.01	1	0.00201488500169944	1	68	36.3765712900058	NA	1	0	0.55	1	27.0241542130025	27.0261690980042	"2"	54596.931629243	53971.751610553	1.5	0.1
0.01	1	0.00391316600143909	1	68	36.3765712900058	NA	1	0	0.55	1	27.2579728880009	27.2618860540024	"2"	54596.931629243	53971.751610553	1.5	0.1
0.01	1	0.00387890899582999	1	68	36.3765712900058	NA	1	0	0.55	1	27.4916399530048	27.4955188620006	"2"	54596.931629243	53971.751610553	1.5	0.1
0.01	1	0.00378389900288312	1	68	36.3765712900058	NA	1	0	0.55	1	27.7253805729997	27.7291644720026	"2"	54596.931629243	53971.751610553	1.5	0.1
0.01	1	0.00463106000097468	1	68	36.3765712900058	NA	1	0	0.55	1	27.959159363003	27.963790423004	"2"	54596.931629243	53971.751610553	1.5	0.1
0.01	1	0.118971358002455	1	68	36.3765712900058	NA	1	0	0.55	1	28.1928373100018	28.3118086680042	"2"	54596.931629243	53971.751610553	1.5	0.1
0.01	1	0.0228069980003056	1	68	36.3765712900058	NA	1	0	0.55	1	28.5434553550003	28.5662623530006	"2"	54596.931629243	53971.751610553	1.5	0.1
0.01	1	0.0135667789945728	1	68	36.3765712900058	NA	1	0	0.55	1	28.7938850730061	28.8074518520007	"2"	54596.931629243	53971.751610553	1.5	0.1
0.01	1	0.0029968859962537	1	68	36.3765712900058	NA	1	0	0.55	1	29.0443169140053	29.0473138000016	"2"	54596.931629243	53971.751610553	1.5	0.1
0.01	1	0.00442177199875005	1	68	36.3765712900058	NA	1	0	0.55	1	29.2780159710019	29.2824377430006	"2"	54596.931629243	53971.751610553	1.5	0.1
0.01	1	0.0156873550004093	1	68	36.3765712900058	NA	1	0	0.55	1	29.5117439280002	29.5274312830006	"2"	54596.931629243	53971.751610553	1.5	0.1
0.01	1	0.00202326200087555	1	68	36.3765712900058	NA	1	0	0.55	1	29.7622147830043	29.7642380450052	"2"	54596.931629243	53971.751610553	1.5	0.1
0.01	1	0.00208950600062963	1	68	36.3765712900058	NA	1	0	0.55	1	29.9958809689997	29.9979704750003	"2"	54596.931629243	53971.751610553	1.5	0.1
0.01	1	0.0178452789987205	1	68	36.3765712900058	NA	1	0	0.55	1	30.229584243003	30.2474295220018	"2"	54596.931629243	53971.751610553	1.5	0.1
0.01	1	0.00921260099858046	1	68	36.3765712900058	NA	1	0	0.55	1	30.4800222750055	30.489234876004	"2"	54596.931629243	53971.751610553	1.5	0.1
0.01	1	0.00727743899915367	1	68	36.3765712900058	NA	1	0	0.55	1	30.7136823330002	30.7209597719993	"2"	54596.931629243	53971.751610553	1.5	0.1
0.01	1	0.00312483799643815	1	68	36.3765712900058	NA	1	0	0.55	1	30.947510046004	30.9506348840005	"2"	54596.931629243	53971.751610553	1.5	0.1
0.01	1	0.00983542299945839	1	68	36.3765712900058	NA	1	0	0.55	1	31.1811667530055	31.191002176005	"2"	54596.931629243	53971.751610553	1.5	0.1
0.01	1	0.0159519480002928	1	68	36.3765712900058	NA	1	0	0.55	1	31.4148712950046	31.4308232430049	"2"	54596.931629243	53971.751610553	1.5	0.1
0.01	1	0.00657445699471282	1	68	36.3765712900058	NA	1	0	0.55	1	31.6654147350055	31.6719891920002	"2"	54596.931629243	53971.751610553	1.5	0.1
0.01	1	0.00220843400165904	1	68	36.3765712900058	NA	1	0	0.55	1	31.8991902310008	31.9013986650025	"2"	54596.931629243	53971.751610553	1.5	0.1
0.01	1	0.0039599809970241	1	68	36.3765712900058	NA	1	0	0.55	1	32.1327616250055	32.1367216060025	"2"	54596.931629243	53971.751610553	1.5	0.1
0.01	1	0.00465417000668822	1	68	36.3765712900058	NA	1	0	0.55	1	32.3666524229993	32.371306593006	"2"	54596.931629243	53971.751610553	1.5	0.1
0.01	1	0.00428027800080599	1	68	36.3765712900058	NA	1	0	0.55	1	32.6003134700004	32.6045937480012	"2"	54596.931629243	53971.751610553	1.5	0.1
0.01	1	0.00458541999978479	1	68	36.3765712900058	NA	1	0	0.55	1	32.8340345530014	32.8386199730012	"2"	54596.931629243	53971.751610553	1.5	0.1
0.01	1	0.00395866199687589	1	68	36.3765712900058	NA	1	0	0.55	1	33.0677851100045	33.0717437720014	"2"	54596.931629243	53971.751610553	1.5	0.1
0.01	1	0.00458968500606716	1	68	36.3765712900058	NA	1	0	0.55	1	33.3014205479994	33.3060102330055	"2"	54596.931629243	53971.751610553	1.5	0.1
0.01	1	0.00210794099984923	1	68	36.3765712900058	NA	1	0	0.55	1	33.5352552350014	33.5373631760012	"2"	54596.931629243	53971.751610553	1.5	0.1
0.01	1	0.00206886100204429	1	68	36.3765712900058	NA	1	0	0.55	1	33.7688777250005	33.7709465860025	"2"	54596.931629243	53971.751610553	1.5	0.1
0.01	1	0.00223396599903936	1	68	36.3765712900058	NA	1	0	0.55	1	34.0025663500055	34.0048003160045	"2"	54596.931629243	53971.751610553	1.5	0.1
0.01	1	0.00367109799844911	1	68	36.3765712900058	NA	1	0	0.55	1	34.2363152380058	34.2399863360042	"2"	54596.931629243	53971.751610553	1.5	0.1
0.01	1	0.152845634002006	1	68	36.3765712900058	NA	1	0	0.55	1	34.4700588030028	34.6229044370048	"2"	54596.931629243	53971.751610553	1.5	0.1
0.01	1	0.00398874500388047	1	68	36.3765712900058	NA	1	0	0.55	1	34.854009704999	34.8579984500029	"2"	54596.931629243	53971.751610553	1.5	0.1
0.01	1	0.00808342800155515	1	68	36.3765712900058	NA	1	0	0.55	1	35.0878659380032	35.0959493660048	"2"	54596.931629243	53971.751610553	1.5	0.1
0.01	1	0.00331715399806853	1	68	36.3765712900058	NA	1	0	0.55	1	35.3214741960037	35.3247913500018	"2"	54596.931629243	53971.751610553	1.5	0.1
0.01	1	0.00206455299485242	1	68	36.3765712900058	NA	1	0	0.55	1	35.5552323100055	35.5572968630004	"2"	54596.931629243	53971.751610553	1.5	0.1
0.01	1	0.0022547519984073	1	68	36.3765712900058	NA	1	0	0.55	1	35.7889705500056	35.791225302004	"2"	54596.931629243	53971.751610553	1.5	0.1
0.01	1	0.00459596199652879	1	68	36.3765712900058	NA	1	0	0.55	1	36.0227175680047	36.0273135300013	"2"	54596.931629243	53971.751610553	1.5	0.1
0.01	1	0.00603642700298224	1	68	36.3765712900058	NA	1	0	0.55	1	36.2564213959995	36.2624578230025	"2"	54596.931629243	53971.751610553	1.5	0.1
0.01	1	1.22103946499556	1	33	47.6118716950004	NA	1	0	0.55	1	38.410068863006	39.6311083280016	"3"	54596.931629243	53971.751610553	1.5	0.1
0.01	1	0.0173955129939714	1	33	47.6118716950004	NA	1	0	0.55	1	39.8624479300051	39.8798434429991	"3"	54596.931629243	53971.751610553	1.5	0.1
0.01	1	0.0228828410035931	1	33	47.6118716950004	NA	1	0	0.55	1	40.112869012999	40.1357518540026	"3"	54596.931629243	53971.751610553	1.5	0.1
0.01	1	0.00214322600368178	1	33	47.6118716950004	NA	1	0	0.55	1	40.3632725269999	40.3654157530036	"3"	54596.931629243	53971.751610553	1.5	0.1
0.01	1	0.00204435100022238	1	33	47.6118716950004	NA	1	0	0.55	1	40.5971191019999	40.5991634530001	"3"	54596.931629243	53971.751610553	1.5	0.1
0.01	1	0.00218442999903345	1	33	47.6118716950004	NA	1	0	0.55	1	40.8307946030036	40.8329790330026	"3"	54596.931629243	53971.751610553	1.5	0.1
0.01	1	0.00453050500073005	1	33	47.6118716950004	NA	1	0	0.55	1	41.0645241430029	41.0690546480037	"3"	54596.931629243	53971.751610553	1.5	0.1
0.01	1	0.00387797799339751	1	33	47.6118716950004	NA	1	0	0.55	1	41.2983124080056	41.302190385999	"3"	54596.931629243	53971.751610553	1.5	0.1
0.01	1	0.130090145998111	1	33	47.6118716950004	NA	1	0	0.55	1	41.5320448820057	41.6621350280038	"3"	54596.931629243	53971.751610553	1.5	0.1
0.01	1	0.0021002379944548	1	33	47.6118716950004	NA	1	0	0.55	1	41.8991855980057	41.9012858360002	"3"	54596.931629243	53971.751610553	1.5	0.1
0.01	1	0.00217266399704386	1	33	47.6118716950004	NA	1	0	0.55	1	42.1329676400055	42.1351403040026	"3"	54596.931629243	53971.751610553	1.5	0.1
0.01	1	0.00218708600004902	1	33	47.6118716950004	NA	1	0	0.55	1	42.3667238400012	42.3689109260013	"3"	54596.931629243	53971.751610553	1.5	0.1
0.01	1	0.00206139600049937	1	33	47.6118716950004	NA	1	0	0.55	1	42.6003869170017	42.6024483130022	"3"	54596.931629243	53971.751610553	1.5	0.1
0.01	1	0.00400962099956814	1	33	47.6118716950004	NA	1	0	0.55	1	42.8341248350043	42.8381344560039	"3"	54596.931629243	53971.751610553	1.5	0.1
0.01	1	0.122255417001725	1	33	47.6118716950004	NA	1	0	0.55	1	43.0678285850008	43.1900840020025	"3"	54596.931629243	53971.751610553	1.5	0.1
0.01	1	0.0199447470004088	1	33	47.6118716950004	NA	1	0	0.55	1	43.4184851700047	43.4384299170051	"3"	54596.931629243	53971.751610553	1.5	0.1
0.01	1	0.00988738599698991	1	33	47.6118716950004	NA	1	0	0.55	1	43.6689314700052	43.6788188560022	"3"	54596.931629243	53971.751610553	1.5	0.1
0.01	1	0.00253439200605499	1	33	47.6118716950004	NA	1	0	0.55	1	43.9026113319997	43.9051457240057	"3"	54596.931629243	53971.751610553	1.5	0.1
0.01	1	0.00204590299836127	1	33	47.6118716950004	NA	1	0	0.55	1	44.1363389130056	44.138384816004	"3"	54596.931629243	53971.751610553	1.5	0.1
0.01	1	0.00222696800483391	1	33	47.6118716950004	NA	1	0	0.55	1	44.3701095500001	44.3723365180049	"3"	54596.931629243	53971.751610553	1.5	0.1
0.01	1	0.00253625599725638	1	33	47.6118716950004	NA	1	0	0.55	1	44.6037606000027	44.606296856	"3"	54596.931629243	53971.751610553	1.5	0.1
0.01	1	0.00256160600110888	1	33	47.6118716950004	NA	1	0	0.55	1	44.8374482139989	44.84000982	"3"	54596.931629243	53971.751610553	1.5	0.1
0.01	1	0.0026380000053905	1	33	47.6118716950004	NA	1	0	0.55	1	45.0711411640004	45.0737791640058	"3"	54596.931629243	53971.751610553	1.5	0.1
0.01	1	0.00237904499954311	1	33	47.6118716950004	NA	1	0	0.55	1	45.3049119800053	45.3072910250048	"3"	54596.931629243	53971.751610553	1.5	0.1
0.01	1	0.00205854800151428	1	33	47.6118716950004	NA	1	0	0.55	1	45.5386922020043	45.5407507500058	"3"	54596.931629243	53971.751610553	1.5	0.1
0.01	1	0.00461226499464829	1	33	47.6118716950004	NA	1	0	0.55	1	45.7724434480042	45.7770557129988	"3"	54596.931629243	53971.751610553	1.5	0.1
0.01	1	0.0039717350009596	1	33	47.6118716950004	NA	1	0	0.55	1	46.0060892730035	46.0100610080044	"3"	54596.931629243	53971.751610553	1.5	0.1
0.01	1	0.00404244899982587	1	33	47.6118716950004	NA	1	0	0.55	1	46.2399456550047	46.2439881040045	"3"	54596.931629243	53971.751610553	1.5	0.1
0.01	1	0.00387749599758536	1	33	47.6118716950004	NA	1	0	0.55	1	46.473613730006	46.4774912260036	"3"	54596.931629243	53971.751610553	1.5	0.1
0.01	1	0.00393460499617504	1	33	47.6118716950004	NA	1	0	0.55	1	46.7073423430047	46.7112769480009	"3"	54596.931629243	53971.751610553	1.5	0.1
0.01	1	0.00453140700119548	1	33	47.6118716950004	NA	1	0	0.55	1	46.9411091180009	46.9456405250021	"3"	54596.931629243	53971.751610553	1.5	0.1
0.01	1	0.0793185209986405	1	33	47.6118716950004	NA	1	0	0.55	1	47.1747890350016	47.2541075560002	"3"	54596.931629243	53971.751610553	1.5	0.1
0.01	1	0.00210139800037723	1	33	47.6118716950004	NA	1	0	0.55	1	47.491978074002	47.4940794720023	"3"	54596.931629243	53971.751610553	1.5	0.1
0.01	1	0.337045926004066	1	105	NA	54.6639527470033	0	0.16	0.71	1	49.6623331529991	49.9993790790031	"4"	54596.931629243	53971.751610553	1.5	0.1
0.01	1	0.00375762499606935	1	105	NA	54.6639527470033	0	0.16	0.71	1	50.2298773150033	50.2336349399993	"4"	54596.931629243	53971.751610553	1.5	0.1
0.01	1	0.0024482890003128	1	105	NA	54.6639527470033	0	0.16	0.71	1	50.4635676280013	50.4660159170016	"4"	54596.931629243	53971.751610553	1.5	0.1
0.01	1	0.00423720799881266	1	105	NA	54.6639527470033	0	0.16	0.71	1	50.697410397006	50.7016476050048	"4"	54596.931629243	53971.751610553	1.5	0.1
0.01	1	0.0038563600028283	1	105	NA	54.6639527470033	0	0.16	0.71	1	50.9311510900006	50.9350074500035	"4"	54596.931629243	53971.751610553	1.5	0.1
0.01	1	0.0894102109959931	1	105	NA	54.6639527470033	0	0.16	0.71	1	51.1648531130049	51.2542633240009	"4"	54596.931629243	53971.751610553	1.5	0.1
0.01	1	0.00248634200397646	1	105	NA	54.6639527470033	0	0.16	0.71	1	51.482026206002	51.484512548006	"4"	54596.931629243	53971.751610553	1.5	0.1
0.01	1	0.00455664999753935	1	105	NA	54.6639527470033	0	0.16	0.71	1	51.715777383004	51.7203340330016	"4"	54596.931629243	53971.751610553	1.5	0.1
0.01	1	0.00206428099772893	1	105	NA	54.6639527470033	0	0.16	0.71	1	51.9495937460015	51.9516580269992	"4"	54596.931629243	53971.751610553	1.5	0.1
0.01	1	0.00386561900086235	1	105	NA	54.6639527470033	0	0.16	0.71	1	52.1830981730018	52.1869637920026	"4"	54596.931629243	53971.751610553	1.5	0.1
0.01	1	0.00461192999500781	1	105	NA	54.6639527470033	0	0.16	0.71	1	52.4169483330043	52.4215602629993	"4"	54596.931629243	53971.751610553	1.5	0.1
0.01	1	0.0043439649962238	1	105	NA	54.6639527470033	0	0.16	0.71	1	52.6505816600038	52.654925625	"4"	54596.931629243	53971.751610553	1.5	0.1
0.01	1	0.00382539199927123	1	105	NA	54.6639527470033	0	0.16	0.71	1	52.884343608006	52.8881690000053	"4"	54596.931629243	53971.751610553	1.5	0.1
0.01	1	0.00381514900072943	1	105	NA	54.6639527470033	0	0.16	0.71	1	53.1181316549992	53.1219468039999	"4"	54596.931629243	53971.751610553	1.5	0.1
0.01	1	0.00219679599831579	1	105	NA	54.6639527470033	0	0.16	0.71	1	53.3518325530022	53.3540293490005	"4"	54596.931629243	53971.751610553	1.5	0.1
0.01	1	0.0022041359989089	1	105	NA	54.6639527470033	0	0.16	0.71	1	53.5857335120018	53.5879376480007	"4"	54596.931629243	53971.751610553	1.5	0.1
0.01	1	0.843024961999618	2	105	NA	54.6639527470033	0	0.16	0.71	1	53.8193492150021	54.6623741770018	"4"	54596.931629243	53971.751610553	1.5	0.1
0.01	1	0.500146588994539	1	73	NA	59.9283265289996	0	0.11	0.82	1	56.7075421930058	57.2076887820003	"5"	54596.931629243	53971.751610553	1.5	0.1
0.01	1	0.00199591999989934	1	73	NA	59.9283265289996	0	0.11	0.82	1	57.4421141310013	57.4441100510012	"5"	54596.931629243	53971.751610553	1.5	0.1
0.01	1	0.00390350000088802	1	73	NA	59.9283265289996	0	0.11	0.82	1	57.6758357080034	57.6797392080043	"5"	54596.931629243	53971.751610553	1.5	0.1
0.01	1	0.0343530750033096	1	73	NA	59.9283265289996	0	0.11	0.82	1	57.9095494729991	57.9439025480024	"5"	54596.931629243	53971.751610553	1.5	0.1
0.01	1	0.0045782599991071	1	73	NA	59.9283265289996	0	0.11	0.82	1	58.1767761580049	58.181354418004	"5"	54596.931629243	53971.751610553	1.5	0.1
0.01	1	0.0684779520015582	1	73	NA	59.9283265289996	0	0.11	0.82	1	58.4103408750016	58.4788188270031	"5"	54596.931629243	53971.751610553	1.5	0.1
0.01	1	0.00457722500141244	1	73	NA	59.9283265289996	0	0.11	0.82	1	58.7109239030033	58.7155011280047	"5"	54596.931629243	53971.751610553	1.5	0.1
0.01	1	0.0299503589994856	1	73	NA	59.9283265289996	0	0.11	0.82	1	58.9444768950052	58.9744272540047	"5"	54596.931629243	53971.751610553	1.5	0.1
0.01	1	0.00200783300533658	1	73	NA	59.9283265289996	0	0.11	0.82	1	59.2117126960002	59.2137205290055	"5"	54596.931629243	53971.751610553	1.5	0.1
0.01	1	0.00220137799624354	1	73	NA	59.9283265289996	0	0.11	0.82	1	59.4454306110056	59.4476319890018	"5"	54596.931629243	53971.751610553	1.5	0.1
0.01	1	0.00226906000170857	1	73	NA	59.9283265289996	0	0.11	0.82	1	59.6791240759994	59.6813931360011	"5"	54596.931629243	53971.751610553	1.5	0.1
0.01	1	0.0138817600018228	NA	73	NA	59.9283265289996	0	0.11	0.82	1	59.9128728479991	59.9267546080009	"5"	54596.931629243	53971.751610553	1.5	0.1
0.01	1	1.32872684700124	1	45	NA	70.3212045950058	0	0.27	1.09	1	61.9829835780038	63.311710425005	"6"	54596.931629243	53971.751610553	1.5	0.1
0.01	1	0.00204876600037096	1	45	NA	70.3212045950058	0	0.27	1.09	1	63.5522447280018	63.5542934940022	"6"	54596.931629243	53971.751610553	1.5	0.1
0.01	1	0.00201594499958446	1	45	NA	70.3212045950058	0	0.27	1.09	1	63.7860505880017	63.7880665330013	"6"	54596.931629243	53971.751610553	1.5	0.1
0.01	1	0.0832245490018977	1	45	NA	70.3212045950058	0	0.27	1.09	1	64.0198421480018	64.1030666970037	"6"	54596.931629243	53971.751610553	1.5	0.1
0.01	1	0.0039956330001587	1	45	NA	70.3212045950058	0	0.27	1.09	1	64.3368876730019	64.3408833060021	"6"	54596.931629243	53971.751610553	1.5	0.1
0.01	1	0.00392359100078465	1	45	NA	70.3212045950058	0	0.27	1.09	1	64.5706059330041	64.5745295240049	"6"	54596.931629243	53971.751610553	1.5	0.1
0.01	1	0.0419027259995346	1	45	NA	70.3212045950058	0	0.27	1.09	1	64.8043855300057	64.8462882560052	"6"	54596.931629243	53971.751610553	1.5	0.1
0.01	1	0.0020326660014689	1	45	NA	70.3212045950058	0	0.27	1.09	1	65.0716057450045	65.073638411006	"6"	54596.931629243	53971.751610553	1.5	0.1
0.01	1	0.00200586099526845	1	45	NA	70.3212045950058	0	0.27	1.09	1	65.3052697950043	65.3072756559995	"6"	54596.931629243	53971.751610553	1.5	0.1
0.01	1	0.00460469000245212	1	45	NA	70.3212045950058	0	0.27	1.09	1	65.5389490430025	65.543553733005	"6"	54596.931629243	53971.751610553	1.5	0.1
0.01	1	0.00390275300014764	1	45	NA	70.3212045950058	0	0.27	1.09	1	65.7727802549998	65.776683008	"6"	54596.931629243	53971.751610553	1.5	0.1
0.01	1	0.00457755700335838	1	45	NA	70.3212045950058	0	0.27	1.09	1	66.0064380330004	66.0110155900038	"6"	54596.931629243	53971.751610553	1.5	0.1
0.01	1	0.111211429997638	1	45	NA	70.3212045950058	0	0.27	1.09	1	66.2402339730033	66.351445403001	"6"	54596.931629243	53971.751610553	1.5	0.1
0.01	1	0.00454213500051992	1	45	NA	70.3212045950058	0	0.27	1.09	1	66.5908084730036	66.5953506080041	"6"	54596.931629243	53971.751610553	1.5	0.1
0.01	1	0.00216735000140034	1	45	NA	70.3212045950058	0	0.27	1.09	1	66.8244957150018	66.8266630650032	"6"	54596.931629243	53971.751610553	1.5	0.1
0.01	1	0.00265119400137337	1	45	NA	70.3212045950058	0	0.27	1.09	1	67.0581985099998	67.0608497040012	"6"	54596.931629243	53971.751610553	1.5	0.1
0.01	1	0.002020715000981	1	45	NA	70.3212045950058	0	0.27	1.09	1	67.2919613760023	67.2939820910033	"6"	54596.931629243	53971.751610553	1.5	0.1
0.01	1	0.0105694919984671	1	45	NA	70.3212045950058	0	0.27	1.09	1	67.5256423440005	67.536211835999	"6"	54596.931629243	53971.751610553	1.5	0.1
0.01	1	0.0246193109996966	1	45	NA	70.3212045950058	0	0.27	1.09	1	67.7594526340035	67.7840719450032	"6"	54596.931629243	53971.751610553	1.5	0.1
0.01	1	0.0301519499989809	1	45	NA	70.3212045950058	0	0.27	1.09	1	68.009865595006	68.040017545005	"6"	54596.931629243	53971.751610553	1.5	0.1
0.01	1	0.00429307299782522	1	45	NA	70.3212045950058	0	0.27	1.09	1	68.2769438430041	68.2812369160019	"6"	54596.931629243	53971.751610553	1.5	0.1
0.01	1	0.00963771199894836	1	45	NA	70.3212045950058	0	0.27	1.09	1	68.5106294380021	68.520267150001	"6"	54596.931629243	53971.751610553	1.5	0.1
0.01	1	0.00212236399966059	1	45	NA	70.3212045950058	0	0.27	1.09	1	68.7443153120039	68.7464376760036	"6"	54596.931629243	53971.751610553	1.5	0.1
0.01	1	0.00336517200048547	1	45	NA	70.3212045950058	0	0.27	1.09	1	68.9780932460053	68.9814584180058	"6"	54596.931629243	53971.751610553	1.5	0.1
0.01	1	0.00298816800204804	1	45	NA	70.3212045950058	0	0.27	1.09	1	69.211783480001	69.2147716480031	"6"	54596.931629243	53971.751610553	1.5	0.1
0.01	1	0.00262964799912879	1	45	NA	70.3212045950058	0	0.27	1.09	1	69.4454885740051	69.4481182220043	"6"	54596.931629243	53971.751610553	1.5	0.1
0.01	1	0.00463862500328105	1	45	NA	70.3212045950058	0	0.27	1.09	1	69.6793267530011	69.6839653780044	"6"	54596.931629243	53971.751610553	1.5	0.1
0.01	1	0.406051794001542	2	45	NA	70.3212045950058	0	0.27	1.09	1	69.9130351650019	70.3190869590035	"6"	54596.931629243	53971.751610553	1.5	0.1
0.01	1	1.52469039100106	1	10	76.2935793780052	NA	1	0	1.09	1	72.350428730002	73.8751191210031	"7"	54596.931629243	53971.751610553	1.5	0.1
0.01	1	0.00374227000429528	1	10	76.2935793780052	NA	1	0	1.09	1	74.1033362779999	74.1070785480042	"7"	54596.931629243	53971.751610553	1.5	0.1
0.01	1	0.00387331000092672	1	10	76.2935793780052	NA	1	0	1.09	1	74.3371023080035	74.3409756180044	"7"	54596.931629243	53971.751610553	1.5	0.1
0.01	1	0.0639930879988242	1	10	76.2935793780052	NA	1	0	1.09	1	74.5708730250044	74.6348661130032	"7"	54596.931629243	53971.751610553	1.5	0.1
0.01	1	0.00200146899442188	1	10	76.2935793780052	NA	1	0	1.09	1	74.8713868980049	74.8733883669993	"7"	54596.931629243	53971.751610553	1.5	0.1
0.01	1	0.00388928500615293	1	10	76.2935793780052	NA	1	0	1.09	1	75.1050455549994	75.1089348400055	"7"	54596.931629243	53971.751610553	1.5	0.1
0.01	1	0.120238420000533	1	10	76.2935793780052	NA	1	0	1.09	1	75.3388647350002	75.4591031550008	"7"	54596.931629243	53971.751610553	1.5	0.1
0.01	1	0.017552771998453	1	10	76.2935793780052	NA	1	0	1.09	1	75.6894945880049	75.7070473600033	"7"	54596.931629243	53971.751610553	1.5	0.1
0.01	1	0.00199278500076616	1	10	76.2935793780052	NA	1	0	1.09	1	75.9398010170044	75.9417938020051	"7"	54596.931629243	53971.751610553	1.5	0.1
0.01	1	0.00208263099921169	1	10	76.2935793780052	NA	1	0	1.09	1	76.173503926002	76.1755865570012	"7"	54596.931629243	53971.751610553	1.5	0.1
0.01	1	0.948007876999327	1	37	NA	81.8528889410009	0	0.04	1.13	1	78.3438763630038	79.2918842400031	"8"	54596.931629243	53971.751610553	1.5	0.1
0.01	1	0.290207022997492	1	37	NA	81.8528889410009	0	0.04	1.13	1	79.5292399400059	79.8194469630034	"8"	54596.931629243	53971.751610553	1.5	0.1
0.01	1	0.315141060003953	1	37	NA	81.8528889410009	0	0.04	1.13	1	80.0466941830018	80.3618352430058	"8"	54596.931629243	53971.751610553	1.5	0.1
0.01	1	0.33380292700167	1	37	NA	81.8528889410009	0	0.04	1.13	1	80.5977224980015	80.9315254250032	"8"	54596.931629243	53971.751610553	1.5	0.1
0.01	1	0.685953945998335	2	37	NA	81.8528889410009	0	0.04	1.13	1	81.1653689900049	81.8513229360033	"8"	54596.931629243	53971.751610553	1.5	0.1
0.01	1	0.364498441005708	1	108	NA	94.4769239520028	0	0.39	1.52	1	83.9032715979993	84.267770039005	"9"	54596.931629243	53971.751610553	1.5	0.1
0.01	1	0.00209428000380285	1	108	NA	94.4769239520028	0	0.39	1.52	1	84.5042649070019	84.5063591870057	"9"	54596.931629243	53971.751610553	1.5	0.1
0.01	1	0.00205684200045653	1	108	NA	94.4769239520028	0	0.39	1.52	1	84.7380562120015	84.740113054002	"9"	54596.931629243	53971.751610553	1.5	0.1
0.01	1	0.00355998799932422	1	108	NA	94.4769239520028	0	0.39	1.52	1	84.9716595780046	84.9752195660039	"9"	54596.931629243	53971.751610553	1.5	0.1
0.01	1	0.0697801700007403	1	108	NA	94.4769239520028	0	0.39	1.52	1	85.2053805230025	85.2751606930033	"9"	54596.931629243	53971.751610553	1.5	0.1
0.01	1	0.00220239399641287	1	108	NA	94.4769239520028	0	0.39	1.52	1	85.5059101900042	85.5081125840006	"9"	54596.931629243	53971.751610553	1.5	0.1
0.01	1	0.0035880370051018	1	108	NA	94.4769239520028	0	0.39	1.52	1	85.7396660529994	85.7432540900045	"9"	54596.931629243	53971.751610553	1.5	0.1
0.01	1	0.0863253370043822	1	108	NA	94.4769239520028	0	0.39	1.52	1	85.97337367	86.0596990070044	"9"	54596.931629243	53971.751610553	1.5	0.1
0.01	1	0.00457243200071389	1	108	NA	94.4769239520028	0	0.39	1.52	1	86.2905390330052	86.2951114650059	"9"	54596.931629243	53971.751610553	1.5	0.1
0.01	1	0.00463565700192703	1	108	NA	94.4769239520028	0	0.39	1.52	1	86.5242147280005	86.5288503850024	"9"	54596.931629243	53971.751610553	1.5	0.1
0.01	1	0.00373832899640547	1	108	NA	94.4769239520028	0	0.39	1.52	1	86.7580027150034	86.7617410439998	"9"	54596.931629243	53971.751610553	1.5	0.1
0.01	1	0.0836301909948816	1	108	NA	94.4769239520028	0	0.39	1.52	1	86.9916664340053	87.0752966250002	"9"	54596.931629243	53971.751610553	1.5	0.1
0.01	1	0.00221159899956547	1	108	NA	94.4769239520028	0	0.39	1.52	1	87.3088937460052	87.3111053450048	"9"	54596.931629243	53971.751610553	1.5	0.1
0.01	1	0.00419471499481006	1	108	NA	94.4769239520028	0	0.39	1.52	1	87.5427129880045	87.5469077029993	"9"	54596.931629243	53971.751610553	1.5	0.1
0.01	1	0.00455636699916795	1	108	NA	94.4769239520028	0	0.39	1.52	1	87.7763775030035	87.7809338700026	"9"	54596.931629243	53971.751610553	1.5	0.1
0.01	1	0.104717888003506	1	108	NA	94.4769239520028	0	0.39	1.52	1	88.0100902830018	88.1148081710053	"9"	54596.931629243	53971.751610553	1.5	0.1
0.01	1	0.00202549599634949	1	108	NA	94.4769239520028	0	0.39	1.52	1	88.3440782270045	88.3461037230009	"9"	54596.931629243	53971.751610553	1.5	0.1
0.01	1	0.00199460099975113	1	108	NA	94.4769239520028	0	0.39	1.52	1	88.5777288400059	88.5797234410056	"9"	54596.931629243	53971.751610553	1.5	0.1
0.01	1	0.00205143399944063	1	108	NA	94.4769239520028	0	0.39	1.52	1	88.8113900060052	88.8134414400047	"9"	54596.931629243	53971.751610553	1.5	0.1
0.01	1	0.0026528500020504	1	108	NA	94.4769239520028	0	0.39	1.52	1	89.045128208003	89.0477810580051	"9"	54596.931629243	53971.751610553	1.5	0.1
0.01	1	0.00383434999821475	1	108	NA	94.4769239520028	0	0.39	1.52	1	89.278981798001	89.2828161479993	"9"	54596.931629243	53971.751610553	1.5	0.1
0.01	1	0.00466294500074582	1	108	NA	94.4769239520028	0	0.39	1.52	1	89.5125910429997	89.5172539880004	"9"	54596.931629243	53971.751610553	1.5	0.1
0.01	1	0.00421499600633979	1	108	NA	94.4769239520028	0	0.39	1.52	1	89.7463866969993	89.7506016930056	"9"	54596.931629243	53971.751610553	1.5	0.1
0.01	1	0.1274336389979	1	108	NA	94.4769239520028	0	0.39	1.52	1	89.9800766550034	90.1075102940013	"9"	54596.931629243	53971.751610553	1.5	0.1
0.01	1	0.00237006999668665	1	108	NA	94.4769239520028	0	0.39	1.52	1	90.3473218900035	90.3496919600002	"9"	54596.931629243	53971.751610553	1.5	0.1
0.01	1	0.00208496599952923	1	108	NA	94.4769239520028	0	0.39	1.52	1	90.581088458006	90.5831734240055	"9"	54596.931629243	53971.751610553	1.5	0.1
0.01	1	0.00266722200467484	1	108	NA	94.4769239520028	0	0.39	1.52	1	90.8148739899989	90.8175412120036	"9"	54596.931629243	53971.751610553	1.5	0.1
0.01	1	0.0039434380014427	1	108	NA	94.4769239520028	0	0.39	1.52	1	91.0485104180043	91.0524538560057	"9"	54596.931629243	53971.751610553	1.5	0.1
0.01	1	0.00952159299777122	1	108	NA	94.4769239520028	0	0.39	1.52	1	91.282266263006	91.2917878560038	"9"	54596.931629243	53971.751610553	1.5	0.1
0.01	1	0.0232482639985392	1	108	NA	94.4769239520028	0	0.39	1.52	1	91.5160075550011	91.5392558189997	"9"	54596.931629243	53971.751610553	1.5	0.1
0.01	1	0.0135924799978966	1	108	NA	94.4769239520028	0	0.39	1.52	1	91.7663460600015	91.7799385399994	"9"	54596.931629243	53971.751610553	1.5	0.1
0.01	1	0.0111022350029089	1	108	NA	94.4769239520028	0	0.39	1.52	1	92.0169662449989	92.0280684800018	"9"	54596.931629243	53971.751610553	1.5	0.1
0.01	1	0.0154126499983249	1	108	NA	94.4769239520028	0	0.39	1.52	1	92.2505793300006	92.2659919799989	"9"	54596.931629243	53971.751610553	1.5	0.1
0.01	1	0.00401356200018199	1	108	NA	94.4769239520028	0	0.39	1.52	1	92.5009911180023	92.5050046800025	"9"	54596.931629243	53971.751610553	1.5	0.1
0.01	1	0.00463465700158849	1	108	NA	94.4769239520028	0	0.39	1.52	1	92.7346597330034	92.7392943900049	"9"	54596.931629243	53971.751610553	1.5	0.1
0.01	1	0.0037029109953437	1	108	NA	94.4769239520028	0	0.39	1.52	1	92.968433783004	92.9721366939993	"9"	54596.931629243	53971.751610553	1.5	0.1
0.01	1	0.00451170599990292	1	108	NA	94.4769239520028	0	0.39	1.52	1	93.2021748140032	93.2066865200031	"9"	54596.931629243	53971.751610553	1.5	0.1
0.01	1	0.00390461499773664	1	108	NA	94.4769239520028	0	0.39	1.52	1	93.4358327650043	93.439737380002	"9"	54596.931629243	53971.751610553	1.5	0.1
0.01	1	0.00461487200664124	1	108	NA	94.4769239520028	0	0.39	1.52	1	93.6697483829994	93.674363255006	"9"	54596.931629243	53971.751610553	1.5	0.1
0.01	1	0.572021259002213	2	108	NA	94.4769239520028	0	0.39	1.52	1	93.9033402540008	94.475361513003	"9"	54596.931629243	53971.751610553	1.5	0.1
0.01	1	1.3502434280017	1	18	102.821147003	NA	1	0	1.52	1	96.5243741950035	97.8746176230052	"10"	54596.931629243	53971.751610553	1.5	0.1
0.01	1	0.00248191699938616	1	18	102.821147003	NA	1	0	1.52	1	98.1104461300056	98.112928047005	"10"	54596.931629243	53971.751610553	1.5	0.1
0.01	1	0.00390906199754681	1	18	102.821147003	NA	1	0	1.52	1	98.344198538005	98.3481076000025	"10"	54596.931629243	53971.751610553	1.5	0.1
0.01	1	0.130067568999948	1	18	102.821147003	NA	1	0	1.52	1	98.5778630450004	98.7079306140004	"10"	54596.931629243	53971.751610553	1.5	0.1
0.01	1	0.121815929996956	1	18	102.821147003	NA	1	0	1.52	1	98.9452338480041	99.0670497780011	"10"	54596.931629243	53971.751610553	1.5	0.1
0.01	1	0.00203200599935371	1	18	102.821147003	NA	1	0	1.52	1	99.2957687369999	99.2978007429992	"10"	54596.931629243	53971.751610553	1.5	0.1
0.01	1	0.104605644002731	1	18	102.821147003	NA	1	0	1.52	1	99.5294162499995	99.6340218940022	"10"	54596.931629243	53971.751610553	1.5	0.1
0.01	1	0.00335838900355157	1	18	102.821147003	NA	1	0	1.52	1	99.8633482930018	99.8667066820053	"10"	54596.931629243	53971.751610553	1.5	0.1
0.01	1	0.114058914005	1	18	102.821147003	NA	1	0	1.52	1	100.097105023	100.211163937005	"10"	54596.931629243	53971.751610553	1.5	0.1
0.01	1	0.163568677002331	1	18	102.821147003	NA	1	0	1.52	1	100.447709323002	100.611278000004	"10"	54596.931629243	53971.751610553	1.5	0.1
0.01	1	0.00235649399837712	1	18	102.821147003	NA	1	0	1.52	1	100.848334726004	100.850691220003	"10"	54596.931629243	53971.751610553	1.5	0.1
0.01	1	0.135672375996364	1	18	102.821147003	NA	1	0	1.52	1	101.082208003005	101.217880379001	"10"	54596.931629243	53971.751610553	1.5	0.1
0.01	1	0.00395310699968832	1	18	102.821147003	NA	1	0	1.52	1	101.449360953004	101.453314060003	"10"	54596.931629243	53971.751610553	1.5	0.1
0.01	1	0.00377075400319882	1	18	102.821147003	NA	1	0	1.52	1	101.683152297999	101.686923052002	"10"	54596.931629243	53971.751610553	1.5	0.1
0.01	1	0.0947504399955506	1	18	102.821147003	NA	1	0	1.52	1	101.916837458004	102.011587898	"10"	54596.931629243	53971.751610553	1.5	0.1
0.01	1	0.00207704799686326	1	18	102.821147003	NA	1	0	1.52	1	102.234081095005	102.236158143001	"10"	54596.931629243	53971.751610553	1.5	0.1
0.01	1	0.00229435700020986	1	18	102.821147003	NA	1	0	1.52	1	102.467762082	102.470056439	"10"	54596.931629243	53971.751610553	1.5	0.1
0.01	1	0.00222803500219015	1	18	102.821147003	NA	1	0	1.52	1	102.701373709002	102.703601744004	"10"	54596.931629243	53971.751610553	1.5	0.1
0.01	1	2.3311562960007	1	2	107.562746168005	NA	1	0	1.52	1	104.871837516999	107.202993813	"11"	54596.931629243	53971.751610553	1.5	0.1
0.01	1	0.00204821900115348	1	2	107.562746168005	NA	1	0	1.52	1	107.442793073002	107.444841292003	"11"	54596.931629243	53971.751610553	1.5	0.1
0.01	1	1.14141078199464	1	107	NA	116.972741971003	0	0.19	1.71	1	109.613084943005	110.754495724999	"12"	54596.931629243	53971.751610553	1.5	0.1
0.01	1	0.00401929099461995	1	107	NA	116.972741971003	0	0.19	1.71	1	110.982048025005	110.986067316	"12"	54596.931629243	53971.751610553	1.5	0.1
0.01	1	0.130613784000161	1	107	NA	116.972741971003	0	0.19	1.71	1	111.215805733002	111.346419517002	"12"	54596.931629243	53971.751610553	1.5	0.1
0.01	1	0.155605179999839	1	107	NA	116.972741971003	0	0.19	1.71	1	111.583081502002	111.738686682002	"12"	54596.931629243	53971.751610553	1.5	0.1
0.01	1	0.00217042800068157	1	107	NA	116.972741971003	0	0.19	1.71	1	111.967171777003	111.969342205004	"12"	54596.931629243	53971.751610553	1.5	0.1
0.01	1	0.105423154003802	1	107	NA	116.972741971003	0	0.19	1.71	1	112.200826284999	112.306249439003	"12"	54596.931629243	53971.751610553	1.5	0.1
0.01	1	0.00219987400487298	1	107	NA	116.972741971003	0	0.19	1.71	1	112.534708384999	112.536908259004	"12"	54596.931629243	53971.751610553	1.5	0.1
0.01	1	0.00397553500079084	1	107	NA	116.972741971003	0	0.19	1.71	1	112.768467393005	112.772442928006	"12"	54596.931629243	53971.751610553	1.5	0.1
0.01	1	0.135911051998846	1	107	NA	116.972741971003	0	0.19	1.71	1	113.002143818005	113.138054870004	"12"	54596.931629243	53971.751610553	1.5	0.1
0.01	1	0.00221813900134293	1	107	NA	116.972741971003	0	0.19	1.71	1	113.369380652999	113.371598792	"12"	54596.931629243	53971.751610553	1.5	0.1
0.01	1	0.134833996999077	1	107	NA	116.972741971003	0	0.19	1.71	1	113.603132348006	113.737966345005	"12"	54596.931629243	53971.751610553	1.5	0.1
0.01	1	0.00200482900254428	1	107	NA	116.972741971003	0	0.19	1.71	1	113.970442215003	113.972447044005	"12"	54596.931629243	53971.751610553	1.5	0.1
0.01	1	0.00206684399745427	1	107	NA	116.972741971003	0	0.19	1.71	1	114.204146267002	114.206213111	"12"	54596.931629243	53971.751610553	1.5	0.1
0.01	1	0.00377773299987894	1	107	NA	116.972741971003	0	0.19	1.71	1	114.437974135006	114.441751868006	"12"	54596.931629243	53971.751610553	1.5	0.1
0.01	1	0.123099661002925	1	107	NA	116.972741971003	0	0.19	1.71	1	114.671685469999	114.794785131002	"12"	54596.931629243	53971.751610553	1.5	0.1
0.01	1	0.00221914800204104	1	107	NA	116.972741971003	0	0.19	1.71	1	115.022225410001	115.024444558003	"12"	54596.931629243	53971.751610553	1.5	0.1
0.01	1	0.00455329500255175	1	107	NA	116.972741971003	0	0.19	1.71	1	115.256002383001	115.260555678004	"12"	54596.931629243	53971.751610553	1.5	0.1
0.01	1	0.129404141996929	1	107	NA	116.972741971003	0	0.19	1.71	1	115.489585350006	115.618989492003	"12"	54596.931629243	53971.751610553	1.5	0.1
0.01	1	0.00385683200147469	1	107	NA	116.972741971003	0	0.19	1.71	1	115.856894458004	115.860751290005	"12"	54596.931629243	53971.751610553	1.5	0.1
0.01	1	0.880518680001842	2	107	NA	116.972741971003	0	0.19	1.71	1	116.090669338002	116.971188018004	"12"	54596.931629243	53971.751610553	1.5	0.1
0.01	1	2.20277323199844	1	119	NA	128.136213912003	0	0.26	1.97	1	119.012269736006	121.215042968004	"13"	54596.931629243	53971.751610553	1.5	0.1
0.01	1	0.00209320199792273	1	119	NA	128.136213912003	0	0.26	1.97	1	121.449662650004	121.451755852002	"13"	54596.931629243	53971.751610553	1.5	0.1
0.01	1	0.00207075700018322	1	119	NA	128.136213912003	0	0.26	1.97	1	121.683412655002	121.685483412002	"13"	54596.931629243	53971.751610553	1.5	0.1
0.01	1	0.00457191000168677	1	119	NA	128.136213912003	0	0.26	1.97	1	121.917194248002	121.921766158004	"13"	54596.931629243	53971.751610553	1.5	0.1
0.01	1	0.00394331300049089	1	119	NA	128.136213912003	0	0.26	1.97	1	122.150752473004	122.154695786005	"13"	54596.931629243	53971.751610553	1.5	0.1
0.01	1	0.0292638679966331	1	119	NA	128.136213912003	0	0.26	1.97	1	122.384523418004	122.413787286001	"13"	54596.931629243	53971.751610553	1.5	0.1
0.01	1	0.0040087199959089	1	119	NA	128.136213912003	0	0.26	1.97	1	122.635101418004	122.639110138	"13"	54596.931629243	53971.751610553	1.5	0.1
0.01	1	0.00465181499748724	1	119	NA	128.136213912003	0	0.26	1.97	1	122.868859573005	122.873511388003	"13"	54596.931629243	53971.751610553	1.5	0.1
0.01	1	0.0883702909995918	1	119	NA	128.136213912003	0	0.26	1.97	1	123.102455385	123.190825676	"13"	54596.931629243	53971.751610553	1.5	0.1
0.01	1	0.0263315070042154	1	119	NA	128.136213912003	0	0.26	1.97	1	123.419738274999	123.446069782003	"13"	54596.931629243	53971.751610553	1.5	0.1
0.01	1	0.003772365002078	1	119	NA	128.136213912003	0	0.26	1.97	1	123.670102374999	123.673874740001	"13"	54596.931629243	53971.751610553	1.5	0.1
0.01	1	0.00396923699736362	1	119	NA	128.136213912003	0	0.26	1.97	1	123.903858105004	123.907827342002	"13"	54596.931629243	53971.751610553	1.5	0.1
0.01	1	0.00391300000046613	1	119	NA	128.136213912003	0	0.26	1.97	1	124.137567718004	124.141480718004	"13"	54596.931629243	53971.751610553	1.5	0.1
0.01	1	0.0913652019953588	1	119	NA	128.136213912003	0	0.26	1.97	1	124.371227528005	124.46259273	"13"	54596.931629243	53971.751610553	1.5	0.1
0.01	1	0.00346806800371269	1	119	NA	128.136213912003	0	0.26	1.97	1	124.688474128001	124.691942196005	"13"	54596.931629243	53971.751610553	1.5	0.1
0.01	1	0.0116165219951654	1	119	NA	128.136213912003	0	0.26	1.97	1	124.922174973006	124.933791495001	"13"	54596.931629243	53971.751610553	1.5	0.1
0.01	1	0.00463411499367794	1	119	NA	128.136213912003	0	0.26	1.97	1	125.155934033006	125.160568148	"13"	54596.931629243	53971.751610553	1.5	0.1
0.01	1	0.00204762200155528	1	119	NA	128.136213912003	0	0.26	1.97	1	125.389742974003	125.391790596004	"13"	54596.931629243	53971.751610553	1.5	0.1
0.01	1	0.00228712799435016	1	119	NA	128.136213912003	0	0.26	1.97	1	125.623333243006	125.625620371	"13"	54596.931629243	53971.751610553	1.5	0.1
0.01	1	0.0209810329979518	1	119	NA	128.136213912003	0	0.26	1.97	1	125.857054145003	125.878035178001	"13"	54596.931629243	53971.751610553	1.5	0.1
0.01	1	0.00199266699928558	1	119	NA	128.136213912003	0	0.26	1.97	1	126.107461625004	126.109454292004	"13"	54596.931629243	53971.751610553	1.5	0.1
0.01	1	0.00224576600157889	1	119	NA	128.136213912003	0	0.26	1.97	1	126.341288900003	126.343534666004	"13"	54596.931629243	53971.751610553	1.5	0.1
0.01	1	0.00399336400005268	1	119	NA	128.136213912003	0	0.26	1.97	1	126.574978558005	126.578971922005	"13"	54596.931629243	53971.751610553	1.5	0.1
0.01	1	0.00368386099580675	1	119	NA	128.136213912003	0	0.26	1.97	1	126.808735205006	126.812419066002	"13"	54596.931629243	53971.751610553	1.5	0.1
0.01	1	0.00395068900252227	1	119	NA	128.136213912003	0	0.26	1.97	1	127.042430435002	127.046381124004	"13"	54596.931629243	53971.751610553	1.5	0.1
0.01	1	0.00386111799889477	1	119	NA	128.136213912003	0	0.26	1.97	1	127.276168098004	127.280029216003	"13"	54596.931629243	53971.751610553	1.5	0.1
0.01	1	0.624755711003672	2	119	NA	128.136213912003	0	0.26	1.97	1	127.509903603001	128.134659314004	"13"	54596.931629243	53971.751610553	1.5	0.1
0.01	1	0.9926223950024	1	71	NA	139.280310546004	0	0.32	2.29	1	130.181075102999	131.173697498001	"14"	54596.931629243	53971.751610553	1.5	0.1
0.01	1	0.00206773500394775	1	71	NA	139.280310546004	0	0.32	2.29	1	131.399724682	131.401792417004	"14"	54596.931629243	53971.751610553	1.5	0.1
0.01	1	0.00399729300261242	1	71	NA	139.280310546004	0	0.32	2.29	1	131.633552075	131.637549368003	"14"	54596.931629243	53971.751610553	1.5	0.1
0.01	1	0.00433216700184857	1	71	NA	139.280310546004	0	0.32	2.29	1	131.867221261004	131.871553428005	"14"	54596.931629243	53971.751610553	1.5	0.1
0.01	1	0.00401553999836324	1	71	NA	139.280310546004	0	0.32	2.29	1	132.100874168005	132.104889708004	"14"	54596.931629243	53971.751610553	1.5	0.1
0.01	1	0.00207645900081843	1	71	NA	139.280310546004	0	0.32	2.29	1	132.334637323002	132.336713782002	"14"	54596.931629243	53971.751610553	1.5	0.1
0.01	1	0.00457502000062959	1	71	NA	139.280310546004	0	0.32	2.29	1	132.568433357999	132.573008378	"14"	54596.931629243	53971.751610553	1.5	0.1
0.01	1	0.00383021800371353	1	71	NA	139.280310546004	0	0.32	2.29	1	132.802138428	132.805968646004	"14"	54596.931629243	53971.751610553	1.5	0.1
0.01	1	0.00215105800452875	1	71	NA	139.280310546004	0	0.32	2.29	1	133.035841808	133.037992866004	"14"	54596.931629243	53971.751610553	1.5	0.1
0.01	1	0.00216295500285923	1	71	NA	139.280310546004	0	0.32	2.29	1	133.269501862	133.271664817003	"14"	54596.931629243	53971.751610553	1.5	0.1
0.01	1	0.00391271500120638	1	71	NA	139.280310546004	0	0.32	2.29	1	133.503224615	133.507137330002	"14"	54596.931629243	53971.751610553	1.5	0.1
0.01	1	0.141935617000854	1	71	NA	139.280310546004	0	0.32	2.29	1	133.737011308003	133.878946925004	"14"	54596.931629243	53971.751610553	1.5	0.1
0.01	1	0.00212332500086632	1	71	NA	139.280310546004	0	0.32	2.29	1	134.104282997003	134.106406322004	"14"	54596.931629243	53971.751610553	1.5	0.1
0.01	1	0.00316997600020841	1	71	NA	139.280310546004	0	0.32	2.29	1	134.338037084002	134.341207060002	"14"	54596.931629243	53971.751610553	1.5	0.1
0.01	1	0.00389456500124652	1	71	NA	139.280310546004	0	0.32	2.29	1	134.571772153002	134.575666718003	"14"	54596.931629243	53971.751610553	1.5	0.1
0.01	1	0.00369435500033433	1	71	NA	139.280310546004	0	0.32	2.29	1	134.805542722999	134.809237078	"14"	54596.931629243	53971.751610553	1.5	0.1
0.01	1	0.00396894299774431	1	71	NA	139.280310546004	0	0.32	2.29	1	135.039249083005	135.043218026003	"14"	54596.931629243	53971.751610553	1.5	0.1
0.01	1	0.00390577000507619	1	71	NA	139.280310546004	0	0.32	2.29	1	135.272843888	135.276749658005	"14"	54596.931629243	53971.751610553	1.5	0.1
0.01	1	0.00375304899353068	1	71	NA	139.280310546004	0	0.32	2.29	1	135.506627933006	135.510380981999	"14"	54596.931629243	53971.751610553	1.5	0.1
0.01	1	0.00381340199965052	1	71	NA	139.280310546004	0	0.32	2.29	1	135.740319570003	135.744132972002	"14"	54596.931629243	53971.751610553	1.5	0.1
0.01	1	0.00386673799948767	1	71	NA	139.280310546004	0	0.32	2.29	1	135.974091490003	135.977958228003	"14"	54596.931629243	53971.751610553	1.5	0.1
0.01	1	0.00393112200254109	1	71	NA	139.280310546004	0	0.32	2.29	1	136.207861089999	136.211792212001	"14"	54596.931629243	53971.751610553	1.5	0.1
0.01	1	0.00384025300445501	1	71	NA	139.280310546004	0	0.32	2.29	1	136.441477824999	136.445318078004	"14"	54596.931629243	53971.751610553	1.5	0.1
0.01	1	0.00219843500235584	1	71	NA	139.280310546004	0	0.32	2.29	1	136.675238367003	136.677436802005	"14"	54596.931629243	53971.751610553	1.5	0.1
0.01	1	0.00382762999652186	1	71	NA	139.280310546004	0	0.32	2.29	1	136.909046320005	136.912873950001	"14"	54596.931629243	53971.751610553	1.5	0.1
0.01	1	0.00369887400302105	1	71	NA	139.280310546004	0	0.32	2.29	1	137.142702249999	137.146401124002	"14"	54596.931629243	53971.751610553	1.5	0.1
0.01	1	0.00386471700039692	1	71	NA	139.280310546004	0	0.32	2.29	1	137.376477025005	137.380341742006	"14"	54596.931629243	53971.751610553	1.5	0.1
0.01	1	0.00459340200177394	1	71	NA	139.280310546004	0	0.32	2.29	1	137.610241176	137.614834578002	"14"	54596.931629243	53971.751610553	1.5	0.1
0.01	1	0.00460528500116197	1	71	NA	139.280310546004	0	0.32	2.29	1	137.843996278003	137.848601563004	"14"	54596.931629243	53971.751610553	1.5	0.1
0.01	1	0.00467935999768088	1	71	NA	139.280310546004	0	0.32	2.29	1	138.077594328002	138.082273688	"14"	54596.931629243	53971.751610553	1.5	0.1
0.01	1	0.00438667999696918	1	71	NA	139.280310546004	0	0.32	2.29	1	138.311379163002	138.315765842999	"14"	54596.931629243	53971.751610553	1.5	0.1
0.01	1	0.00461202199949184	1	71	NA	139.280310546004	0	0.32	2.29	1	138.545198043001	138.549810065	"14"	54596.931629243	53971.751610553	1.5	0.1
0.01	1	0.499929072000668	2	71	NA	139.280310546004	0	0.32	2.29	1	138.778789085001	139.278718157002	"14"	54596.931629243	53971.751610553	1.5	0.1
0.01	1	2.91743180299818	1	32	153.072625738001	NA	1	0	2.29	1	141.333183103001	144.250614905999	"15"	54596.931629243	53971.751610553	1.5	0.1
0.01	1	0.0349793010027497	1	32	153.072625738001	NA	1	0	2.29	1	144.488458533	144.523437834003	"15"	54596.931629243	53971.751610553	1.5	0.1
0.01	1	0.0397214710028493	1	32	153.072625738001	NA	1	0	2.29	1	144.755579987999	144.795301459002	"15"	54596.931629243	53971.751610553	1.5	0.1
0.01	1	0.0453979529993376	1	32	153.072625738001	NA	1	0	2.29	1	145.022581230005	145.067979183004	"15"	54596.931629243	53971.751610553	1.5	0.1
0.01	1	0.0167961249971995	1	32	153.072625738001	NA	1	0	2.29	1	145.306473970006	145.323270095003	"15"	54596.931629243	53971.751610553	1.5	0.1
0.01	1	0.511179981003806	1	32	153.072625738001	NA	1	0	2.29	1	145.556936822999	146.068116804003	"15"	54596.931629243	53971.751610553	1.5	0.1
0.01	1	0.00386024999897927	1	32	153.072625738001	NA	1	0	2.29	1	146.291516488003	146.295376738002	"15"	54596.931629243	53971.751610553	1.5	0.1
0.01	1	0.00248985199868912	1	32	153.072625738001	NA	1	0	2.29	1	146.525091526004	146.527581378003	"15"	54596.931629243	53971.751610553	1.5	0.1
0.01	1	0.0836899579953752	1	32	153.072625738001	NA	1	0	2.29	1	146.758998248006	146.842688206001	"15"	54596.931629243	53971.751610553	1.5	0.1
0.01	1	0.00362431300163735	1	32	153.072625738001	NA	1	0	2.29	1	147.076068273003	147.079692586005	"15"	54596.931629243	53971.751610553	1.5	0.1
0.01	1	0.0535537789983209	1	32	153.072625738001	NA	1	0	2.29	1	147.309870003002	147.363423782001	"15"	54596.931629243	53971.751610553	1.5	0.1
0.01	1	0.00379616799909854	1	32	153.072625738001	NA	1	0	2.29	1	147.593757008006	147.597553176005	"15"	54596.931629243	53971.751610553	1.5	0.1
0.01	1	0.079746667004656	1	32	153.072625738001	NA	1	0	2.29	1	147.827386607001	147.907133274006	"15"	54596.931629243	53971.751610553	1.5	0.1
0.01	1	0.00393586100108223	1	32	153.072625738001	NA	1	0	2.29	1	148.144651945004	148.148587806005	"15"	54596.931629243	53971.751610553	1.5	0.1
0.01	1	0.088630762998946	1	32	153.072625738001	NA	1	0	2.29	1	148.378279312004	148.466910075003	"15"	54596.931629243	53971.751610553	1.5	0.1
0.01	1	0.00401383499411168	1	32	153.072625738001	NA	1	0	2.29	1	148.695520903006	148.699534738	"15"	54596.931629243	53971.751610553	1.5	0.1
0.01	1	0.0891092289966764	1	32	153.072625738001	NA	1	0	2.29	1	148.929216733006	149.018325962003	"15"	54596.931629243	53971.751610553	1.5	0.1
0.01	1	0.00198699699831195	1	32	153.072625738001	NA	1	0	2.29	1	149.246473628002	149.248460625	"15"	54596.931629243	53971.751610553	1.5	0.1
0.01	1	0.00466504499490838	1	32	153.072625738001	NA	1	0	2.29	1	149.480154583005	149.484819628	"15"	54596.931629243	53971.751610553	1.5	0.1
0.01	1	0.0973737819949747	1	32	153.072625738001	NA	1	0	2.29	1	149.713928123005	149.811301905	"15"	54596.931629243	53971.751610553	1.5	0.1
0.01	1	0.00209655000071507	1	32	153.072625738001	NA	1	0	2.29	1	150.047748914003	150.049845464004	"15"	54596.931629243	53971.751610553	1.5	0.1
0.01	1	0.137478794997151	1	32	153.072625738001	NA	1	0	2.29	1	150.281460828002	150.418939622999	"15"	54596.931629243	53971.751610553	1.5	0.1
0.01	1	0.00206909800181165	1	32	153.072625738001	NA	1	0	2.29	1	150.648825277	150.650894375001	"15"	54596.931629243	53971.751610553	1.5	0.1
0.01	1	0.00212869999813847	1	32	153.072625738001	NA	1	0	2.29	1	150.882553416006	150.884682116004	"15"	54596.931629243	53971.751610553	1.5	0.1
0.01	1	0.00389463100145804	1	32	153.072625738001	NA	1	0	2.29	1	151.116184304999	151.120078936001	"15"	54596.931629243	53971.751610553	1.5	0.1
0.01	1	0.00452809299895307	1	32	153.072625738001	NA	1	0	2.29	1	151.350083735	151.354611827999	"15"	54596.931629243	53971.751610553	1.5	0.1
0.01	1	0.00383791000058409	1	32	153.072625738001	NA	1	0	2.29	1	151.583771388003	151.587609298003	"15"	54596.931629243	53971.751610553	1.5	0.1
0.01	1	0.0985844030001317	1	32	153.072625738001	NA	1	0	2.29	1	151.817469983005	151.916054386005	"15"	54596.931629243	53971.751610553	1.5	0.1
0.01	1	0.00219292099791346	1	32	153.072625738001	NA	1	0	2.29	1	152.151220749001	152.153413669999	"15"	54596.931629243	53971.751610553	1.5	0.1
0.01	1	0.00206534899916733	1	32	153.072625738001	NA	1	0	2.29	1	152.385104187	152.387169535999	"15"	54596.931629243	53971.751610553	1.5	0.1
0.01	1	0.0958959799972945	1	32	153.072625738001	NA	1	0	2.29	1	152.618840268005	152.714736248003	"15"	54596.931629243	53971.751610553	1.5	0.1
0.01	1	0.00203152500034776	1	32	153.072625738001	NA	1	0	2.29	1	152.952649543004	152.954681068004	"15"	54596.931629243	53971.751610553	1.5	0.1
0.01	1	1.15154986300331	1	7	NA	158.045654982001	0	0.05	2.34	1	155.122980888002	156.274530751005	"16"	54596.931629243	53971.751610553	1.5	0.1
0.01	1	0.00202927300415467	1	7	NA	158.045654982001	0	0.05	2.34	1	156.508731934002	156.510761207006	"16"	54596.931629243	53971.751610553	1.5	0.1
0.01	1	0.00226205799845047	1	7	NA	158.045654982001	0	0.05	2.34	1	156.742305767002	156.744567825001	"16"	54596.931629243	53971.751610553	1.5	0.1
0.01	1	0.130489107999892	1	7	NA	158.045654982001	0	0.05	2.34	1	156.976187698005	157.106676806005	"16"	54596.931629243	53971.751610553	1.5	0.1
0.01	1	0.00458824999805074	1	7	NA	158.045654982001	0	0.05	2.34	1	157.343398803001	157.347987052999	"16"	54596.931629243	53971.751610553	1.5	0.1
0.01	1	0.466959890996804	2	7	NA	158.045654982001	0	0.05	2.34	1	157.577081763004	158.044041654	"16"	54596.931629243	53971.751610553	1.5	0.1
0.01	1	0.584585854005127	1	49	NA	174.341564892005	0	0.38	2.72	1	160.098036162999	160.682622017004	"17"	54596.931629243	53971.751610553	1.5	0.1
0.01	1	0.0867161589994794	1	49	NA	174.341564892005	0	0.38	2.72	1	160.916106183002	161.002822342001	"17"	54596.931629243	53971.751610553	1.5	0.1
0.01	1	0.027044909002143	1	49	NA	174.341564892005	0	0.38	2.72	1	161.233189803002	161.260234712005	"17"	54596.931629243	53971.751610553	1.5	0.1
0.01	1	0.0164403340022545	1	49	NA	174.341564892005	0	0.38	2.72	1	161.483580393004	161.500020727006	"17"	54596.931629243	53971.751610553	1.5	0.1
0.01	1	0.924877083001775	1	49	NA	174.341564892005	0	0.38	2.72	1	161.734041083	162.658918166002	"17"	54596.931629243	53971.751610553	1.5	0.1
0.01	1	0.0536647170010838	1	49	NA	174.341564892005	0	0.38	2.72	1	162.886055888004	162.939720605005	"17"	54596.931629243	53971.751610553	1.5	0.1
0.01	1	0.186410053000145	1	49	NA	174.341564892005	0	0.38	2.72	1	163.169880010006	163.356290063006	"17"	54596.931629243	53971.751610553	1.5	0.1
0.01	1	0.0234625669982051	1	49	NA	174.341564892005	0	0.38	2.72	1	163.587239758002	163.610702325001	"17"	54596.931629243	53971.751610553	1.5	0.1
0.01	1	0.0218254390056245	1	49	NA	174.341564892005	0	0.38	2.72	1	163.837632338	163.859457777005	"17"	54596.931629243	53971.751610553	1.5	0.1
0.01	1	1.31624661800015	1	49	NA	174.341564892005	0	0.38	2.72	1	164.088055475004	165.404302093004	"17"	54596.931629243	53971.751610553	1.5	0.1
0.01	1	0.0340542289995938	1	49	NA	174.341564892005	0	0.38	2.72	1	165.640719143004	165.674773372004	"17"	54596.931629243	53971.751610553	1.5	0.1
0.01	1	0.0403397300033248	1	49	NA	174.341564892005	0	0.38	2.72	1	165.907796013002	165.948135743005	"17"	54596.931629243	53971.751610553	1.5	0.1
0.01	1	0.0355820049953763	1	49	NA	174.341564892005	0	0.38	2.72	1	166.174887630004	166.210469635	"17"	54596.931629243	53971.751610553	1.5	0.1
0.01	1	0.00450056700356072	1	49	NA	174.341564892005	0	0.38	2.72	1	166.442014663	166.446515230004	"17"	54596.931629243	53971.751610553	1.5	0.1
0.01	1	0.0324055500022951	1	49	NA	174.341564892005	0	0.38	2.72	1	166.675777443001	166.708182993003	"17"	54596.931629243	53971.751610553	1.5	0.1
0.01	1	0.0361574060007115	1	49	NA	174.341564892005	0	0.38	2.72	1	166.942894555003	166.979051961003	"17"	54596.931629243	53971.751610553	1.5	0.1
0.01	1	0.0337344869985827	1	49	NA	174.341564892005	0	0.38	2.72	1	167.209957643005	167.243692130003	"17"	54596.931629243	53971.751610553	1.5	0.1
0.01	1	0.0542547830045805	1	49	NA	174.341564892005	0	0.38	2.72	1	167.477123853001	167.531378636006	"17"	54596.931629243	53971.751610553	1.5	0.1
0.01	1	0.514018451001903	1	49	NA	174.341564892005	0	0.38	2.72	1	167.760978555001	168.274997006003	"17"	54596.931629243	53971.751610553	1.5	0.1
0.01	1	0.106111503002467	1	49	NA	174.341564892005	0	0.38	2.72	1	168.512267607999	168.618379111002	"17"	54596.931629243	53971.751610553	1.5	0.1
0.01	1	0.0445838640007423	1	49	NA	174.341564892005	0	0.38	2.72	1	168.84613079	168.890714654	"17"	54596.931629243	53971.751610553	1.5	0.1
0.01	1	0.0343597070022952	1	49	NA	174.341564892005	0	0.38	2.72	1	169.113102850002	169.147462557004	"17"	54596.931629243	53971.751610553	1.5	0.1
0.01	1	0.00715509599831421	1	49	NA	174.341564892005	0	0.38	2.72	1	169.380272098002	169.387427194	"17"	54596.931629243	53971.751610553	1.5	0.1
0.01	1	0.0287949410048896	1	49	NA	174.341564892005	0	0.38	2.72	1	169.613958984999	169.642753926004	"17"	54596.931629243	53971.751610553	1.5	0.1
0.01	1	0.0352458330016816	1	49	NA	174.341564892005	0	0.38	2.72	1	169.881137953002	169.916383786003	"17"	54596.931629243	53971.751610553	1.5	0.1
0.01	1	0.238759888998175	1	49	NA	174.341564892005	0	0.38	2.72	1	170.148275225001	170.387035113999	"17"	54596.931629243	53971.751610553	1.5	0.1
0.01	1	0.00401628200052073	1	49	NA	174.341564892005	0	0.38	2.72	1	170.615774168	170.61979045	"17"	54596.931629243	53971.751610553	1.5	0.1
0.01	1	0.0327867339947261	1	49	NA	174.341564892005	0	0.38	2.72	1	170.849421725005	170.882208458999	"17"	54596.931629243	53971.751610553	1.5	0.1
0.01	1	0.0020839650023845	1	49	NA	174.341564892005	0	0.38	2.72	1	171.116593803003	171.118677768005	"17"	54596.931629243	53971.751610553	1.5	0.1
0.01	1	0.00720254300540546	1	49	NA	174.341564892005	0	0.38	2.72	1	171.350378165	171.357580708005	"17"	54596.931629243	53971.751610553	1.5	0.1
0.01	1	0.00225817400496453	1	49	NA	174.341564892005	0	0.38	2.72	1	171.583974412999	171.586232587004	"17"	54596.931629243	53971.751610553	1.5	0.1
0.01	1	0.0038956229982432	1	49	NA	174.341564892005	0	0.38	2.72	1	171.817767273002	171.821662896	"17"	54596.931629243	53971.751610553	1.5	0.1
0.01	1	0.0321434600045905	1	49	NA	174.341564892005	0	0.38	2.72	1	172.051479023001	172.083622483005	"17"	54596.931629243	53971.751610553	1.5	0.1
0.01	1	0.0286974269984057	1	49	NA	174.341564892005	0	0.38	2.72	1	172.318547118004	172.347244545002	"17"	54596.931629243	53971.751610553	1.5	0.1
0.01	1	0.0252892229982535	1	49	NA	174.341564892005	0	0.38	2.72	1	172.585654203001	172.610943426	"17"	54596.931629243	53971.751610553	1.5	0.1
0.01	1	0.0224362780063529	1	49	NA	174.341564892005	0	0.38	2.72	1	172.836122234999	172.858558513006	"17"	54596.931629243	53971.751610553	1.5	0.1
0.01	1	0.0447056560005876	1	49	NA	174.341564892005	0	0.38	2.72	1	173.086502383005	173.131208039005	"17"	54596.931629243	53971.751610553	1.5	0.1
0.01	1	0.0248385109953233	1	49	NA	174.341564892005	0	0.38	2.72	1	173.353585968005	173.378424479	"17"	54596.931629243	53971.751610553	1.5	0.1
0.01	1	0.735905980000098	2	49	NA	174.341564892005	0	0.38	2.72	1	173.604088263004	174.339994243004	"17"	54596.931629243	53971.751610553	1.5	0.1
0.01	1	0.723713127001247	1	17	NA	179.637357830004	0	0.08	2.8	1	176.392050415001	177.115763542002	"18"	54596.931629243	53971.751610553	1.5	0.1
0.01	1	0.0119620650002616	1	17	NA	179.637357830004	0	0.08	2.8	1	177.343615815	177.35557788	"18"	54596.931629243	53971.751610553	1.5	0.1
0.01	1	0.00447004799934803	1	17	NA	179.637357830004	0	0.08	2.8	1	177.594123350005	177.598593398005	"18"	54596.931629243	53971.751610553	1.5	0.1
0.01	1	0.00200456500169821	1	17	NA	179.637357830004	0	0.08	2.8	1	177.827872037	177.829876602002	"18"	54596.931629243	53971.751610553	1.5	0.1
0.01	1	0.00207482500263723	1	17	NA	179.637357830004	0	0.08	2.8	1	178.061610167999	178.063684993002	"18"	54596.931629243	53971.751610553	1.5	0.1
0.01	1	0.00208592400304042	1	17	NA	179.637357830004	0	0.08	2.8	1	178.295253948003	178.297339872006	"18"	54596.931629243	53971.751610553	1.5	0.1
0.01	1	0.00204501600092044	1	17	NA	179.637357830004	0	0.08	2.8	1	178.529090642005	178.531135658006	"18"	54596.931629243	53971.751610553	1.5	0.1
0.01	1	0.39285035499779	1	17	NA	179.637357830004	0	0.08	2.8	1	178.762712018004	179.155562373002	"18"	54596.931629243	53971.751610553	1.5	0.1
0.01	1	0.255270524001389	2	17	NA	179.637357830004	0	0.08	2.8	1	179.380519290004	179.635789814005	"18"	54596.931629243	53971.751610553	1.5	0.1
0.01	1	0.214078306998999	1	20	186.613167905001	NA	1	0	2.8	1	181.684333593003	181.898411900002	"19"	54596.931629243	53971.751610553	1.5	0.1
0.01	1	0.00744495099934284	1	20	186.613167905001	NA	1	0	2.8	1	182.135077755003	182.142522706003	"19"	54596.931629243	53971.751610553	1.5	0.1
0.01	1	0.0109318519971566	1	20	186.613167905001	NA	1	0	2.8	1	182.368841626005	182.379773478002	"19"	54596.931629243	53971.751610553	1.5	0.1
0.01	1	0.0114090839997516	1	20	186.613167905001	NA	1	0	2.8	1	182.602608108005	182.614017192005	"19"	54596.931629243	53971.751610553	1.5	0.1
0.01	1	0.00204584499442717	1	20	186.613167905001	NA	1	0	2.8	1	182.836302013005	182.838347858	"19"	54596.931629243	53971.751610553	1.5	0.1
0.01	1	0.0021938339996268	1	20	186.613167905001	NA	1	0	2.8	1	183.069968098003	183.072161932003	"19"	54596.931629243	53971.751610553	1.5	0.1
0.01	1	0.00388162499439204	1	20	186.613167905001	NA	1	0	2.8	1	183.303677535005	183.307559159999	"19"	54596.931629243	53971.751610553	1.5	0.1
0.01	1	0.00376055300148437	1	20	186.613167905001	NA	1	0	2.8	1	183.537432935002	183.541193488003	"19"	54596.931629243	53971.751610553	1.5	0.1
0.01	1	0.00204241900064517	1	20	186.613167905001	NA	1	0	2.8	1	183.771230112005	183.773272531005	"19"	54596.931629243	53971.751610553	1.5	0.1
0.01	1	0.00259597900003428	1	20	186.613167905001	NA	1	0	2.8	1	184.004824579999	184.007420558999	"19"	54596.931629243	53971.751610553	1.5	0.1
0.01	1	0.00220164999336703	1	20	186.613167905001	NA	1	0	2.8	1	184.238692884006	184.240894533999	"19"	54596.931629243	53971.751610553	1.5	0.1
0.01	1	0.00458793000143487	1	20	186.613167905001	NA	1	0	2.8	1	184.472396033001	184.476983963003	"19"	54596.931629243	53971.751610553	1.5	0.1
0.01	1	0.00201040600222768	1	20	186.613167905001	NA	1	0	2.8	1	184.706100855001	184.708111261003	"19"	54596.931629243	53971.751610553	1.5	0.1
0.01	1	0.0243273399973987	1	20	186.613167905001	NA	1	0	2.8	1	184.939863965003	184.964191305	"19"	54596.931629243	53971.751610553	1.5	0.1
0.01	1	0.0132281969999894	1	20	186.613167905001	NA	1	0	2.8	1	185.190191513	185.20341971	"19"	54596.931629243	53971.751610553	1.5	0.1
0.01	1	0.0590866479979013	1	20	186.613167905001	NA	1	0	2.8	1	185.440698928003	185.499785576001	"19"	54596.931629243	53971.751610553	1.5	0.1
0.01	1	0.0783352210055455	1	20	186.613167905001	NA	1	0	2.8	1	185.724396013	185.802731234005	"19"	54596.931629243	53971.751610553	1.5	0.1
0.01	1	0.00409575300000142	1	20	186.613167905001	NA	1	0	2.8	1	186.024974284999	186.029070037999	"19"	54596.931629243	53971.751610553	1.5	0.1
0.01	1	0.00292819199967198	1	20	186.613167905001	NA	1	0	2.8	1	186.258600226	186.261528417999	"19"	54596.931629243	53971.751610553	1.5	0.1
0.01	1	0.00353195999923628	1	20	186.613167905001	NA	1	0	2.8	1	186.492430908002	186.495962868001	"19"	54596.931629243	53971.751610553	1.5	0.1
0.01	1	0.149343946999579	1	21	193.956612883005	NA	1	0	2.8	1	188.662792668001	188.812136615001	"20"	54596.931629243	53971.751610553	1.5	0.1
0.01	1	0.0034336339958827	1	21	193.956612883005	NA	1	0	2.8	1	189.046676438003	189.050110071999	"20"	54596.931629243	53971.751610553	1.5	0.1
0.01	1	0.00437083699944196	1	21	193.956612883005	NA	1	0	2.8	1	189.280414193003	189.284785030002	"20"	54596.931629243	53971.751610553	1.5	0.1
0.01	1	0.00374022899632109	1	21	193.956612883005	NA	1	0	2.8	1	189.514127803006	189.517868032002	"20"	54596.931629243	53971.751610553	1.5	0.1
0.01	1	0.00376862900156993	1	21	193.956612883005	NA	1	0	2.8	1	189.747841823002	189.751610452004	"20"	54596.931629243	53971.751610553	1.5	0.1
0.01	1	0.0286498370041954	1	21	193.956612883005	NA	1	0	2.8	1	189.981582307999	190.010232145003	"20"	54596.931629243	53971.751610553	1.5	0.1
0.01	1	0.0041757970029721	1	21	193.956612883005	NA	1	0	2.8	1	190.248768413003	190.252944210006	"20"	54596.931629243	53971.751610553	1.5	0.1
0.01	1	0.0491585929994471	1	21	193.956612883005	NA	1	0	2.8	1	190.482582832999	190.531741425999	"20"	54596.931629243	53971.751610553	1.5	0.1
0.01	1	0.0138938710006187	1	21	193.956612883005	NA	1	0	2.8	1	190.766289108004	190.780182979004	"20"	54596.931629243	53971.751610553	1.5	0.1
0.01	1	0.0111314170062542	1	21	193.956612883005	NA	1	0	2.8	1	191.016747725	191.027879142006	"20"	54596.931629243	53971.751610553	1.5	0.1
0.01	1	0.0244203340043896	1	21	193.956612883005	NA	1	0	2.8	1	191.250370483001	191.274790817006	"20"	54596.931629243	53971.751610553	1.5	0.1
0.01	1	0.00398387599852867	1	21	193.956612883005	NA	1	0	2.8	1	191.500875140002	191.504859016	"20"	54596.931629243	53971.751610553	1.5	0.1
0.01	1	0.0284725339952274	1	21	193.956612883005	NA	1	0	2.8	1	191.734557218006	191.763029752001	"20"	54596.931629243	53971.751610553	1.5	0.1
0.01	1	0.0041158060048474	1	21	193.956612883005	NA	1	0	2.8	1	192.001623288001	192.005739094006	"20"	54596.931629243	53971.751610553	1.5	0.1
0.01	1	0.0162071649974678	1	21	193.956612883005	NA	1	0	2.8	1	192.235395653006	192.251602818003	"20"	54596.931629243	53971.751610553	1.5	0.1
0.01	1	0.0209103520028293	1	21	193.956612883005	NA	1	0	2.8	1	192.485868725002	192.506779077004	"20"	54596.931629243	53971.751610553	1.5	0.1
0.01	1	0.026756237995869	1	21	193.956612883005	NA	1	0	2.8	1	192.736323775003	192.763080012999	"20"	54596.931629243	53971.751610553	1.5	0.1
0.01	1	0.0561482749981224	1	21	193.956612883005	NA	1	0	2.8	1	192.986706870004	193.042855145002	"20"	54596.931629243	53971.751610553	1.5	0.1
0.01	1	0.0204789850031375	1	21	193.956612883005	NA	1	0	2.8	1	193.270463225002	193.290942210006	"20"	54596.931629243	53971.751610553	1.5	0.1
0.01	1	0.0352875960015808	1	21	193.956612883005	NA	1	0	2.8	1	193.520926306999	193.556213903001	"20"	54596.931629243	53971.751610553	1.5	0.1
0.01	1	0.0624251210028888	1	21	193.956612883005	NA	1	0	2.8	1	193.788057110003	193.850482231006	"20"	54596.931629243	53971.751610553	1.5	0.1
0.01	1	0.0271754980058176	1	26	NA	202.932356820005	0	0.2	3	1	196.00846687	196.035642368006	"21"	54596.931629243	53971.751610553	1.5	0.1
0.01	1	0.00381598799867788	1	26	NA	202.932356820005	0	0.2	3	1	196.275551480001	196.279367468	"21"	54596.931629243	53971.751610553	1.5	0.1
0.01	1	0.0136674719979055	1	26	NA	202.932356820005	0	0.2	3	1	196.509351650006	196.523019122003	"21"	54596.931629243	53971.751610553	1.5	0.1
0.01	1	0.0435073379994719	1	26	NA	202.932356820005	0	0.2	3	1	196.759763430004	196.803270768003	"21"	54596.931629243	53971.751610553	1.5	0.1
0.01	1	0.0642474839987699	1	26	NA	202.932356820005	0	0.2	3	1	197.026765213006	197.091012697005	"21"	54596.931629243	53971.751610553	1.5	0.1
0.01	1	0.027835207998578	1	26	NA	202.932356820005	0	0.2	3	1	197.327347215003	197.355182423002	"21"	54596.931629243	53971.751610553	1.5	0.1
0.01	1	0.00955189499654807	1	26	NA	202.932356820005	0	0.2	3	1	197.577800948005	197.587352843002	"21"	54596.931629243	53971.751610553	1.5	0.1
0.01	1	0.0723366559977876	1	26	NA	202.932356820005	0	0.2	3	1	197.811404673004	197.883741329002	"21"	54596.931629243	53971.751610553	1.5	0.1
0.01	1	0.066448452998884	1	26	NA	202.932356820005	0	0.2	3	1	198.111934250002	198.178382703001	"21"	54596.931629243	53971.751610553	1.5	0.1
0.01	1	0.415022212997428	1	26	NA	202.932356820005	0	0.2	3	1	198.412368478006	198.827390691004	"21"	54596.931629243	53971.751610553	1.5	0.1
0.01	1	0.0186524329983513	1	26	NA	202.932356820005	0	0.2	3	1	199.063594475003	199.082246908001	"21"	54596.931629243	53971.751610553	1.5	0.1
0.01	1	0.0105134049954358	1	26	NA	202.932356820005	0	0.2	3	1	199.314036287004	199.324549691999	"21"	54596.931629243	53971.751610553	1.5	0.1
0.01	1	0.00987204899865901	1	26	NA	202.932356820005	0	0.2	3	1	199.547709265004	199.557581314002	"21"	54596.931629243	53971.751610553	1.5	0.1
0.01	1	0.00814265500230249	1	26	NA	202.932356820005	0	0.2	3	1	199.781426173002	199.789568828004	"21"	54596.931629243	53971.751610553	1.5	0.1
0.01	1	0.307521048998751	1	26	NA	202.932356820005	0	0.2	3	1	200.015258813	200.322779861999	"21"	54596.931629243	53971.751610553	1.5	0.1
0.01	1	0.0378344290002133	1	26	NA	202.932356820005	0	0.2	3	1	200.549363575003	200.587198004003	"21"	54596.931629243	53971.751610553	1.5	0.1
0.01	1	0.0500798409993877	1	26	NA	202.932356820005	0	0.2	3	1	200.816464198004	200.866544039003	"21"	54596.931629243	53971.751610553	1.5	0.1
0.01	1	0.0220725280014449	1	26	NA	202.932356820005	0	0.2	3	1	201.100308633002	201.122381161003	"21"	54596.931629243	53971.751610553	1.5	0.1
0.01	1	0.0520397759974003	1	26	NA	202.932356820005	0	0.2	3	1	201.350649133004	201.402688909002	"21"	54596.931629243	53971.751610553	1.5	0.1
0.01	1	0.0647494190052385	1	26	NA	202.932356820005	0	0.2	3	1	201.634751404999	201.699500824005	"21"	54596.931629243	53971.751610553	1.5	0.1
0.01	1	0.99567435499921	2	26	NA	202.932356820005	0	0.2	3	1	201.935121558003	202.930795913002	"21"	54596.931629243	53971.751610553	1.5	0.1
0.01	1	1.42090878699673	1	97	NA	215.093163882004	0	0.28	3.28	1	204.990194135004	206.411102922	"22"	54596.931629243	53971.751610553	1.5	0.1
0.01	1	0.00260435599921038	1	97	NA	215.093163882004	0	0.28	3.28	1	206.642873148005	206.645477504004	"22"	54596.931629243	53971.751610553	1.5	0.1
0.01	1	0.0377849110009265	1	97	NA	215.093163882004	0	0.28	3.28	1	206.876784405002	206.914569316003	"22"	54596.931629243	53971.751610553	1.5	0.1
0.01	1	0.00303415000234963	1	97	NA	215.093163882004	0	0.28	3.28	1	207.143820750003	207.146854900006	"22"	54596.931629243	53971.751610553	1.5	0.1
0.01	1	0.00274271200032672	1	97	NA	215.093163882004	0	0.28	3.28	1	207.377500050003	207.380242762003	"22"	54596.931629243	53971.751610553	1.5	0.1
0.01	1	0.0249265039965394	1	97	NA	215.093163882004	0	0.28	3.28	1	207.611232555006	207.636159059002	"22"	54596.931629243	53971.751610553	1.5	0.1
0.01	1	0.00348081800621003	1	97	NA	215.093163882004	0	0.28	3.28	1	207.861669528	207.865150346006	"22"	54596.931629243	53971.751610553	1.5	0.1
0.01	1	0.00710424200224224	1	97	NA	215.093163882004	0	0.28	3.28	1	208.095476688002	208.102580930004	"22"	54596.931629243	53971.751610553	1.5	0.1
0.01	1	0.0112055569989025	1	97	NA	215.093163882004	0	0.28	3.28	1	208.329256283003	208.340461840002	"22"	54596.931629243	53971.751610553	1.5	0.1
0.01	1	0.00381321600434603	1	97	NA	215.093163882004	0	0.28	3.28	1	208.562787258001	208.566600474005	"22"	54596.931629243	53971.751610553	1.5	0.1
0.01	1	0.0231105499988189	1	97	NA	215.093163882004	0	0.28	3.28	1	208.796643353002	208.819753903001	"22"	54596.931629243	53971.751610553	1.5	0.1
0.01	1	0.0200014100046246	1	97	NA	215.093163882004	0	0.28	3.28	1	209.046974295001	209.066975705005	"22"	54596.931629243	53971.751610553	1.5	0.1
0.01	1	0.0171303869938129	1	97	NA	215.093163882004	0	0.28	3.28	1	209.297509938006	209.314640324999	"22"	54596.931629243	53971.751610553	1.5	0.1
0.01	1	0.0484417770057917	1	97	NA	215.093163882004	0	0.28	3.28	1	209.547820713	209.596262490006	"22"	54596.931629243	53971.751610553	1.5	0.1
0.01	1	0.146666562002792	1	97	NA	215.093163882004	0	0.28	3.28	1	209.831623038001	209.978289600003	"22"	54596.931629243	53971.751610553	1.5	0.1
0.01	1	0.0021018620027462	1	97	NA	215.093163882004	0	0.28	3.28	1	210.215596756003	210.217698618006	"22"	54596.931629243	53971.751610553	1.5	0.1
0.01	1	0.00462619699828792	1	97	NA	215.093163882004	0	0.28	3.28	1	210.449382293002	210.45400849	"22"	54596.931629243	53971.751610553	1.5	0.1
0.01	1	0.00231087500287686	1	97	NA	215.093163882004	0	0.28	3.28	1	210.683096458	210.685407333003	"22"	54596.931629243	53971.751610553	1.5	0.1
0.01	1	0.0295826549991034	1	97	NA	215.093163882004	0	0.28	3.28	1	210.916873598006	210.946456253005	"22"	54596.931629243	53971.751610553	1.5	0.1
0.01	1	0.0585397379982169	1	97	NA	215.093163882004	0	0.28	3.28	1	211.183966798002	211.242506536	"22"	54596.931629243	53971.751610553	1.5	0.1
0.01	1	0.046974347998912	1	97	NA	215.093163882004	0	0.28	3.28	1	211.467785665001	211.514760013	"22"	54596.931629243	53971.751610553	1.5	0.1
0.01	1	0.0132047150036669	1	97	NA	215.093163882004	0	0.28	3.28	1	211.751647887999	211.764852603003	"22"	54596.931629243	53971.751610553	1.5	0.1
0.01	1	0.0351322060014354	1	97	NA	215.093163882004	0	0.28	3.28	1	211.985257207001	212.020389413003	"22"	54596.931629243	53971.751610553	1.5	0.1
0.01	1	0.0317088299998431	1	97	NA	215.093163882004	0	0.28	3.28	1	212.252363413005	212.284072243005	"22"	54596.931629243	53971.751610553	1.5	0.1
0.01	1	0.083586083004775	1	97	NA	215.093163882004	0	0.28	3.28	1	212.519434592999	212.603020676004	"22"	54596.931629243	53971.751610553	1.5	0.1
0.01	1	0.038588173003518	1	97	NA	215.093163882004	0	0.28	3.28	1	212.836654530001	212.875242703005	"22"	54596.931629243	53971.751610553	1.5	0.1
0.01	1	0.0596667870049714	1	97	NA	215.093163882004	0	0.28	3.28	1	213.103843443001	213.163510230006	"22"	54596.931629243	53971.751610553	1.5	0.1
0.01	1	0.0803645179985324	1	97	NA	215.093163882004	0	0.28	3.28	1	213.387656513005	213.468021031003	"22"	54596.931629243	53971.751610553	1.5	0.1
0.01	1	1.38675261000026	2	97	NA	215.093163882004	0	0.28	3.28	1	213.704858498	215.091611108001	"22"	54596.931629243	53971.751610553	1.5	0.1
0.01	1	0.298964818000968	1	118	NA	228.365363296005	0	0.37	3.65	1	217.143907470003	217.442872288004	"23"	54596.931629243	53971.751610553	1.5	0.1
0.01	1	0.00363073100015754	1	118	NA	228.365363296005	0	0.37	3.65	1	217.678187675003	217.681818406003	"23"	54596.931629243	53971.751610553	1.5	0.1
0.01	1	0.0122752640018007	1	118	NA	228.365363296005	0	0.37	3.65	1	217.911940338003	217.924215602005	"23"	54596.931629243	53971.751610553	1.5	0.1
0.01	1	0.00392349599860609	1	118	NA	228.365363296005	0	0.37	3.65	1	218.162233868003	218.166157364001	"23"	54596.931629243	53971.751610553	1.5	0.1
0.01	1	0.00970110300113447	1	118	NA	228.365363296005	0	0.37	3.65	1	218.396063165004	218.405764268005	"23"	54596.931629243	53971.751610553	1.5	0.1
0.01	1	0.0365216350037372	1	118	NA	228.365363296005	0	0.37	3.65	1	218.629716654999	218.666238290003	"23"	54596.931629243	53971.751610553	1.5	0.1
0.01	1	0.210437189001823	1	118	NA	228.365363296005	0	0.37	3.65	1	218.897074968001	219.107512157003	"23"	54596.931629243	53971.751610553	1.5	0.1
0.01	1	0.0156243880046532	1	118	NA	228.365363296005	0	0.37	3.65	1	219.330918202999	219.346542591004	"23"	54596.931629243	53971.751610553	1.5	0.1
0.01	1	0.00343915799749084	1	118	NA	228.365363296005	0	0.37	3.65	1	219.581429176003	219.584868334001	"23"	54596.931629243	53971.751610553	1.5	0.1
0.01	1	0.0133553570049116	1	118	NA	228.365363296005	0	0.37	3.65	1	219.815158728001	219.828514085006	"23"	54596.931629243	53971.751610553	1.5	0.1
0.01	1	0.0504587129980791	1	118	NA	228.365363296005	0	0.37	3.65	1	220.065545983001	220.116004695999	"23"	54596.931629243	53971.751610553	1.5	0.1
0.01	1	0.0707765960032702	1	118	NA	228.365363296005	0	0.37	3.65	1	220.349327215001	220.420103811004	"23"	54596.931629243	53971.751610553	1.5	0.1
0.01	1	0.0260518080031034	1	118	NA	228.365363296005	0	0.37	3.65	1	220.649818915001	220.675870723004	"23"	54596.931629243	53971.751610553	1.5	0.1
0.01	1	0.0706781609987956	1	118	NA	228.365363296005	0	0.37	3.65	1	220.900252865002	220.970931026	"23"	54596.931629243	53971.751610553	1.5	0.1
0.01	1	0.0177518339987728	1	118	NA	228.365363296005	0	0.37	3.65	1	221.200803448002	221.218555282001	"23"	54596.931629243	53971.751610553	1.5	0.1
0.01	1	0.0725028700035182	1	118	NA	228.365363296005	0	0.37	3.65	1	221.451258822999	221.523761693003	"23"	54596.931629243	53971.751610553	1.5	0.1
0.01	1	0.019759298003919	1	118	NA	228.365363296005	0	0.37	3.65	1	221.751757657999	221.771516956003	"23"	54596.931629243	53971.751610553	1.5	0.1
0.01	1	0.0179181400017114	1	118	NA	228.365363296005	0	0.37	3.65	1	222.002194223001	222.020112363003	"23"	54596.931629243	53971.751610553	1.5	0.1
0.01	1	0.0462385430000722	1	118	NA	228.365363296005	0	0.37	3.65	1	222.252537713	222.298776256001	"23"	54596.931629243	53971.751610553	1.5	0.1
0.01	1	0.043786681999336	1	118	NA	228.365363296005	0	0.37	3.65	1	222.536447495004	222.580234177003	"23"	54596.931629243	53971.751610553	1.5	0.1
0.01	1	0.0965433980018133	1	118	NA	228.365363296005	0	0.37	3.65	1	222.803571928001	222.900115326003	"23"	54596.931629243	53971.751610553	1.5	0.1
0.01	1	0.0493375149962958	1	118	NA	228.365363296005	0	0.37	3.65	1	223.137487208005	223.186824723001	"23"	54596.931629243	53971.751610553	1.5	0.1
0.01	1	0.030678999995871	1	118	NA	228.365363296005	0	0.37	3.65	1	223.421233363006	223.451912363002	"23"	54596.931629243	53971.751610553	1.5	0.1
0.01	1	0.0432002570014447	1	118	NA	228.365363296005	0	0.37	3.65	1	223.688350923003	223.731551180004	"23"	54596.931629243	53971.751610553	1.5	0.1
0.01	1	0.00291150999692036	1	118	NA	228.365363296005	0	0.37	3.65	1	223.955442074002	223.958353583999	"23"	54596.931629243	53971.751610553	1.5	0.1
0.01	1	0.00204214000405045	1	118	NA	228.365363296005	0	0.37	3.65	1	224.189162873001	224.191205013005	"23"	54596.931629243	53971.751610553	1.5	0.1
0.01	1	0.0197989520020201	1	118	NA	228.365363296005	0	0.37	3.65	1	224.422854798002	224.442653750004	"23"	54596.931629243	53971.751610553	1.5	0.1
0.01	1	0.0106137149996357	1	118	NA	228.365363296005	0	0.37	3.65	1	224.673273658002	224.683887373001	"23"	54596.931629243	53971.751610553	1.5	0.1
0.01	1	0.0252258350010379	1	118	NA	228.365363296005	0	0.37	3.65	1	224.906999545005	224.932225380006	"23"	54596.931629243	53971.751610553	1.5	0.1
0.01	1	0.0307357010024134	1	118	NA	228.365363296005	0	0.37	3.65	1	225.157412690001	225.188148391004	"23"	54596.931629243	53971.751610553	1.5	0.1
0.01	1	0.0416765900008613	1	118	NA	228.365363296005	0	0.37	3.65	1	225.424543890003	225.466220480004	"23"	54596.931629243	53971.751610553	1.5	0.1
0.01	1	0.0789041030002409	1	118	NA	228.365363296005	0	0.37	3.65	1	225.691660194003	225.770564297003	"23"	54596.931629243	53971.751610553	1.5	0.1
0.01	1	0.0345299920008983	1	118	NA	228.365363296005	0	0.37	3.65	1	226.008859314999	226.043389307	"23"	54596.931629243	53971.751610553	1.5	0.1
0.01	1	0.0555978949996643	1	118	NA	228.365363296005	0	0.37	3.65	1	226.275909907999	226.331507802999	"23"	54596.931629243	53971.751610553	1.5	0.1
0.01	1	0.0268940440000733	1	118	NA	228.365363296005	0	0.37	3.65	1	226.559767003004	226.586661047004	"23"	54596.931629243	53971.751610553	1.5	0.1
0.01	1	0.017173799999	1	118	NA	228.365363296005	0	0.37	3.65	1	226.826893208003	226.844067008002	"23"	54596.931629243	53971.751610553	1.5	0.1
0.01	1	0.0937781379980152	1	118	NA	228.365363296005	0	0.37	3.65	1	227.077386278004	227.171164416002	"23"	54596.931629243	53971.751610553	1.5	0.1
0.01	1	0.969226044006064	2	118	NA	228.365363296005	0	0.37	3.65	1	227.394564189999	228.363790234005	"23"	54596.931629243	53971.751610553	1.5	0.1
0.01	1	1.2281052699982	1	100	NA	239.341377164004	0	0.26	3.91	1	230.416252733005	231.644358003003	"24"	54596.931629243	53971.751610553	1.5	0.1
0.01	1	0.00389858100243146	1	100	NA	239.341377164004	0	0.26	3.91	1	231.885365565002	231.889264146004	"24"	54596.931629243	53971.751610553	1.5	0.1
0.01	1	0.00375646500469884	1	100	NA	239.341377164004	0	0.26	3.91	1	232.119227643001	232.122984108006	"24"	54596.931629243	53971.751610553	1.5	0.1
0.01	1	0.00212666099832859	1	100	NA	239.341377164004	0	0.26	3.91	1	232.352937732001	232.355064392999	"24"	54596.931629243	53971.751610553	1.5	0.1
0.01	1	0.00204711700644111	1	100	NA	239.341377164004	0	0.26	3.91	1	232.586681497	232.588728614006	"24"	54596.931629243	53971.751610553	1.5	0.1
0.01	1	0.00210323100327514	1	100	NA	239.341377164004	0	0.26	3.91	1	232.820342106999	232.822445338003	"24"	54596.931629243	53971.751610553	1.5	0.1
0.01	1	0.00215675599611131	1	100	NA	239.341377164004	0	0.26	3.91	1	233.054072055005	233.056228811001	"24"	54596.931629243	53971.751610553	1.5	0.1
0.01	1	0.00205659600032959	1	100	NA	239.341377164004	0	0.26	3.91	1	233.287783782005	233.289840378005	"24"	54596.931629243	53971.751610553	1.5	0.1
0.01	1	0.00219021399971098	1	100	NA	239.341377164004	0	0.26	3.91	1	233.521569365999	233.523759579999	"24"	54596.931629243	53971.751610553	1.5	0.1
0.01	1	0.002418967000267	1	100	NA	239.341377164004	0	0.26	3.91	1	233.755204434005	233.757623401005	"24"	54596.931629243	53971.751610553	1.5	0.1
0.01	1	0.0299697770024068	1	100	NA	239.341377164004	0	0.26	3.91	1	233.988970819999	234.018940597001	"24"	54596.931629243	53971.751610553	1.5	0.1
0.01	1	0.0197969360015122	1	100	NA	239.341377164004	0	0.26	3.91	1	234.256051083001	234.275848019002	"24"	54596.931629243	53971.751610553	1.5	0.1
0.01	1	0.032524653004657	1	100	NA	239.341377164004	0	0.26	3.91	1	234.506539693	234.539064346005	"24"	54596.931629243	53971.751610553	1.5	0.1
0.01	1	0.0543197349979891	1	100	NA	239.341377164004	0	0.26	3.91	1	234.773695533004	234.828015268002	"24"	54596.931629243	53971.751610553	1.5	0.1
0.01	1	0.0338763000036124	1	100	NA	239.341377164004	0	0.26	3.91	1	235.057470113999	235.091346414003	"24"	54596.931629243	53971.751610553	1.5	0.1
0.01	1	0.0391483799976413	1	100	NA	239.341377164004	0	0.26	3.91	1	235.324529383004	235.363677763002	"24"	54596.931629243	53971.751610553	1.5	0.1
0.01	1	0.0267155410037958	1	100	NA	239.341377164004	0	0.26	3.91	1	235.591667535002	235.618383076006	"24"	54596.931629243	53971.751610553	1.5	0.1
0.01	1	0.344583302001411	1	100	NA	239.341377164004	0	0.26	3.91	1	235.842026953003	236.186610255005	"24"	54596.931629243	53971.751610553	1.5	0.1
0.01	1	0.089637593999214	1	100	NA	239.341377164004	0	0.26	3.91	1	236.409739448005	236.499377042004	"24"	54596.931629243	53971.751610553	1.5	0.1
0.01	1	0.0358574960046099	1	100	NA	239.341377164004	0	0.26	3.91	1	236.726946028	236.762803524005	"24"	54596.931629243	53971.751610553	1.5	0.1
0.01	1	0.112228805002815	1	100	NA	239.341377164004	0	0.26	3.91	1	236.994042728002	237.106271533004	"24"	54596.931629243	53971.751610553	1.5	0.1
0.01	1	0.066642931997194	1	100	NA	239.341377164004	0	0.26	3.91	1	237.344618824005	237.411261756002	"24"	54596.931629243	53971.751610553	1.5	0.1
0.01	1	0.0304556179980864	1	100	NA	239.341377164004	0	0.26	3.91	1	237.645169528005	237.675625146003	"24"	54596.931629243	53971.751610553	1.5	0.1
0.01	1	0.0343680850055534	1	100	NA	239.341377164004	0	0.26	3.91	1	237.912225382999	237.946593468005	"24"	54596.931629243	53971.751610553	1.5	0.1
0.01	1	0.0238645209974493	1	100	NA	239.341377164004	0	0.26	3.91	1	238.179373185005	238.203237706002	"24"	54596.931629243	53971.751610553	1.5	0.1
0.01	1	0.101089196999965	1	100	NA	239.341377164004	0	0.26	3.91	1	238.429830403002	238.530919600002	"24"	54596.931629243	53971.751610553	1.5	0.1
0.01	1	0.576217730995268	2	100	NA	239.341377164004	0	0.26	3.91	1	238.763604486005	239.339822217	"24"	54596.931629243	53971.751610553	1.5	0.1
0.01	1	0.210708966995298	1	46	NA	251.557255885004	0	0.29	4.2	1	241.384725095006	241.595434062001	"25"	54596.931629243	53971.751610553	1.5	0.1
0.01	1	0.00206587499997113	1	46	NA	251.557255885004	0	0.29	4.2	1	241.835510258999	241.837576133999	"25"	54596.931629243	53971.751610553	1.5	0.1
0.01	1	0.0453028389965766	1	46	NA	251.557255885004	0	0.29	4.2	1	242.069254058006	242.114556897002	"25"	54596.931629243	53971.751610553	1.5	0.1
0.01	1	0.00223198700405192	1	46	NA	251.557255885004	0	0.29	4.2	1	242.336248264	242.338480251005	"25"	54596.931629243	53971.751610553	1.5	0.1
0.01	1	0.313499504998617	1	46	NA	251.557255885004	0	0.29	4.2	1	242.570123155005	242.883622660003	"25"	54596.931629243	53971.751610553	1.5	0.1
0.01	1	0.0185142370028188	1	46	NA	251.557255885004	0	0.29	4.2	1	243.120950324999	243.139464562002	"25"	54596.931629243	53971.751610553	1.5	0.1
0.01	1	0.0242402970034163	1	46	NA	251.557255885004	0	0.29	4.2	1	243.371399490003	243.395639787006	"25"	54596.931629243	53971.751610553	1.5	0.1
0.01	1	0.0691371659995639	1	46	NA	251.557255885004	0	0.29	4.2	1	243.621878537	243.691015703	"25"	54596.931629243	53971.751610553	1.5	0.1
0.01	1	0.0724647559982259	1	46	NA	251.557255885004	0	0.29	4.2	1	243.922404670004	243.994869426002	"25"	54596.931629243	53971.751610553	1.5	0.1
0.01	1	0.0277772569970693	1	46	NA	251.557255885004	0	0.29	4.2	1	244.222828394006	244.250605651003	"25"	54596.931629243	53971.751610553	1.5	0.1
0.01	1	0.0893587899990962	1	46	NA	251.557255885004	0	0.29	4.2	1	244.473217758001	244.562576548	"25"	54596.931629243	53971.751610553	1.5	0.1
0.01	1	0.0759406060024048	1	46	NA	251.557255885004	0	0.29	4.2	1	244.790545424999	244.866486031002	"25"	54596.931629243	53971.751610553	1.5	0.1
0.01	1	0.0553293659977498	1	46	NA	251.557255885004	0	0.29	4.2	1	245.107648613004	245.162977979002	"25"	54596.931629243	53971.751610553	1.5	0.1
0.01	1	0.124810503002664	1	46	NA	251.557255885004	0	0.29	4.2	1	245.391480988001	245.516291491003	"25"	54596.931629243	53971.751610553	1.5	0.1
0.01	1	0.0929346029952285	1	46	NA	251.557255885004	0	0.29	4.2	1	245.742067103005	245.835001706	"25"	54596.931629243	53971.751610553	1.5	0.1
0.01	1	0.897060503004468	1	46	NA	251.557255885004	0	0.29	4.2	1	246.059209712999	246.956270216004	"25"	54596.931629243	53971.751610553	1.5	0.1
0.01	1	0.128369687001396	1	46	NA	251.557255885004	0	0.29	4.2	1	247.194562365003	247.322932052004	"25"	54596.931629243	53971.751610553	1.5	0.1
0.01	1	0.154011323997111	1	46	NA	251.557255885004	0	0.29	4.2	1	247.545102763004	247.699114087001	"25"	54596.931629243	53971.751610553	1.5	0.1
0.01	1	0.0903579549994902	1	46	NA	251.557255885004	0	0.29	4.2	1	247.929113026999	248.019470981999	"25"	54596.931629243	53971.751610553	1.5	0.1
0.01	1	0.0375693210007739	1	46	NA	251.557255885004	0	0.29	4.2	1	248.246293853001	248.283863174001	"25"	54596.931629243	53971.751610553	1.5	0.1
0.01	1	0.00403520099644084	1	46	NA	251.557255885004	0	0.29	4.2	1	248.513326015003	248.517361216	"25"	54596.931629243	53971.751610553	1.5	0.1
0.01	1	0.00260486600018339	1	46	NA	251.557255885004	0	0.29	4.2	1	248.747034534004	248.749639400005	"25"	54596.931629243	53971.751610553	1.5	0.1
0.01	1	0.00219709699740633	1	46	NA	251.557255885004	0	0.29	4.2	1	248.980828381005	248.983025478003	"25"	54596.931629243	53971.751610553	1.5	0.1
0.01	1	0.0523672060007812	1	46	NA	251.557255885004	0	0.29	4.2	1	249.214574620004	249.266941826005	"25"	54596.931629243	53971.751610553	1.5	0.1
0.01	1	0.217190924995521	1	46	NA	251.557255885004	0	0.29	4.2	1	249.498442148004	249.715633072999	"25"	54596.931629243	53971.751610553	1.5	0.1
0.01	1	0.0537613039996359	1	46	NA	251.557255885004	0	0.29	4.2	1	249.949149258005	250.002910562005	"25"	54596.931629243	53971.751610553	1.5	0.1
0.01	1	0.115005448999	1	46	NA	251.557255885004	0	0.29	4.2	1	250.232878163006	250.347883612005	"25"	54596.931629243	53971.751610553	1.5	0.1
0.01	1	0.108031932999438	1	46	NA	251.557255885004	0	0.29	4.2	1	250.583554504999	250.691586437999	"25"	54596.931629243	53971.751610553	1.5	0.1
0.01	1	0.0852910320027149	1	46	NA	251.557255885004	0	0.29	4.2	1	250.917375518002	251.002666550005	"25"	54596.931629243	53971.751610553	1.5	0.1
0.01	1	0.321036278997781	2	46	NA	251.557255885004	0	0.29	4.2	1	251.234643128002	251.555679407	"25"	54596.931629243	53971.751610553	1.5	0.1
0.01	1	0.846714823004731	1	102	NA	263.172790617005	0	0.28	4.48	1	253.605278928	254.451993751005	"26"	54596.931629243	53971.751610553	1.5	0.1
0.01	1	0.0254068189969985	1	102	NA	263.172790617005	0	0.28	4.48	1	254.690384215006	254.715791034003	"26"	54596.931629243	53971.751610553	1.5	0.1
0.01	1	0.00230254299822263	1	102	NA	263.172790617005	0	0.28	4.48	1	254.940813614005	254.943116157003	"26"	54596.931629243	53971.751610553	1.5	0.1
0.01	1	0.00213074100611266	1	102	NA	263.172790617005	0	0.28	4.48	1	255.174620373	255.176751114006	"26"	54596.931629243	53971.751610553	1.5	0.1
0.01	1	0.00309742800163804	1	102	NA	263.172790617005	0	0.28	4.48	1	255.408327038	255.411424466001	"26"	54596.931629243	53971.751610553	1.5	0.1
0.01	1	0.048923921000096	1	102	NA	263.172790617005	0	0.28	4.48	1	255.642043283005	255.690967204006	"26"	54596.931629243	53971.751610553	1.5	0.1
0.01	1	0.00778578300378285	1	102	NA	263.172790617005	0	0.28	4.48	1	255.925790873	255.933576656003	"26"	54596.931629243	53971.751610553	1.5	0.1
0.01	1	0.0120939940024982	1	102	NA	263.172790617005	0	0.28	4.48	1	256.159617513003	256.171711507006	"26"	54596.931629243	53971.751610553	1.5	0.1
0.01	1	0.041176175000146	1	102	NA	263.172790617005	0	0.28	4.48	1	256.409973325004	256.451149500004	"26"	54596.931629243	53971.751610553	1.5	0.1
0.01	1	0.045519345003413	1	102	NA	263.172790617005	0	0.28	4.48	1	256.677191843002	256.722711188006	"26"	54596.931629243	53971.751610553	1.5	0.1
0.01	1	0.0665941040060716	1	102	NA	263.172790617005	0	0.28	4.48	1	256.960933697999	257.027527802005	"26"	54596.931629243	53971.751610553	1.5	0.1
0.01	1	0.0851275120003265	1	102	NA	263.172790617005	0	0.28	4.48	1	257.261392027001	257.346519539002	"26"	54596.931629243	53971.751610553	1.5	0.1
0.01	1	0.0325718700041762	1	102	NA	263.172790617005	0	0.28	4.48	1	257.578646978	257.611218848004	"26"	54596.931629243	53971.751610553	1.5	0.1
0.01	1	0.109499858997879	1	102	NA	263.172790617005	0	0.28	4.48	1	257.845696923003	257.955196782001	"26"	54596.931629243	53971.751610553	1.5	0.1
0.01	1	0.134642653996707	1	102	NA	263.172790617005	0	0.28	4.48	1	258.179682740003	258.314325394	"26"	54596.931629243	53971.751610553	1.5	0.1
0.01	1	0.113260247999278	1	102	NA	263.172790617005	0	0.28	4.48	1	258.546926895004	258.660187143003	"26"	54596.931629243	53971.751610553	1.5	0.1
0.01	1	0.0412743019987829	1	102	NA	263.172790617005	0	0.28	4.48	1	258.897618923002	258.938893225	"26"	54596.931629243	53971.751610553	1.5	0.1
0.01	1	0.0471191360047669	1	102	NA	263.172790617005	0	0.28	4.48	1	259.164635023	259.211754159005	"26"	54596.931629243	53971.751610553	1.5	0.1
0.01	1	0.0041008089974639	1	102	NA	263.172790617005	0	0.28	4.48	1	259.448359353002	259.452460162	"26"	54596.931629243	53971.751610553	1.5	0.1
0.01	1	0.0168554659976508	1	102	NA	263.172790617005	0	0.28	4.48	1	259.682176050002	259.699031516	"26"	54596.931629243	53971.751610553	1.5	0.1
0.01	1	0.0071270709959208	1	102	NA	263.172790617005	0	0.28	4.48	1	259.932688095003	259.939815165999	"26"	54596.931629243	53971.751610553	1.5	0.1
0.01	1	0.0619100979965879	1	102	NA	263.172790617005	0	0.28	4.48	1	260.166265420004	260.228175518001	"26"	54596.931629243	53971.751610553	1.5	0.1
0.01	1	0.063568434001354	1	102	NA	263.172790617005	0	0.28	4.48	1	260.466794248001	260.530362682002	"26"	54596.931629243	53971.751610553	1.5	0.1
0.01	1	0.083765265000693	1	102	NA	263.172790617005	0	0.28	4.48	1	260.767399838005	260.851165103006	"26"	54596.931629243	53971.751610553	1.5	0.1
0.01	1	0.207730632995663	1	102	NA	263.172790617005	0	0.28	4.48	1	261.084564515004	261.292295148	"26"	54596.931629243	53971.751610553	1.5	0.1
0.01	1	0.0518102880014339	1	102	NA	263.172790617005	0	0.28	4.48	1	261.518627368001	261.570437656002	"26"	54596.931629243	53971.751610553	1.5	0.1
0.01	1	0.0324840929970378	1	102	NA	263.172790617005	0	0.28	4.48	1	261.802433855002	261.834917947999	"26"	54596.931629243	53971.751610553	1.5	0.1
0.01	1	0.0610987919935724	1	102	NA	263.172790617005	0	0.28	4.48	1	262.069561118005	262.130659909999	"26"	54596.931629243	53971.751610553	1.5	0.1
0.01	1	0.81787892000284	2	102	NA	263.172790617005	0	0.28	4.48	1	262.353352890001	263.171231810004	"26"	54596.931629243	53971.751610553	1.5	0.1
0.01	1	0.274877955998818	1	120	NA	276.437293282004	0	0.36	4.84	1	265.224829698003	265.499707654002	"27"	54596.931629243	53971.751610553	1.5	0.1
0.01	1	0.0380008680003812	1	120	NA	276.437293282004	0	0.36	4.84	1	265.725620148005	265.763621016005	"27"	54596.931629243	53971.751610553	1.5	0.1
0.01	1	0.0582184480008436	1	120	NA	276.437293282004	0	0.36	4.84	1	265.992760875	266.050979323001	"27"	54596.931629243	53971.751610553	1.5	0.1
0.01	1	0.0137417070000083	1	120	NA	276.437293282004	0	0.36	4.84	1	266.276572858005	266.290314565005	"27"	54596.931629243	53971.751610553	1.5	0.1
0.01	1	0.00208905400359072	1	120	NA	276.437293282004	0	0.36	4.84	1	266.527102100001	266.529191154004	"27"	54596.931629243	53971.751610553	1.5	0.1
0.01	1	0.00296152800001437	1	120	NA	276.437293282004	0	0.36	4.84	1	266.760756876	266.763718404	"27"	54596.931629243	53971.751610553	1.5	0.1
0.01	1	0.002747508995526	1	120	NA	276.437293282004	0	0.36	4.84	1	266.994411898006	266.997159407001	"27"	54596.931629243	53971.751610553	1.5	0.1
0.01	1	0.0787312309985282	1	120	NA	276.437293282004	0	0.36	4.84	1	267.228149333001	267.306880564	"27"	54596.931629243	53971.751610553	1.5	0.1
0.01	1	0.00402215200301725	1	120	NA	276.437293282004	0	0.36	4.84	1	267.545330428002	267.549352580005	"27"	54596.931629243	53971.751610553	1.5	0.1
0.01	1	0.00380779300030554	1	120	NA	276.437293282004	0	0.36	4.84	1	267.779061795001	267.782869588002	"27"	54596.931629243	53971.751610553	1.5	0.1
0.01	1	0.00374482900224393	1	120	NA	276.437293282004	0	0.36	4.84	1	268.012900205002	268.016645034004	"27"	54596.931629243	53971.751610553	1.5	0.1
0.01	1	0.0214351920003537	1	120	NA	276.437293282004	0	0.36	4.84	1	268.246558750005	268.267993942005	"27"	54596.931629243	53971.751610553	1.5	0.1
0.01	1	0.0269362729959539	1	120	NA	276.437293282004	0	0.36	4.84	1	268.496964335005	268.523900608001	"27"	54596.931629243	53971.751610553	1.5	0.1
0.01	1	0.0399447839954519	1	120	NA	276.437293282004	0	0.36	4.84	1	268.747447603004	268.787392386999	"27"	54596.931629243	53971.751610553	1.5	0.1
0.01	1	0.00729679699725239	1	120	NA	276.437293282004	0	0.36	4.84	1	269.014538253003	269.02183505	"27"	54596.931629243	53971.751610553	1.5	0.1
0.01	1	0.0112887629948091	1	120	NA	276.437293282004	0	0.36	4.84	1	269.248213253006	269.259502016001	"27"	54596.931629243	53971.751610553	1.5	0.1
0.01	1	0.00371948199608596	1	120	NA	276.437293282004	0	0.36	4.84	1	269.498641048005	269.502360530001	"27"	54596.931629243	53971.751610553	1.5	0.1
0.01	1	0.00221806099580135	1	120	NA	276.437293282004	0	0.36	4.84	1	269.732406143004	269.734624204	"27"	54596.931629243	53971.751610553	1.5	0.1
0.01	1	0.0207199919968843	1	120	NA	276.437293282004	0	0.36	4.84	1	269.966194970002	269.986914961999	"27"	54596.931629243	53971.751610553	1.5	0.1
0.01	1	0.0119093480025185	1	120	NA	276.437293282004	0	0.36	4.84	1	270.216608622999	270.228517971002	"27"	54596.931629243	53971.751610553	1.5	0.1
0.01	1	0.0482376959989779	1	120	NA	276.437293282004	0	0.36	4.84	1	270.467003057005	270.515240753004	"27"	54596.931629243	53971.751610553	1.5	0.1
0.01	1	0.0845281330039143	1	120	NA	276.437293282004	0	0.36	4.84	1	270.75073485	270.835262983004	"27"	54596.931629243	53971.751610553	1.5	0.1
0.01	1	0.0466146120015765	1	120	NA	276.437293282004	0	0.36	4.84	1	271.067969313001	271.114583925002	"27"	54596.931629243	53971.751610553	1.5	0.1
0.01	1	0.323109176999424	1	120	NA	276.437293282004	0	0.36	4.84	1	271.351864788005	271.674973965004	"27"	54596.931629243	53971.751610553	1.5	0.1
0.01	1	0.0690112640004372	1	120	NA	276.437293282004	0	0.36	4.84	1	271.902811073	271.971822337	"27"	54596.931629243	53971.751610553	1.5	0.1
0.01	1	0.0327169400043203	1	120	NA	276.437293282004	0	0.36	4.84	1	272.203245805002	272.235962745006	"27"	54596.931629243	53971.751610553	1.5	0.1
0.01	1	0.0378821229969617	1	120	NA	276.437293282004	0	0.36	4.84	1	272.470289928002	272.508172050999	"27"	54596.931629243	53971.751610553	1.5	0.1
0.01	1	0.0413832839985844	1	120	NA	276.437293282004	0	0.36	4.84	1	272.737501510004	272.778884794003	"27"	54596.931629243	53971.751610553	1.5	0.1
0.01	1	0.0459678979968885	1	120	NA	276.437293282004	0	0.36	4.84	1	273.004640928004	273.050608826001	"27"	54596.931629243	53971.751610553	1.5	0.1
0.01	1	0.0746963630008395	1	120	NA	276.437293282004	0	0.36	4.84	1	273.288444865	273.363141228001	"27"	54596.931629243	53971.751610553	1.5	0.1
