"payoff.level"	"balloon"	"rt"	"resp"	"explode.trial"	"explode.time"	"finish.time"	"exploded"	"trial.total"	"cumulative.total"	"finished"	"trial.start"	"trial.end"	"trial.num"	"secs"	"start.time"	"iti"	"isi"
0.01	1	3.62271539399808	1	64	NA	25.4019367529982	0	0.16	0.16	1	0.0146964870000375	3.63741188099812	"1"	41495.436191994	41493.23715403	1.5	0.1
0.01	1	0.926086099992972	1	64	NA	25.4019367529982	0	0.16	0.16	1	4.30530224700487	5.23138834699785	"1"	41495.436191994	41493.23715403	1.5	0.1
0.01	1	0.95792194599926	1	64	NA	25.4019367529982	0	0.16	0.16	1	5.45716514300148	6.41508708900074	"1"	41495.436191994	41493.23715403	1.5	0.1
0.01	1	0.836342867994972	1	64	NA	25.4019367529982	0	0.16	0.16	1	6.64247778300341	7.47882065099839	"1"	41495.436191994	41493.23715403	1.5	0.1
0.01	1	0.879990141002054	1	64	NA	25.4019367529982	0	0.16	0.16	1	7.71099094799865	8.59098108900071	"1"	41495.436191994	41493.23715403	1.5	0.1
0.01	1	1.7281345740048	1	64	NA	25.4019367529982	0	0.16	0.16	1	8.82947437799885	10.5576089520036	"1"	41495.436191994	41493.23715403	1.5	0.1
0.01	1	1.08788886399998	1	64	NA	25.4019367529982	0	0.16	0.16	1	10.7827380630042	11.8706269270042	"1"	41495.436191994	41493.23715403	1.5	0.1
0.01	1	0.904842239004211	1	64	NA	25.4019367529982	0	0.16	0.16	1	12.1016653129991	13.0065075520033	"1"	41495.436191994	41493.23715403	1.5	0.1
0.01	1	0.728617592998489	1	64	NA	25.4019367529982	0	0.16	0.16	1	13.2369941979996	13.9656117909981	"1"	41495.436191994	41493.23715403	1.5	0.1
0.01	1	0.921203249999962	1	64	NA	25.4019367529982	0	0.16	0.16	1	14.1885485910025	15.1097518410024	"1"	41495.436191994	41493.23715403	1.5	0.1
0.01	1	0.768721861000813	1	64	NA	25.4019367529982	0	0.16	0.16	1	15.340425923001	16.1091477840018	"1"	41495.436191994	41493.23715403	1.5	0.1
0.01	1	0.63989818799746	1	64	NA	25.4019367529982	0	0.16	0.16	1	16.3421686930014	16.9820668809989	"1"	41495.436191994	41493.23715403	1.5	0.1
0.01	1	0.667268736993719	1	64	NA	25.4019367529982	0	0.16	0.16	1	17.2102630900044	17.8775318269982	"1"	41495.436191994	41493.23715403	1.5	0.1
0.01	1	0.574040349005372	1	64	NA	25.4019367529982	0	0.16	0.16	1	18.1118115299978	18.6858518790032	"1"	41495.436191994	41493.23715403	1.5	0.1
0.01	1	0.685936577996472	1	64	NA	25.4019367529982	0	0.16	0.16	1	18.9130062350014	19.5989428129978	"1"	41495.436191994	41493.23715403	1.5	0.1
0.01	1	0.486952309998742	1	64	NA	25.4019367529982	0	0.16	0.16	1	19.8312852099989	20.3182375199976	"1"	41495.436191994	41493.23715403	1.5	0.1
0.01	1	4.85103697900195	2	64	NA	25.4019367529982	0	0.16	0.16	1	20.5492090190019	25.4002459980038	"1"	41495.436191994	41493.23715403	1.5	0.1
0.01	1	2.22710021000239	1	102	NA	41.4744655510003	0	0.12	0.28	1	27.4609630400009	29.6880632500033	"2"	41495.436191994	41493.23715403	1.5	0.1
0.01	1	0.660301567993884	1	102	NA	41.4744655510003	0	0.12	0.28	1	29.9150725830041	30.575374150998	"2"	41495.436191994	41493.23715403	1.5	0.1
0.01	1	0.447891835996415	1	102	NA	41.4744655510003	0	0.12	0.28	1	30.8164270030029	31.2643188389993	"2"	41495.436191994	41493.23715403	1.5	0.1
0.01	1	0.866704018000746	1	102	NA	41.4744655510003	0	0.12	0.28	1	31.5010473150032	32.367751333004	"2"	41495.436191994	41493.23715403	1.5	0.1
0.01	1	0.476573947998986	1	102	NA	41.4744655510003	0	0.12	0.28	1	32.6028299829995	33.0794039309985	"2"	41495.436191994	41493.23715403	1.5	0.1
0.01	1	0.544631589000346	1	102	NA	41.4744655510003	0	0.12	0.28	1	33.3041301300036	33.848761719004	"2"	41495.436191994	41493.23715403	1.5	0.1
0.01	1	0.4388869339964	1	102	NA	41.4744655510003	0	0.12	0.28	1	34.0886887680026	34.527575701999	"2"	41495.436191994	41493.23715403	1.5	0.1
0.01	1	0.411475786000665	1	102	NA	41.4744655510003	0	0.12	0.28	1	34.7564247690025	35.1679005550031	"2"	41495.436191994	41493.23715403	1.5	0.1
0.01	1	1.01653666199854	1	102	NA	41.4744655510003	0	0.12	0.28	1	35.3908771429997	36.4074138049982	"2"	41495.436191994	41493.23715403	1.5	0.1
0.01	1	0.485126971005229	1	102	NA	41.4744655510003	0	0.12	0.28	1	36.6429964679992	37.1281234390044	"2"	41495.436191994	41493.23715403	1.5	0.1
0.01	1	0.567457627999829	1	102	NA	41.4744655510003	0	0.12	0.28	1	37.3609255830015	37.9283832110013	"2"	41495.436191994	41493.23715403	1.5	0.1
0.01	1	0.606178615002136	1	102	NA	41.4744655510003	0	0.12	0.28	1	38.1621583680026	38.7683369830047	"2"	41495.436191994	41493.23715403	1.5	0.1
0.01	1	2.4758723269988	2	102	NA	41.4744655510003	0	0.12	0.28	1	38.9969210830022	41.472793410001	"2"	41495.436191994	41493.23715403	1.5	0.1
0.01	1	0.590210153000953	1	97	NA	55.8487814170003	0	0.16	0.44	1	43.5212221199981	44.1114322729991	"3"	41495.436191994	41493.23715403	1.5	0.1
0.01	1	0.324181506002788	1	97	NA	55.8487814170003	0	0.16	0.44	1	44.3393140330008	44.6634955390036	"3"	41495.436191994	41493.23715403	1.5	0.1
0.01	1	0.349223080003867	1	97	NA	55.8487814170003	0	0.16	0.44	1	44.8902521749987	45.2394752550026	"3"	41495.436191994	41493.23715403	1.5	0.1
0.01	1	0.260637118997693	1	97	NA	55.8487814170003	0	0.16	0.44	1	45.4745501880025	45.7351873070002	"3"	41495.436191994	41493.23715403	1.5	0.1
0.01	1	0.321467467001639	1	97	NA	55.8487814170003	0	0.16	0.44	1	45.9586633500003	46.2801308170019	"3"	41495.436191994	41493.23715403	1.5	0.1
0.01	1	0.273849989003793	1	97	NA	55.8487814170003	0	0.16	0.44	1	46.5095616489998	46.7834116380036	"3"	41495.436191994	41493.23715403	1.5	0.1
0.01	1	0.774209458002588	1	97	NA	55.8487814170003	0	0.16	0.44	1	47.0103526780003	47.7845621360029	"3"	41495.436191994	41493.23715403	1.5	0.1
0.01	1	0.388645378996443	1	97	NA	55.8487814170003	0	0.16	0.44	1	48.0121633980016	48.400808776998	"3"	41495.436191994	41493.23715403	1.5	0.1
0.01	1	0.362357167003211	1	97	NA	55.8487814170003	0	0.16	0.44	1	48.6298641629983	48.9922213300015	"3"	41495.436191994	41493.23715403	1.5	0.1
0.01	1	0.385410998002044	1	97	NA	55.8487814170003	0	0.16	0.44	1	49.2308098400026	49.6162208380047	"3"	41495.436191994	41493.23715403	1.5	0.1
0.01	1	0.847005560004618	1	97	NA	55.8487814170003	0	0.16	0.44	1	49.8484624949997	50.6954680550043	"3"	41495.436191994	41493.23715403	1.5	0.1
0.01	1	0.818054641997151	1	97	NA	55.8487814170003	0	0.16	0.44	1	50.9337762330033	51.7518308750005	"3"	41495.436191994	41493.23715403	1.5	0.1
0.01	1	0.631130989000667	1	97	NA	55.8487814170003	0	0.16	0.44	1	51.9854661930003	52.616597182001	"3"	41495.436191994	41493.23715403	1.5	0.1
0.01	1	0.443208753000363	1	97	NA	55.8487814170003	0	0.16	0.44	1	52.8535533680042	53.2967621210046	"3"	41495.436191994	41493.23715403	1.5	0.1
0.01	1	0.430431758999475	1	97	NA	55.8487814170003	0	0.16	0.44	1	53.5213915109998	53.9518232699993	"3"	41495.436191994	41493.23715403	1.5	0.1
0.01	1	0.826885615002539	1	97	NA	55.8487814170003	0	0.16	0.44	1	54.1891650530015	55.016050668004	"3"	41495.436191994	41493.23715403	1.5	0.1
0.01	1	0.606088505002845	2	97	NA	55.8487814170003	0	0.16	0.44	1	55.2410025499994	55.8470910550022	"3"	41495.436191994	41493.23715403	1.5	0.1
0.01	1	0.728340886002115	1	51	NA	72.1292700690028	0	0.18	0.62	1	57.8954191180019	58.623760004004	"4"	41495.436191994	41493.23715403	1.5	0.1
0.01	1	0.488674633998016	1	51	NA	72.1292700690028	0	0.18	0.62	1	58.8637811430017	59.3524557769997	"4"	41495.436191994	41493.23715403	1.5	0.1
0.01	1	0.497986310998385	1	51	NA	72.1292700690028	0	0.18	0.62	1	59.5815427130001	60.0795290239985	"4"	41495.436191994	41493.23715403	1.5	0.1
0.01	1	0.459945032998803	1	51	NA	72.1292700690028	0	0.18	0.62	1	60.3160776130026	60.7760226460014	"4"	41495.436191994	41493.23715403	1.5	0.1
0.01	1	0.583869343994593	1	51	NA	72.1292700690028	0	0.18	0.62	1	61.0006696690034	61.584539012998	"4"	41495.436191994	41493.23715403	1.5	0.1
0.01	1	0.493547436999506	1	51	NA	72.1292700690028	0	0.18	0.62	1	61.8186910529985	62.312238489998	"4"	41495.436191994	41493.23715403	1.5	0.1
0.01	1	0.0716302940054447	1	51	NA	72.1292700690028	0	0.18	0.62	1	62.5363611069988	62.6079914010043	"4"	41495.436191994	41493.23715403	1.5	0.1
0.01	1	0.466925486995024	1	51	NA	72.1292700690028	0	0.18	0.62	1	62.8371121380042	63.3040376249992	"4"	41495.436191994	41493.23715403	1.5	0.1
0.01	1	0.398422951999237	1	51	NA	72.1292700690028	0	0.18	0.62	1	63.5382957300026	63.9367186820018	"4"	41495.436191994	41493.23715403	1.5	0.1
0.01	1	0.4041170759956	1	51	NA	72.1292700690028	0	0.18	0.62	1	64.1726590930048	64.5767761690004	"4"	41495.436191994	41493.23715403	1.5	0.1
0.01	1	0.353525487000297	1	51	NA	72.1292700690028	0	0.18	0.62	1	64.8070482199983	65.1605737069985	"4"	41495.436191994	41493.23715403	1.5	0.1
0.01	1	0.424665857004584	1	51	NA	72.1292700690028	0	0.18	0.62	1	65.3913136929987	65.8159795500032	"4"	41495.436191994	41493.23715403	1.5	0.1
0.01	1	0.500645667998469	1	51	NA	72.1292700690028	0	0.18	0.62	1	66.0424464430034	66.5430921110019	"4"	41495.436191994	41493.23715403	1.5	0.1
0.01	1	0.71023205799429	1	51	NA	72.1292700690028	0	0.18	0.62	1	66.7770398030043	67.4872718609986	"4"	41495.436191994	41493.23715403	1.5	0.1
0.01	1	0.775615266000386	1	51	NA	72.1292700690028	0	0.18	0.62	1	67.7119136879992	68.4875289539996	"4"	41495.436191994	41493.23715403	1.5	0.1
0.01	1	0.462357172000338	1	51	NA	72.1292700690028	0	0.18	0.62	1	68.7136234830032	69.1759806550035	"4"	41495.436191994	41493.23715403	1.5	0.1
0.01	1	0.456590818997938	1	51	NA	72.1292700690028	0	0.18	0.62	1	69.4147955880035	69.8713864070014	"4"	41495.436191994	41493.23715403	1.5	0.1
0.01	1	1.275934022	1	51	NA	72.1292700690028	0	0.18	0.62	1	70.0992436279994	71.3751776499994	"4"	41495.436191994	41493.23715403	1.5	0.1
0.01	1	0.525811715997406	2	51	NA	72.1292700690028	0	0.18	0.62	1	71.6017637900004	72.1275755059978	"4"	41495.436191994	41493.23715403	1.5	0.1
0.01	1	0.178486291995796	1	116	NA	89.6981258489977	0	0.19	0.81	1	74.1728100300024	74.3512963219982	"5"	41495.436191994	41493.23715403	1.5	0.1
0.01	1	0.577892957000586	1	116	NA	89.6981258489977	0	0.19	0.81	1	74.5901631700035	75.1680561270041	"5"	41495.436191994	41493.23715403	1.5	0.1
0.01	1	0.495767738000723	1	116	NA	89.6981258489977	0	0.19	0.81	1	75.3915558200024	75.8873235580031	"5"	41495.436191994	41493.23715403	1.5	0.1
0.01	1	0.450646559002053	1	116	NA	89.6981258489977	0	0.19	0.81	1	76.1093166880019	76.5599632470039	"5"	41495.436191994	41493.23715403	1.5	0.1
0.01	1	0.613655840999854	1	116	NA	89.6981258489977	0	0.19	0.81	1	76.7938632400037	77.4075190810036	"5"	41495.436191994	41493.23715403	1.5	0.1
0.01	1	0.402954023003986	1	116	NA	89.6981258489977	0	0.19	0.81	1	77.6453116679986	78.0482656910026	"5"	41495.436191994	41493.23715403	1.5	0.1
0.01	1	0.655773304999457	1	116	NA	89.6981258489977	0	0.19	0.81	1	78.2797015500037	78.9354748550031	"5"	41495.436191994	41493.23715403	1.5	0.1
0.01	1	0.499040176997369	1	116	NA	89.6981258489977	0	0.19	0.81	1	79.1644529780024	79.6634931549997	"5"	41495.436191994	41493.23715403	1.5	0.1
0.01	1	0.428521130001172	1	116	NA	89.6981258489977	0	0.19	0.81	1	79.8991184379993	80.3276395680004	"5"	41495.436191994	41493.23715403	1.5	0.1
0.01	1	0.449377835000632	1	116	NA	89.6981258489977	0	0.19	0.81	1	80.566882993	81.0162608280007	"5"	41495.436191994	41493.23715403	1.5	0.1
0.01	1	0.627987609004776	1	116	NA	89.6981258489977	0	0.19	0.81	1	81.2513917899996	81.8793793990044	"5"	41495.436191994	41493.23715403	1.5	0.1
0.01	1	1.20034862099419	1	116	NA	89.6981258489977	0	0.19	0.81	1	82.1028369300038	83.303185550998	"5"	41495.436191994	41493.23715403	1.5	0.1
0.01	1	0.564790746000654	1	116	NA	89.6981258489977	0	0.19	0.81	1	83.5386149530023	84.1034056990029	"5"	41495.436191994	41493.23715403	1.5	0.1
0.01	1	0.556130721997761	1	116	NA	89.6981258489977	0	0.19	0.81	1	84.3399237880003	84.8960545099981	"5"	41495.436191994	41493.23715403	1.5	0.1
0.01	1	0.452358709000691	1	116	NA	89.6981258489977	0	0.19	0.81	1	85.124515137999	85.5768738469997	"5"	41495.436191994	41493.23715403	1.5	0.1
0.01	1	0.374423408997245	1	116	NA	89.6981258489977	0	0.19	0.81	1	85.8090285680009	86.1834519769982	"5"	41495.436191994	41493.23715403	1.5	0.1
0.01	1	0.517424083998776	1	116	NA	89.6981258489977	0	0.19	0.81	1	86.4100238780011	86.9274479619999	"5"	41495.436191994	41493.23715403	1.5	0.1
0.01	1	0.375259930005996	1	116	NA	89.6981258489977	0	0.19	0.81	1	87.1615092479988	87.5367691780048	"5"	41495.436191994	41493.23715403	1.5	0.1
0.01	1	0.430115173003287	1	116	NA	89.6981258489977	0	0.19	0.81	1	87.7623160349976	88.1924312080009	"5"	41495.436191994	41493.23715403	1.5	0.1
0.01	1	1.26638016200013	2	116	NA	89.6981258489977	0	0.19	0.81	1	88.4302234729985	89.6966036349986	"5"	41495.436191994	41493.23715403	1.5	0.1
0.01	1	0.215010809995874	1	118	NA	109.208782622001	0	0.25	1.06	1	91.7523522820047	91.9673630920006	"6"	41495.436191994	41493.23715403	1.5	0.1
0.01	1	0.484609903003729	1	118	NA	109.208782622001	0	0.25	1.06	1	92.203148998	92.6877589010037	"6"	41495.436191994	41493.23715403	1.5	0.1
0.01	1	0.270618243994249	1	118	NA	109.208782622001	0	0.25	1.06	1	92.9210834000041	93.1917016439984	"6"	41495.436191994	41493.23715403	1.5	0.1
0.01	1	0.642510235004011	1	118	NA	109.208782622001	0	0.25	1.06	1	93.4219495680009	94.0644598030049	"6"	41495.436191994	41493.23715403	1.5	0.1
0.01	1	0.342593565997959	1	118	NA	109.208782622001	0	0.25	1.06	1	94.2899954780005	94.6325890439985	"6"	41495.436191994	41493.23715403	1.5	0.1
0.01	1	0.414070730999811	1	118	NA	109.208782622001	0	0.25	1.06	1	94.8576118650017	95.2716825960015	"6"	41495.436191994	41493.23715403	1.5	0.1
0.01	1	0.403874859999632	1	118	NA	109.208782622001	0	0.25	1.06	1	95.5086679480009	95.9125428080006	"6"	41495.436191994	41493.23715403	1.5	0.1
0.01	1	0.345563137998397	1	118	NA	109.208782622001	0	0.25	1.06	1	96.143075633001	96.4886387709994	"6"	41495.436191994	41493.23715403	1.5	0.1
0.01	1	0.385275884000293	1	118	NA	109.208782622001	0	0.25	1.06	1	96.7106886879992	97.0959645719995	"6"	41495.436191994	41493.23715403	1.5	0.1
0.01	1	0.663487343997986	1	118	NA	109.208782622001	0	0.25	1.06	1	97.3285055570013	97.9919929009993	"6"	41495.436191994	41493.23715403	1.5	0.1
0.01	1	0.330243774995324	1	118	NA	109.208782622001	0	0.25	1.06	1	98.2298804950042	98.5601242699995	"6"	41495.436191994	41493.23715403	1.5	0.1
0.01	1	0.426422696997179	1	118	NA	109.208782622001	0	0.25	1.06	1	98.7976297050045	99.2240524020017	"6"	41495.436191994	41493.23715403	1.5	0.1
0.01	1	0.408266671998717	1	118	NA	109.208782622001	0	0.25	1.06	1	99.4487057730003	99.856972444999	"6"	41495.436191994	41493.23715403	1.5	0.1
0.01	1	0.42170725500182	1	118	NA	109.208782622001	0	0.25	1.06	1	100.083068669002	100.504775924004	"6"	41495.436191994	41493.23715403	1.5	0.1
0.01	1	0.409418581999489	1	118	NA	109.208782622001	0	0.25	1.06	1	100.734251852999	101.143670434998	"6"	41495.436191994	41493.23715403	1.5	0.1
0.01	1	0.503581769997254	1	118	NA	109.208782622001	0	0.25	1.06	1	101.368426859	101.872008628998	"6"	41495.436191994	41493.23715403	1.5	0.1
0.01	1	0.384010442001454	1	118	NA	109.208782622001	0	0.25	1.06	1	102.103136179998	102.487146621999	"6"	41495.436191994	41493.23715403	1.5	0.1
0.01	1	0.535783293998975	1	118	NA	109.208782622001	0	0.25	1.06	1	102.720714645002	103.256497939001	"6"	41495.436191994	41493.23715403	1.5	0.1
0.01	1	0.43875003499852	1	118	NA	109.208782622001	0	0.25	1.06	1	103.488742610003	103.927492645002	"6"	41495.436191994	41493.23715403	1.5	0.1
0.01	1	0.395523888000753	1	118	NA	109.208782622001	0	0.25	1.06	1	104.156555513	104.552079401001	"6"	41495.436191994	41493.23715403	1.5	0.1
0.01	1	0.385587938995741	1	118	NA	109.208782622001	0	0.25	1.06	1	104.774332188004	105.159920127	"6"	41495.436191994	41493.23715403	1.5	0.1
0.01	1	0.623425645004318	1	118	NA	109.208782622001	0	0.25	1.06	1	105.392058452999	106.015484098003	"6"	41495.436191994	41493.23715403	1.5	0.1
0.01	1	0.540656566001417	1	118	NA	109.208782622001	0	0.25	1.06	1	106.243471362999	106.784127929001	"6"	41495.436191994	41493.23715403	1.5	0.1
0.01	1	0.468697705000523	1	118	NA	109.208782622001	0	0.25	1.06	1	107.011344972998	107.480042677998	"6"	41495.436191994	41493.23715403	1.5	0.1
0.01	1	0.47918759300228	1	118	NA	109.208782622001	0	0.25	1.06	1	107.712547381998	108.191734975	"6"	41495.436191994	41493.23715403	1.5	0.1
0.01	1	0.776739638997242	2	118	NA	109.208782622001	0	0.25	1.06	1	108.430470003004	109.207209642002	"6"	41495.436191994	41493.23715403	1.5	0.1
0.01	1	0.00454182700195815	1	87	NA	123.144855580002	0	0.17	1.23	1	111.235219053	111.239760880002	"7"	41495.436191994	41493.23715403	1.5	0.1
0.01	1	0.266349044002709	1	87	NA	123.144855580002	0	0.17	1.23	1	111.468895837999	111.735244882002	"7"	41495.436191994	41493.23715403	1.5	0.1
0.01	1	0.342952783001238	1	87	NA	123.144855580002	0	0.17	1.23	1	111.969691507999	112.312644291	"7"	41495.436191994	41493.23715403	1.5	0.1
0.01	1	0.38307188500039	1	87	NA	123.144855580002	0	0.17	1.23	1	112.537394239	112.920466124	"7"	41495.436191994	41493.23715403	1.5	0.1
0.01	1	0.436570350000693	1	87	NA	123.144855580002	0	0.17	1.23	1	113.155050663001	113.591621013002	"7"	41495.436191994	41493.23715403	1.5	0.1
0.01	1	0.456475581995619	1	87	NA	123.144855580002	0	0.17	1.23	1	113.822912608004	114.27938819	"7"	41495.436191994	41493.23715403	1.5	0.1
0.01	1	0.477509143005591	1	87	NA	123.144855580002	0	0.17	1.23	1	114.507290977999	114.984800121005	"7"	41495.436191994	41493.23715403	1.5	0.1
0.01	1	0.40720672399766	1	87	NA	123.144855580002	0	0.17	1.23	1	115.225198738	115.632405461998	"7"	41495.436191994	41493.23715403	1.5	0.1
0.01	1	0.380936631998338	1	87	NA	123.144855580002	0	0.17	1.23	1	115.859557433003	116.240494065001	"7"	41495.436191994	41493.23715403	1.5	0.1
0.01	1	0.411473529995419	1	87	NA	123.144855580002	0	0.17	1.23	1	116.477254668003	116.888728197999	"7"	41495.436191994	41493.23715403	1.5	0.1
0.01	1	0.407793509999465	1	87	NA	123.144855580002	0	0.17	1.23	1	117.111734315004	117.519527825003	"7"	41495.436191994	41493.23715403	1.5	0.1
0.01	1	0.549877696001204	1	87	NA	123.144855580002	0	0.17	1.23	1	117.74616214	118.296039836001	"7"	41495.436191994	41493.23715403	1.5	0.1
0.01	1	0.740691065002466	1	87	NA	123.144855580002	0	0.17	1.23	1	118.530819282998	119.271510348	"7"	41495.436191994	41493.23715403	1.5	0.1
0.01	1	0.356098886004474	1	87	NA	123.144855580002	0	0.17	1.23	1	119.498995032998	119.855093919003	"7"	41495.436191994	41493.23715403	1.5	0.1
0.01	1	0.332801783006289	1	87	NA	123.144855580002	0	0.17	1.23	1	120.083388307998	120.416190091004	"7"	41495.436191994	41493.23715403	1.5	0.1
0.01	1	0.789122959999077	1	87	NA	123.144855580002	0	0.17	1.23	1	120.651033283	121.440156242999	"7"	41495.436191994	41493.23715403	1.5	0.1
0.01	1	0.786327459994936	1	87	NA	123.144855580002	0	0.17	1.23	1	121.669495858005	122.455823318	"7"	41495.436191994	41493.23715403	1.5	0.1
0.01	1	0.455394534998049	2	87	NA	123.144855580002	0	0.17	1.23	1	122.687772190002	123.143166725	"7"	41495.436191994	41493.23715403	1.5	0.1
0.01	1	0.0045118400012143	1	6	128.634041552999	NA	1	0	1.23	1	125.175228282998	125.179740123	"8"	41495.436191994	41493.23715403	1.5	0.1
0.01	1	0.478467328000988	1	6	128.634041552999	NA	1	0	1.23	1	125.409065883003	125.887533211004	"8"	41495.436191994	41493.23715403	1.5	0.1
0.01	1	0.489372183998057	1	6	128.634041552999	NA	1	0	1.23	1	126.126837638003	126.616209822001	"8"	41495.436191994	41493.23715403	1.5	0.1
0.01	1	0.436160536002717	1	6	128.634041552999	NA	1	0	1.23	1	126.844770110001	127.280930646004	"8"	41495.436191994	41493.23715403	1.5	0.1
0.01	1	0.350654231995577	1	6	128.634041552999	NA	1	0	1.23	1	127.512694593002	127.863348824998	"8"	41495.436191994	41493.23715403	1.5	0.1
0.01	1	0.424204444003408	1	6	128.634041552999	NA	1	0	1.23	1	128.09682092	128.521025364003	"8"	41495.436191994	41493.23715403	1.5	0.1
0.01	1	1.59483266199823	1	106	NA	142.098087017002	0	0.12	1.35	1	130.684569090001	132.279401751999	"9"	41495.436191994	41493.23715403	1.5	0.1
0.01	1	1.22332509099942	1	106	NA	142.098087017002	0	0.12	1.35	1	132.504363227999	133.727688318999	"9"	41495.436191994	41493.23715403	1.5	0.1
0.01	1	0.571966217001318	1	106	NA	142.098087017002	0	0.12	1.35	1	133.956690255	134.528656472001	"9"	41495.436191994	41493.23715403	1.5	0.1
0.01	1	0.490064525998605	1	106	NA	142.098087017002	0	0.12	1.35	1	134.758115003002	135.248179529	"9"	41495.436191994	41493.23715403	1.5	0.1
0.01	1	0.452667772995483	1	106	NA	142.098087017002	0	0.12	1.35	1	135.475967518003	135.928635290998	"9"	41495.436191994	41493.23715403	1.5	0.1
0.01	1	0.00390334399708081	1	106	NA	142.098087017002	0	0.12	1.35	1	136.160430743003	136.164334087	"9"	41495.436191994	41493.23715403	1.5	0.1
0.01	1	0.158900531001564	1	106	NA	142.098087017002	0	0.12	1.35	1	136.394217487999	136.553118019001	"9"	41495.436191994	41493.23715403	1.5	0.1
0.01	1	0.382282141996257	1	106	NA	142.098087017002	0	0.12	1.35	1	136.778244213005	137.160526355001	"9"	41495.436191994	41493.23715403	1.5	0.1
0.01	1	0.340006995000294	1	106	NA	142.098087017002	0	0.12	1.35	1	137.395908578001	137.735915573001	"9"	41495.436191994	41493.23715403	1.5	0.1
0.01	1	0.548805954000272	1	106	NA	142.098087017002	0	0.12	1.35	1	137.963431545002	138.512237499002	"9"	41495.436191994	41493.23715403	1.5	0.1
0.01	1	1.81937204499991	1	106	NA	142.098087017002	0	0.12	1.35	1	138.748064003004	140.567436048004	"9"	41495.436191994	41493.23715403	1.5	0.1
0.01	1	0.598110473998531	1	106	NA	142.098087017002	0	0.12	1.35	1	140.801547929004	141.399658403003	"9"	41495.436191994	41493.23715403	1.5	0.1
0.01	1	0.460221277004166	2	106	NA	142.098087017002	0	0.12	1.35	1	141.636357650001	142.096578927005	"9"	41495.436191994	41493.23715403	1.5	0.1
0.01	1	0.00382021399855148	1	21	NA	155.433579745004	0	0.13	1.48	1	144.140520433	144.144340646999	"10"	41495.436191994	41493.23715403	1.5	0.1
0.01	1	0.20982656799606	1	21	NA	155.433579745004	0	0.13	1.48	1	144.374236125004	144.584062693	"10"	41495.436191994	41493.23715403	1.5	0.1
0.01	1	0.431865231999836	1	21	NA	155.433579745004	0	0.13	1.48	1	144.808387278004	145.240252510004	"10"	41495.436191994	41493.23715403	1.5	0.1
0.01	1	0.436548012999992	1	21	NA	155.433579745004	0	0.13	1.48	1	145.476059385001	145.912607398001	"10"	41495.436191994	41493.23715403	1.5	0.1
0.01	1	0.895283273996029	1	21	NA	155.433579745004	0	0.13	1.48	1	146.143945608004	147.039228882	"10"	41495.436191994	41493.23715403	1.5	0.1
0.01	1	0.680469787999755	1	21	NA	155.433579745004	0	0.13	1.48	1	147.279130276002	147.959600064001	"10"	41495.436191994	41493.23715403	1.5	0.1
0.01	1	0.626403540998581	1	21	NA	155.433579745004	0	0.13	1.48	1	148.197300903004	148.823704444003	"10"	41495.436191994	41493.23715403	1.5	0.1
0.01	1	1.50278705499659	1	21	NA	155.433579745004	0	0.13	1.48	1	149.048773738003	150.551560792999	"10"	41495.436191994	41493.23715403	1.5	0.1
0.01	1	0.6712619500031	1	21	NA	155.433579745004	0	0.13	1.48	1	150.785092042999	151.456353993002	"10"	41495.436191994	41493.23715403	1.5	0.1
0.01	1	0.618383059001644	1	21	NA	155.433579745004	0	0.13	1.48	1	151.686568138	152.304951197002	"10"	41495.436191994	41493.23715403	1.5	0.1
0.01	1	0.518452978001733	1	21	NA	155.433579745004	0	0.13	1.48	1	152.538063088003	153.056516066004	"10"	41495.436191994	41493.23715403	1.5	0.1
0.01	1	0.487106138003583	1	21	NA	155.433579745004	0	0.13	1.48	1	153.289204234999	153.776310373003	"10"	41495.436191994	41493.23715403	1.5	0.1
0.01	1	0.75223565500346	1	21	NA	155.433579745004	0	0.13	1.48	1	154.007200043001	154.759435698004	"10"	41495.436191994	41493.23715403	1.5	0.1
0.01	1	0.439841649997106	2	21	NA	155.433579745004	0	0.13	1.48	1	154.992192930004	155.432034580001	"10"	41495.436191994	41493.23715403	1.5	0.1
0.01	1	0.81554666699958	1	19	NA	170.218643669003	0	0.14	1.62	1	157.479696118004	158.295242785003	"11"	41495.436191994	41493.23715403	1.5	0.1
0.01	1	0.653437854998629	1	19	NA	170.218643669003	0	0.14	1.62	1	158.531448697002	159.184886552001	"11"	41495.436191994	41493.23715403	1.5	0.1
0.01	1	0.543569173998549	1	19	NA	170.218643669003	0	0.14	1.62	1	159.416232695003	159.959801869001	"11"	41495.436191994	41493.23715403	1.5	0.1
0.01	1	0.791303967002023	1	19	NA	170.218643669003	0	0.14	1.62	1	160.184283563001	160.975587530003	"11"	41495.436191994	41493.23715403	1.5	0.1
0.01	1	0.781364491005661	1	19	NA	170.218643669003	0	0.14	1.62	1	161.202575989999	161.983940481005	"11"	41495.436191994	41493.23715403	1.5	0.1
0.01	1	0.427138191000267	1	19	NA	170.218643669003	0	0.14	1.62	1	162.220947269998	162.648085460998	"11"	41495.436191994	41493.23715403	1.5	0.1
0.01	1	0.576468360006402	1	19	NA	170.218643669003	0	0.14	1.62	1	162.872091049998	163.448559410004	"11"	41495.436191994	41493.23715403	1.5	0.1
0.01	1	0.686951586001669	1	19	NA	170.218643669003	0	0.14	1.62	1	163.673427670001	164.360379256002	"11"	41495.436191994	41493.23715403	1.5	0.1
0.01	1	0.41686443999788	1	19	NA	170.218643669003	0	0.14	1.62	1	164.591667430002	165.00853187	"11"	41495.436191994	41493.23715403	1.5	0.1
0.01	1	0.485426755003573	1	19	NA	170.218643669003	0	0.14	1.62	1	165.242815657999	165.728242413003	"11"	41495.436191994	41493.23715403	1.5	0.1
0.01	1	0.406891010003164	1	19	NA	170.218643669003	0	0.14	1.62	1	165.960531648001	166.367422658004	"11"	41495.436191994	41493.23715403	1.5	0.1
0.01	1	1.02100096700451	1	19	NA	170.218643669003	0	0.14	1.62	1	166.595037612999	167.616038580003	"11"	41495.436191994	41493.23715403	1.5	0.1
0.01	1	0.66545793399564	1	19	NA	170.218643669003	0	0.14	1.62	1	167.847188035004	168.512645969	"11"	41495.436191994	41493.23715403	1.5	0.1
0.01	1	0.563594601000659	1	19	NA	170.218643669003	0	0.14	1.62	1	168.748682302998	169.312276903998	"11"	41495.436191994	41493.23715403	1.5	0.1
0.01	1	0.667068134003785	2	19	NA	170.218643669003	0	0.14	1.62	1	169.549999978	170.217068112004	"11"	41495.436191994	41493.23715403	1.5	0.1
0.01	1	0.152177673000551	1	63	NA	185.890117305004	0	0.19	1.81	1	172.271278788001	172.423456461001	"12"	41495.436191994	41493.23715403	1.5	0.1
0.01	1	0.497204007995606	1	63	NA	185.890117305004	0	0.19	1.81	1	172.655204813003	173.152408820999	"12"	41495.436191994	41493.23715403	1.5	0.1
0.01	1	0.322413824003888	1	63	NA	185.890117305004	0	0.19	1.81	1	173.389742248	173.712156072004	"12"	41495.436191994	41493.23715403	1.5	0.1
0.01	1	0.436239096998179	1	63	NA	185.890117305004	0	0.19	1.81	1	173.940687203001	174.376926299999	"12"	41495.436191994	41493.23715403	1.5	0.1
0.01	1	0.568361753998033	1	63	NA	185.890117305004	0	0.19	1.81	1	174.608450853004	175.176812607002	"12"	41495.436191994	41493.23715403	1.5	0.1
0.01	1	0.285837101000652	1	63	NA	185.890117305004	0	0.19	1.81	1	175.409889679999	175.695726780999	"12"	41495.436191994	41493.23715403	1.5	0.1
0.01	1	0.360742659999232	1	63	NA	185.890117305004	0	0.19	1.81	1	175.927416428	176.288159087999	"12"	41495.436191994	41493.23715403	1.5	0.1
0.01	1	0.575464057998033	1	63	NA	185.890117305004	0	0.19	1.81	1	176.511676713002	177.087140771	"12"	41495.436191994	41493.23715403	1.5	0.1
0.01	1	0.45463621700037	1	63	NA	185.890117305004	0	0.19	1.81	1	177.313023007999	177.767659224999	"12"	41495.436191994	41493.23715403	1.5	0.1
0.01	1	0.417853821003519	1	63	NA	185.890117305004	0	0.19	1.81	1	177.99750297	178.415356791003	"12"	41495.436191994	41493.23715403	1.5	0.1
0.01	1	0.488294766000763	1	63	NA	185.890117305004	0	0.19	1.81	1	178.648616298	179.136911064001	"12"	41495.436191994	41493.23715403	1.5	0.1
0.01	1	0.00393582299875561	1	63	NA	185.890117305004	0	0.19	1.81	1	179.366455328003	179.370391151002	"12"	41495.436191994	41493.23715403	1.5	0.1
0.01	1	0.568948428001022	1	63	NA	185.890117305004	0	0.19	1.81	1	179.600138790003	180.169087218004	"12"	41495.436191994	41493.23715403	1.5	0.1
0.01	1	0.463581351999892	1	63	NA	185.890117305004	0	0.19	1.81	1	180.401508493	180.865089845	"12"	41495.436191994	41493.23715403	1.5	0.1
0.01	1	0.426057356999081	1	63	NA	185.890117305004	0	0.19	1.81	1	181.102808413001	181.52886577	"12"	41495.436191994	41493.23715403	1.5	0.1
0.01	1	0.702964150004846	1	63	NA	185.890117305004	0	0.19	1.81	1	181.753804537999	182.456768688004	"12"	41495.436191994	41493.23715403	1.5	0.1
0.01	1	0.647402066999348	1	63	NA	185.890117305004	0	0.19	1.81	1	182.688772383	183.33617445	"12"	41495.436191994	41493.23715403	1.5	0.1
0.01	1	0.691392953995091	1	63	NA	185.890117305004	0	0.19	1.81	1	183.573590493004	184.264983446999	"12"	41495.436191994	41493.23715403	1.5	0.1
0.01	1	0.812068525003269	1	63	NA	185.890117305004	0	0.19	1.81	1	184.491739213001	185.303807738004	"12"	41495.436191994	41493.23715403	1.5	0.1
0.01	1	0.361609305000457	2	63	NA	185.890117305004	0	0.19	1.81	1	185.526958253002	185.888567558002	"12"	41495.436191994	41493.23715403	1.5	0.1
0.01	1	0.428655465002521	1	54	NA	203.737448066	0	0.2	2.01	1	187.947562417998	188.376217883	"13"	41495.436191994	41493.23715403	1.5	0.1
0.01	1	0.304734756995458	1	54	NA	203.737448066	0	0.2	2.01	1	188.615486918003	188.920221674998	"13"	41495.436191994	41493.23715403	1.5	0.1
0.01	1	0.682541344001947	1	54	NA	203.737448066	0	0.2	2.01	1	189.149585749998	189.832127094	"13"	41495.436191994	41493.23715403	1.5	0.1
0.01	1	0.379618559003575	1	54	NA	203.737448066	0	0.2	2.01	1	190.067789387998	190.447407947002	"13"	41495.436191994	41493.23715403	1.5	0.1
0.01	1	0.426871905998269	1	54	NA	203.737448066	0	0.2	2.01	1	190.668841673003	191.095713579001	"13"	41495.436191994	41493.23715403	1.5	0.1
0.01	1	0.448027001002629	1	54	NA	203.737448066	0	0.2	2.01	1	191.320009401999	191.768036403002	"13"	41495.436191994	41493.23715403	1.5	0.1
0.01	1	0.499361347996455	1	54	NA	203.737448066	0	0.2	2.01	1	192.004396283002	192.503757630999	"13"	41495.436191994	41493.23715403	1.5	0.1
0.01	1	0.429671129997587	1	54	NA	203.737448066	0	0.2	2.01	1	192.739020733003	193.168691863	"13"	41495.436191994	41493.23715403	1.5	0.1
0.01	1	0.368824913995923	1	54	NA	203.737448066	0	0.2	2.01	1	193.406770188005	193.775595102001	"13"	41495.436191994	41493.23715403	1.5	0.1
0.01	1	0.472591575002298	1	54	NA	203.737448066	0	0.2	2.01	1	194.007744857998	194.480336433	"13"	41495.436191994	41493.23715403	1.5	0.1
0.01	1	0.426278656996146	1	54	NA	203.737448066	0	0.2	2.01	1	194.708982233002	195.135260889998	"13"	41495.436191994	41493.23715403	1.5	0.1
0.01	1	0.487902285000018	1	54	NA	203.737448066	0	0.2	2.01	1	195.376847113002	195.864749398002	"13"	41495.436191994	41493.23715403	1.5	0.1
0.01	1	0.698345452998183	1	54	NA	203.737448066	0	0.2	2.01	1	196.094662123003	196.793007576001	"13"	41495.436191994	41493.23715403	1.5	0.1
0.01	1	1.21847870000056	1	54	NA	203.737448066	0	0.2	2.01	1	197.029503878002	198.247982578003	"13"	41495.436191994	41493.23715403	1.5	0.1
0.01	1	0.495209861997864	1	54	NA	203.737448066	0	0.2	2.01	1	198.482007908002	198.97721777	"13"	41495.436191994	41493.23715403	1.5	0.1
0.01	1	0.857014055000036	1	54	NA	203.737448066	0	0.2	2.01	1	199.199894523001	200.056908578001	"13"	41495.436191994	41493.23715403	1.5	0.1
0.01	1	0.666947516998334	1	54	NA	203.737448066	0	0.2	2.01	1	200.285094078004	200.952041595003	"13"	41495.436191994	41493.23715403	1.5	0.1
0.01	1	0.558129151002504	1	54	NA	203.737448066	0	0.2	2.01	1	201.186549988	201.744679139003	"13"	41495.436191994	41493.23715403	1.5	0.1
0.01	1	0.484612954998738	1	54	NA	203.737448066	0	0.2	2.01	1	201.971152083002	202.455765038001	"13"	41495.436191994	41493.23715403	1.5	0.1
0.01	1	0.55958116799593	1	54	NA	203.737448066	0	0.2	2.01	1	202.689188980003	203.248770147999	"13"	41495.436191994	41493.23715403	1.5	0.1
0.01	1	0.262086262999219	2	54	NA	203.737448066	0	0.2	2.01	1	203.473810830001	203.735897093	"13"	41495.436191994	41493.23715403	1.5	0.1
0.01	1	0.423333735998312	1	103	NA	219.530060247998	0	0.21	2.22	1	205.760914748003	206.184248484002	"14"	41495.436191994	41493.23715403	1.5	0.1
0.01	1	0.404720990001806	1	103	NA	219.530060247998	0	0.21	2.22	1	206.412011027998	206.816732018	"14"	41495.436191994	41493.23715403	1.5	0.1
0.01	1	0.360929958005727	1	103	NA	219.530060247998	0	0.21	2.22	1	207.046350379998	207.407280338004	"14"	41495.436191994	41493.23715403	1.5	0.1
0.01	1	0.376272467998206	1	103	NA	219.530060247998	0	0.21	2.22	1	207.647302463003	208.023574931001	"14"	41495.436191994	41493.23715403	1.5	0.1
0.01	1	0.36694019800052	1	103	NA	219.530060247998	0	0.21	2.22	1	208.248387899999	208.615328098	"14"	41495.436191994	41493.23715403	1.5	0.1
0.01	1	0.391274963003525	1	103	NA	219.530060247998	0	0.21	2.22	1	208.849510048	209.240785011003	"14"	41495.436191994	41493.23715403	1.5	0.1
0.01	1	0.36454545599554	1	103	NA	219.530060247998	0	0.21	2.22	1	209.467176723003	209.831722178998	"14"	41495.436191994	41493.23715403	1.5	0.1
0.01	1	0.692030831996817	1	103	NA	219.530060247998	0	0.21	2.22	1	210.068125538004	210.760156370001	"14"	41495.436191994	41493.23715403	1.5	0.1
0.01	1	0.34241994000331	1	103	NA	219.530060247998	0	0.21	2.22	1	210.986423538001	211.328843478004	"14"	41495.436191994	41493.23715403	1.5	0.1
0.01	1	0.365506501999334	1	103	NA	219.530060247998	0	0.21	2.22	1	211.553951583002	211.919458085002	"14"	41495.436191994	41493.23715403	1.5	0.1
0.01	1	0.389614611995057	1	103	NA	219.530060247998	0	0.21	2.22	1	212.155097398005	212.54471201	"14"	41495.436191994	41493.23715403	1.5	0.1
0.01	1	0.380271318004816	1	103	NA	219.530060247998	0	0.21	2.22	1	212.772642117998	213.152913436003	"14"	41495.436191994	41493.23715403	1.5	0.1
0.01	1	0.386149486002978	1	103	NA	219.530060247998	0	0.21	2.22	1	213.390448373	213.776597859003	"14"	41495.436191994	41493.23715403	1.5	0.1
0.01	1	0.320733765998739	1	103	NA	219.530060247998	0	0.21	2.22	1	214.008112891002	214.328846657001	"14"	41495.436191994	41493.23715403	1.5	0.1
0.01	1	0.41789897900162	1	103	NA	219.530060247998	0	0.21	2.22	1	214.559112882998	214.977011862	"14"	41495.436191994	41493.23715403	1.5	0.1
0.01	1	0.404866548000427	1	103	NA	219.530060247998	0	0.21	2.22	1	215.210247702998	215.615114250999	"14"	41495.436191994	41493.23715403	1.5	0.1
0.01	1	0.434584233000351	1	103	NA	219.530060247998	0	0.21	2.22	1	215.844590423003	216.279174656003	"14"	41495.436191994	41493.23715403	1.5	0.1
0.01	1	0.408153136995679	1	103	NA	219.530060247998	0	0.21	2.22	1	216.512345993004	216.920499129999	"14"	41495.436191994	41493.23715403	1.5	0.1
0.01	1	0.422140028000285	1	103	NA	219.530060247998	0	0.21	2.22	1	217.146799271999	217.568939299999	"14"	41495.436191994	41493.23715403	1.5	0.1
0.01	1	0.385878100001719	1	103	NA	219.530060247998	0	0.21	2.22	1	217.797786698	218.183664798002	"14"	41495.436191994	41493.23715403	1.5	0.1
0.01	1	0.375955367999268	1	103	NA	219.530060247998	0	0.21	2.22	1	218.415491893	218.791447260999	"14"	41495.436191994	41493.23715403	1.5	0.1
0.01	1	0.511975641005847	2	103	NA	219.530060247998	0	0.21	2.22	1	219.016537759999	219.528513401005	"14"	41495.436191994	41493.23715403	1.5	0.1
0.01	1	0.334816559996398	1	120	NA	238.737785333004	0	0.24	2.46	1	221.554181418003	221.888997978	"15"	41495.436191994	41493.23715403	1.5	0.1
0.01	1	0.406833391003602	1	120	NA	238.737785333004	0	0.24	2.46	1	222.121718802999	222.528552194002	"15"	41495.436191994	41493.23715403	1.5	0.1
0.01	1	0.406593650004652	1	120	NA	238.737785333004	0	0.24	2.46	1	222.756274719999	223.162868370004	"15"	41495.436191994	41493.23715403	1.5	0.1
0.01	1	0.280738769004529	1	120	NA	238.737785333004	0	0.24	2.46	1	223.390559389998	223.671298159003	"15"	41495.436191994	41493.23715403	1.5	0.1
0.01	1	0.428959759999998	1	120	NA	238.737785333004	0	0.24	2.46	1	223.908069523	224.337029283	"15"	41495.436191994	41493.23715403	1.5	0.1
0.01	1	0.352608916997269	1	120	NA	238.737785333004	0	0.24	2.46	1	224.559170708002	224.911779624999	"15"	41495.436191994	41493.23715403	1.5	0.1
0.01	1	0.344792798001436	1	120	NA	238.737785333004	0	0.24	2.46	1	225.143578413001	225.488371211002	"15"	41495.436191994	41493.23715403	1.5	0.1
0.01	1	0.418055761998403	1	120	NA	238.737785333004	0	0.24	2.46	1	225.711037770001	226.129093531999	"15"	41495.436191994	41493.23715403	1.5	0.1
0.01	1	0.398068968999723	1	120	NA	238.737785333004	0	0.24	2.46	1	226.362318192005	226.760387161004	"15"	41495.436191994	41493.23715403	1.5	0.1
0.01	1	0.388073973997962	1	120	NA	238.737785333004	0	0.24	2.46	1	226.996669888002	227.384743862	"15"	41495.436191994	41493.23715403	1.5	0.1
0.01	1	0.569521264005743	1	120	NA	238.737785333004	0	0.24	2.46	1	227.614296774998	228.183818039004	"15"	41495.436191994	41493.23715403	1.5	0.1
0.01	1	0.39221772000019	1	120	NA	238.737785333004	0	0.24	2.46	1	228.415694888005	228.807912608005	"15"	41495.436191994	41493.23715403	1.5	0.1
0.01	1	0.463975476995984	1	120	NA	238.737785333004	0	0.24	2.46	1	229.033290655003	229.497266131999	"15"	41495.436191994	41493.23715403	1.5	0.1
0.01	1	0.449189823993947	1	120	NA	238.737785333004	0	0.24	2.46	1	229.734636835004	230.183826658998	"15"	41495.436191994	41493.23715403	1.5	0.1
0.01	1	0.469768732997181	1	120	NA	238.737785333004	0	0.24	2.46	1	230.419062318004	230.888831051001	"15"	41495.436191994	41493.23715403	1.5	0.1
0.01	1	0.544105583998316	1	120	NA	238.737785333004	0	0.24	2.46	1	231.120249799002	231.664355383	"15"	41495.436191994	41493.23715403	1.5	0.1
0.01	1	0.439663898003346	1	120	NA	238.737785333004	0	0.24	2.46	1	231.904961093001	232.344624991005	"15"	41495.436191994	41493.23715403	1.5	0.1
0.01	1	0.484014688998286	1	120	NA	238.737785333004	0	0.24	2.46	1	232.572682190003	233.056696879001	"15"	41495.436191994	41493.23715403	1.5	0.1
0.01	1	0.470496550995449	1	120	NA	238.737785333004	0	0.24	2.46	1	233.290588699005	233.76108525	"15"	41495.436191994	41493.23715403	1.5	0.1
0.01	1	0.472274334999383	1	120	NA	238.737785333004	0	0.24	2.46	1	233.991770013003	234.464044348002	"15"	41495.436191994	41493.23715403	1.5	0.1
0.01	1	0.466903161999653	1	120	NA	238.737785333004	0	0.24	2.46	1	234.692998010003	235.159901172003	"15"	41495.436191994	41493.23715403	1.5	0.1
0.01	1	0.486148723997758	1	120	NA	238.737785333004	0	0.24	2.46	1	235.394213993	235.880362716998	"15"	41495.436191994	41493.23715403	1.5	0.1
0.01	1	0.37618528099847	1	120	NA	238.737785333004	0	0.24	2.46	1	236.111981798	236.488167078998	"15"	41495.436191994	41493.23715403	1.5	0.1
0.01	1	1.48621708599967	1	120	NA	238.737785333004	0	0.24	2.46	1	236.713031653002	238.199248739002	"15"	41495.436191994	41493.23715403	1.5	0.1
0.01	1	0.30367034200026	2	120	NA	238.737785333004	0	0.24	2.46	1	238.432562808004	238.736233150004	"15"	41495.436191994	41493.23715403	1.5	0.1
0.01	1	0.349755046998325	1	109	NA	255.840897335002	0	0.25	2.71	1	240.769848648	241.119603694999	"16"	41495.436191994	41493.23715403	1.5	0.1
0.01	1	0.309801283001434	1	109	NA	255.840897335002	0	0.25	2.71	1	241.354119333002	241.663920616003	"16"	41495.436191994	41493.23715403	1.5	0.1
0.01	1	0.288063184998464	1	109	NA	255.840897335002	0	0.25	2.71	1	241.888424233002	242.176487418001	"16"	41495.436191994	41493.23715403	1.5	0.1
0.01	1	0.441341689998808	1	109	NA	255.840897335002	0	0.25	2.71	1	242.405889040005	242.847230730004	"16"	41495.436191994	41493.23715403	1.5	0.1
0.01	1	0.325822812999832	1	109	NA	255.840897335002	0	0.25	2.71	1	243.073718621999	243.399541434999	"16"	41495.436191994	41493.23715403	1.5	0.1
0.01	1	0.312185256996599	1	109	NA	255.840897335002	0	0.25	2.71	1	243.624606158002	243.936791414999	"16"	41495.436191994	41493.23715403	1.5	0.1
0.01	1	0.408389165997505	1	109	NA	255.840897335002	0	0.25	2.71	1	244.158792093003	244.567181259001	"16"	41495.436191994	41493.23715403	1.5	0.1
0.01	1	0.573806007996609	1	109	NA	255.840897335002	0	0.25	2.71	1	244.793319820004	245.367125828001	"16"	41495.436191994	41493.23715403	1.5	0.1
0.01	1	0.405054097995162	1	109	NA	255.840897335002	0	0.25	2.71	1	245.594565978005	245.999620076	"16"	41495.436191994	41493.23715403	1.5	0.1
0.01	1	0.307656386998133	1	109	NA	255.840897335002	0	0.25	2.71	1	246.228913860003	246.536570247001	"16"	41495.436191994	41493.23715403	1.5	0.1
0.01	1	0.372023199000978	1	109	NA	255.840897335002	0	0.25	2.71	1	246.763140399999	247.135163598999	"16"	41495.436191994	41493.23715403	1.5	0.1
0.01	1	0.244718959002057	1	109	NA	255.840897335002	0	0.25	2.71	1	247.36421593	247.608934889002	"16"	41495.436191994	41493.23715403	1.5	0.1
0.01	1	0.455696995995822	1	109	NA	255.840897335002	0	0.25	2.71	1	247.831742362003	248.287439357999	"16"	41495.436191994	41493.23715403	1.5	0.1
0.01	1	0.348877609998453	1	109	NA	255.840897335002	0	0.25	2.71	1	248.516159778002	248.865037388001	"16"	41495.436191994	41493.23715403	1.5	0.1
0.01	1	0.348763629997848	1	109	NA	255.840897335002	0	0.25	2.71	1	249.100473578001	249.449237207999	"16"	41495.436191994	41493.23715403	1.5	0.1
0.01	1	0.322641341997951	1	109	NA	255.840897335002	0	0.25	2.71	1	249.684881262001	250.007522603999	"16"	41495.436191994	41493.23715403	1.5	0.1
0.01	1	0.323769877002633	1	109	NA	255.840897335002	0	0.25	2.71	1	250.235697550001	250.559467427003	"16"	41495.436191994	41493.23715403	1.5	0.1
0.01	1	0.350070009000774	1	109	NA	255.840897335002	0	0.25	2.71	1	250.786753548004	251.136823557004	"16"	41495.436191994	41493.23715403	1.5	0.1
0.01	1	0.316934212001797	1	109	NA	255.840897335002	0	0.25	2.71	1	251.370983977999	251.68791819	"16"	41495.436191994	41493.23715403	1.5	0.1
0.01	1	0.391069123004854	1	109	NA	255.840897335002	0	0.25	2.71	1	251.921978658	252.313047781005	"16"	41495.436191994	41493.23715403	1.5	0.1
0.01	1	0.381384296000761	1	109	NA	255.840897335002	0	0.25	2.71	1	252.539622005002	252.921006301003	"16"	41495.436191994	41493.23715403	1.5	0.1
0.01	1	0.346295734001615	1	109	NA	255.840897335002	0	0.25	2.71	1	253.157306444999	253.503602179	"16"	41495.436191994	41493.23715403	1.5	0.1
0.01	1	0.370379949999915	1	109	NA	255.840897335002	0	0.25	2.71	1	253.741549630002	254.111929580002	"16"	41495.436191994	41493.23715403	1.5	0.1
0.01	1	0.313141243001155	1	109	NA	255.840897335002	0	0.25	2.71	1	254.342685008	254.655826251001	"16"	41495.436191994	41493.23715403	1.5	0.1
0.01	1	0.330783192999661	1	109	NA	255.840897335002	0	0.25	2.71	1	254.893501208004	255.224284401003	"16"	41495.436191994	41493.23715403	1.5	0.1
0.01	1	0.378123157999653	2	109	NA	255.840897335002	0	0.25	2.71	1	255.461187433	255.839310591	"16"	41495.436191994	41493.23715403	1.5	0.1
0.01	1	0.17431361600029	1	71	NA	271.890505937998	0	0.26	2.97	1	257.881974267999	258.056287883999	"17"	41495.436191994	41493.23715403	1.5	0.1
0.01	1	0.245573243999388	1	71	NA	271.890505937998	0	0.26	2.97	1	258.282651488	258.528224731999	"17"	41495.436191994	41493.23715403	1.5	0.1
0.01	1	0.31270677199791	1	71	NA	271.890505937998	0	0.26	2.97	1	258.766737133003	259.079443905001	"17"	41495.436191994	41493.23715403	1.5	0.1
0.01	1	0.275273218998336	1	71	NA	271.890505937998	0	0.26	2.97	1	259.317669723001	259.592942941999	"17"	41495.436191994	41493.23715403	1.5	0.1
0.01	1	0.278158589993836	1	71	NA	271.890505937998	0	0.26	2.97	1	259.818591175004	260.096749764998	"17"	41495.436191994	41493.23715403	1.5	0.1
0.01	1	0.256707760003337	1	71	NA	271.890505937998	0	0.26	2.97	1	260.319417275001	260.576125035004	"17"	41495.436191994	41493.23715403	1.5	0.1
0.01	1	0.268275708003785	1	71	NA	271.890505937998	0	0.26	2.97	1	260.803558972999	261.071834681003	"17"	41495.436191994	41493.23715403	1.5	0.1
0.01	1	0.288355244003469	1	71	NA	271.890505937998	0	0.26	2.97	1	261.304380000001	261.592735244005	"17"	41495.436191994	41493.23715403	1.5	0.1
0.01	1	0.346010028995806	1	71	NA	271.890505937998	0	0.26	2.97	1	261.821862918005	262.167872947	"17"	41495.436191994	41493.23715403	1.5	0.1
0.01	1	0.258001522997802	1	71	NA	271.890505937998	0	0.26	2.97	1	262.406327338002	262.664328860999	"17"	41495.436191994	41493.23715403	1.5	0.1
0.01	1	0.284999335999601	1	71	NA	271.890505937998	0	0.26	2.97	1	262.890398864998	263.175398200998	"17"	41495.436191994	41493.23715403	1.5	0.1
0.01	1	0.327850725996541	1	71	NA	271.890505937998	0	0.26	2.97	1	263.407893050004	263.735743776	"17"	41495.436191994	41493.23715403	1.5	0.1
0.01	1	0.232683412999904	1	71	NA	271.890505937998	0	0.26	2.97	1	263.958767638003	264.191451051003	"17"	41495.436191994	41493.23715403	1.5	0.1
0.01	1	0.269134062000376	1	71	NA	271.890505937998	0	0.26	2.97	1	264.426351975002	264.695486037002	"17"	41495.436191994	41493.23715403	1.5	0.1
0.01	1	0.337583116997848	1	71	NA	271.890505937998	0	0.26	2.97	1	264.927109315002	265.264692432	"17"	41495.436191994	41493.23715403	1.5	0.1
0.01	1	0.280765477000386	1	71	NA	271.890505937998	0	0.26	2.97	1	265.494864193002	265.775629670003	"17"	41495.436191994	41493.23715403	1.5	0.1
0.01	1	0.3881803569966	1	71	NA	271.890505937998	0	0.26	2.97	1	266.012264782003	266.400445138999	"17"	41495.436191994	41493.23715403	1.5	0.1
0.01	1	0.273859426000854	1	71	NA	271.890505937998	0	0.26	2.97	1	266.629931378004	266.903790804005	"17"	41495.436191994	41493.23715403	1.5	0.1
0.01	1	0.293055128997366	1	71	NA	271.890505937998	0	0.26	2.97	1	267.130827410001	267.423882538998	"17"	41495.436191994	41493.23715403	1.5	0.1
0.01	1	0.344440458000463	1	71	NA	271.890505937998	0	0.26	2.97	1	267.648394393	267.992834851	"17"	41495.436191994	41493.23715403	1.5	0.1
0.01	1	0.344158837004215	1	71	NA	271.890505937998	0	0.26	2.97	1	268.216003802998	268.560162640002	"17"	41495.436191994	41493.23715403	1.5	0.1
0.01	1	0.312209335999796	1	71	NA	271.890505937998	0	0.26	2.97	1	268.800328819998	269.112538155998	"17"	41495.436191994	41493.23715403	1.5	0.1
0.01	1	0.306494743999792	1	71	NA	271.890505937998	0	0.26	2.97	1	269.334558818999	269.641053562998	"17"	41495.436191994	41493.23715403	1.5	0.1
0.01	1	0.338733010001306	1	71	NA	271.890505937998	0	0.26	2.97	1	269.868671308002	270.207404318004	"17"	41495.436191994	41493.23715403	1.5	0.1
0.01	1	0.380490653005836	1	71	NA	271.890505937998	0	0.26	2.97	1	270.436479994998	270.816970648004	"17"	41495.436191994	41493.23715403	1.5	0.1
0.01	1	0.273063622000336	1	71	NA	271.890505937998	0	0.26	2.97	1	271.054084918003	271.327148540004	"17"	41495.436191994	41493.23715403	1.5	0.1
0.01	1	0.333897754004283	2	71	NA	271.890505937998	0	0.26	2.97	1	271.555039097999	271.888936852003	"17"	41495.436191994	41493.23715403	1.5	0.1
0.01	1	0.442438321995724	1	96	NA	290.586116274004	0	0.29	3.26	1	273.942325740005	274.384764062001	"18"	41495.436191994	41493.23715403	1.5	0.1
0.01	1	0.278911551999045	1	96	NA	290.586116274004	0	0.29	3.26	1	274.610059131999	274.888970683998	"18"	41495.436191994	41493.23715403	1.5	0.1
0.01	1	0.239511860003404	1	96	NA	290.586116274004	0	0.29	3.26	1	275.127635238001	275.367147098004	"18"	41495.436191994	41493.23715403	1.5	0.1
0.01	1	0.373078696000448	1	96	NA	290.586116274004	0	0.29	3.26	1	275.595041803004	275.968120499005	"18"	41495.436191994	41493.23715403	1.5	0.1
0.01	1	0.275619289997849	1	96	NA	290.586116274004	0	0.29	3.26	1	276.196125643	276.471744932998	"18"	41495.436191994	41493.23715403	1.5	0.1
0.01	1	0.247382971996558	1	96	NA	290.586116274004	0	0.29	3.26	1	276.697005248003	276.944388219999	"18"	41495.436191994	41493.23715403	1.5	0.1
0.01	1	0.306636409004568	1	96	NA	290.586116274004	0	0.29	3.26	1	277.181111758	277.487748167005	"18"	41495.436191994	41493.23715403	1.5	0.1
0.01	1	0.348266895001871	1	96	NA	290.586116274004	0	0.29	3.26	1	277.715234274998	278.06350117	"18"	41495.436191994	41493.23715403	1.5	0.1
0.01	1	0.357017171001644	1	96	NA	290.586116274004	0	0.29	3.26	1	278.299575997	278.656593168002	"18"	41495.436191994	41493.23715403	1.5	0.1
0.01	1	0.220711894995475	1	96	NA	290.586116274004	0	0.29	3.26	1	278.883907075004	279.104618969999	"18"	41495.436191994	41493.23715403	1.5	0.1
0.01	1	0.280724841999472	1	96	NA	290.586116274004	0	0.29	3.26	1	279.334904998002	279.615629840002	"18"	41495.436191994	41493.23715403	1.5	0.1
0.01	1	0.268812066002283	1	96	NA	290.586116274004	0	0.29	3.26	1	279.852291998002	280.121104064005	"18"	41495.436191994	41493.23715403	1.5	0.1
0.01	1	0.334626991003461	1	96	NA	290.586116274004	0	0.29	3.26	1	280.353085392999	280.687712384002	"18"	41495.436191994	41493.23715403	1.5	0.1
0.01	1	0.247074489001534	1	96	NA	290.586116274004	0	0.29	3.26	1	280.920654118003	281.167728607004	"18"	41495.436191994	41493.23715403	1.5	0.1
0.01	1	0.355457334997482	1	96	NA	290.586116274004	0	0.29	3.26	1	281.404873233005	281.760330568002	"18"	41495.436191994	41493.23715403	1.5	0.1
0.01	1	0.314286793996871	1	96	NA	290.586116274004	0	0.29	3.26	1	281.989230630003	282.303517423999	"18"	41495.436191994	41493.23715403	1.5	0.1
0.01	1	0.332557506997546	1	96	NA	290.586116274004	0	0.29	3.26	1	282.540126928005	282.872684435002	"18"	41495.436191994	41493.23715403	1.5	0.1
0.01	1	0.428864223002165	1	96	NA	290.586116274004	0	0.29	3.26	1	283.107678423003	283.536542646005	"18"	41495.436191994	41493.23715403	1.5	0.1
0.01	1	0.290184051998949	1	96	NA	290.586116274004	0	0.29	3.26	1	283.758907668001	284.04909172	"18"	41495.436191994	41493.23715403	1.5	0.1
0.01	1	0.315830120998726	1	96	NA	290.586116274004	0	0.29	3.26	1	284.276416378001	284.592246499	"18"	41495.436191994	41493.23715403	1.5	0.1
0.01	1	0.396025830996223	1	96	NA	290.586116274004	0	0.29	3.26	1	284.827359613002	285.223385443998	"18"	41495.436191994	41493.23715403	1.5	0.1
0.01	1	0.442944526999781	1	96	NA	290.586116274004	0	0.29	3.26	1	285.445022288004	285.887966815004	"18"	41495.436191994	41493.23715403	1.5	0.1
0.01	1	0.399367993995838	1	96	NA	290.586116274004	0	0.29	3.26	1	286.112747233004	286.512115227	"18"	41495.436191994	41493.23715403	1.5	0.1
0.01	1	0.3480115880011	1	96	NA	290.586116274004	0	0.29	3.26	1	286.747205423002	287.095217011003	"18"	41495.436191994	41493.23715403	1.5	0.1
0.01	1	0.395914082000672	1	96	NA	290.586116274004	0	0.29	3.26	1	287.331567888003	287.727481970003	"18"	41495.436191994	41493.23715403	1.5	0.1
0.01	1	0.354497027001344	1	96	NA	290.586116274004	0	0.29	3.26	1	287.965874948	288.320371975002	"18"	41495.436191994	41493.23715403	1.5	0.1
0.01	1	0.368951564996678	1	96	NA	290.586116274004	0	0.29	3.26	1	288.550317918001	288.919269482998	"18"	41495.436191994	41493.23715403	1.5	0.1
0.01	1	0.337084083999798	1	96	NA	290.586116274004	0	0.29	3.26	1	289.151326978004	289.488411062004	"18"	41495.436191994	41493.23715403	1.5	0.1
0.01	1	0.330267628996808	1	96	NA	290.586116274004	0	0.29	3.26	1	289.718843378003	290.049111007	"18"	41495.436191994	41493.23715403	1.5	0.1
0.01	1	0.298077038998599	2	96	NA	290.586116274004	0	0.29	3.26	1	290.286486138	290.584563176999	"18"	41495.436191994	41493.23715403	1.5	0.1
0.01	1	0.312273272997118	1	91	NA	306.426366995001	0	0.25	3.51	1	292.640409398002	292.952682670999	"19"	41495.436191994	41493.23715403	1.5	0.1
0.01	1	0.209314133004227	1	91	NA	306.426366995001	0	0.25	3.51	1	293.191422008	293.400736141004	"19"	41495.436191994	41493.23715403	1.5	0.1
0.01	1	0.335289074995671	1	91	NA	306.426366995001	0	0.25	3.51	1	293.625337383004	293.960626458	"19"	41495.436191994	41493.23715403	1.5	0.1
0.01	1	0.271063888001663	1	91	NA	306.426366995001	0	0.25	3.51	1	294.193084359998	294.464148248	"19"	41495.436191994	41493.23715403	1.5	0.1
0.01	1	0.409182065006462	1	91	NA	306.426366995001	0	0.25	3.51	1	294.693895609998	295.103077675005	"19"	41495.436191994	41493.23715403	1.5	0.1
0.01	1	0.263444807002088	1	91	NA	306.426366995001	0	0.25	3.51	1	295.328317988002	295.591762795004	"19"	41495.436191994	41493.23715403	1.5	0.1
0.01	1	0.298528948995227	1	91	NA	306.426366995001	0	0.25	3.51	1	295.829099323004	296.127628271999	"19"	41495.436191994	41493.23715403	1.5	0.1
0.01	1	0.252396739000687	1	91	NA	306.426366995001	0	0.25	3.51	1	296.363314323004	296.615711062004	"19"	41495.436191994	41493.23715403	1.5	0.1
0.01	1	0.239586604999204	1	91	NA	306.426366995001	0	0.25	3.51	1	296.847522930002	297.087109535001	"19"	41495.436191994	41493.23715403	1.5	0.1
0.01	1	0.301394180001807	1	91	NA	306.426366995001	0	0.25	3.51	1	297.314914431998	297.616308612	"19"	41495.436191994	41493.23715403	1.5	0.1
0.01	1	0.223188467003638	1	91	NA	306.426366995001	0	0.25	3.51	1	297.849155379998	298.072343847001	"19"	41495.436191994	41493.23715403	1.5	0.1
0.01	1	0.379551203004667	1	91	NA	306.426366995001	0	0.25	3.51	1	298.299857193	298.679408396005	"19"	41495.436191994	41493.23715403	1.5	0.1
0.01	1	0.219147812000301	1	91	NA	306.426366995001	0	0.25	3.51	1	298.917702413004	299.136850225004	"19"	41495.436191994	41493.23715403	1.5	0.1
0.01	1	0.295266107001225	1	91	NA	306.426366995001	0	0.25	3.51	1	299.368435875003	299.663701982005	"19"	41495.436191994	41493.23715403	1.5	0.1
0.01	1	0.313955337995139	1	91	NA	306.426366995001	0	0.25	3.51	1	299.885856300003	300.199811637998	"19"	41495.436191994	41493.23715403	1.5	0.1
0.01	1	0.258291769998323	1	91	NA	306.426366995001	0	0.25	3.51	1	300.436844183001	300.695135952999	"19"	41495.436191994	41493.23715403	1.5	0.1
0.01	1	0.823521518999769	1	91	NA	306.426366995001	0	0.25	3.51	1	300.921048832999	301.744570351999	"19"	41495.436191994	41493.23715403	1.5	0.1
0.01	1	0.275644080000347	1	91	NA	306.426366995001	0	0.25	3.51	1	301.97284794	302.24849202	"19"	41495.436191994	41493.23715403	1.5	0.1
0.01	1	0.317864774995542	1	91	NA	306.426366995001	0	0.25	3.51	1	302.473548350004	302.791413125	"19"	41495.436191994	41493.23715403	1.5	0.1
0.01	1	0.335941655997885	1	91	NA	306.426366995001	0	0.25	3.51	1	303.024598533004	303.360540189002	"19"	41495.436191994	41493.23715403	1.5	0.1
0.01	1	0.311179789001471	1	91	NA	306.426366995001	0	0.25	3.51	1	303.592196933001	303.903376722003	"19"	41495.436191994	41493.23715403	1.5	0.1
0.01	1	0.328762382996501	1	91	NA	306.426366995001	0	0.25	3.51	1	304.126410985002	304.455173367998	"19"	41495.436191994	41493.23715403	1.5	0.1
0.01	1	0.323308801001986	1	91	NA	306.426366995001	0	0.25	3.51	1	304.677281930002	305.000590731004	"19"	41495.436191994	41493.23715403	1.5	0.1
0.01	1	0.347774420995847	1	91	NA	306.426366995001	0	0.25	3.51	1	305.228175458004	305.575949878999	"19"	41495.436191994	41493.23715403	1.5	0.1
0.01	1	0.244075488997623	1	91	NA	306.426366995001	0	0.25	3.51	1	305.812480303	306.056555791998	"19"	41495.436191994	41493.23715403	1.5	0.1
0.01	1	0.128076569002587	2	91	NA	306.426366995001	0	0.25	3.51	1	306.296683009998	306.424759579	"19"	41495.436191994	41493.23715403	1.5	0.1
0.01	1	0.276809359995241	1	5	311.392436984999	NA	1	0	3.51	1	308.450338683004	308.727148042999	"20"	41495.436191994	41493.23715403	1.5	0.1
0.01	1	0.463860637995822	1	5	311.392436984999	NA	1	0	3.51	1	308.951251903003	309.415112540999	"20"	41495.436191994	41493.23715403	1.5	0.1
0.01	1	0.308534929004963	1	5	311.392436984999	NA	1	0	3.51	1	309.652332862999	309.960867792004	"20"	41495.436191994	41493.23715403	1.5	0.1
0.01	1	0.436993670002266	1	5	311.392436984999	NA	1	0	3.51	1	310.186644328001	310.623637998004	"20"	41495.436191994	41493.23715403	1.5	0.1
0.01	1	0.418396162000136	1	5	311.392436984999	NA	1	0	3.51	1	310.854454398002	311.272850560003	"20"	41495.436191994	41493.23715403	1.5	0.1
0.01	1	0.469856862000597	1	123	NA	331.985871365003	0	0.31	3.82	1	313.442118352999	313.911975215	"21"	41495.436191994	41493.23715403	1.5	0.1
0.01	1	0.233588926996163	1	123	NA	331.985871365003	0	0.31	3.82	1	314.143310070001	314.376898996998	"21"	41495.436191994	41493.23715403	1.5	0.1
0.01	1	0.382485403999453	1	123	NA	331.985871365003	0	0.31	3.82	1	314.610715380004	314.993200784003	"21"	41495.436191994	41493.23715403	1.5	0.1
0.01	1	0.31566110499989	1	123	NA	331.985871365003	0	0.31	3.82	1	315.228399828004	315.544060933003	"21"	41495.436191994	41493.23715403	1.5	0.1
0.01	1	0.373143008000625	1	123	NA	331.985871365003	0	0.31	3.82	1	315.779308080004	316.152451088004	"21"	41495.436191994	41493.23715403	1.5	0.1
0.01	1	0.331156661995919	1	123	NA	331.985871365003	0	0.31	3.82	1	316.380339841002	316.711496502998	"21"	41495.436191994	41493.23715403	1.5	0.1
0.01	1	0.308151441997325	1	123	NA	331.985871365003	0	0.31	3.82	1	316.947998388001	317.256149829998	"21"	41495.436191994	41493.23715403	1.5	0.1
0.01	1	0.389581064002414	1	123	NA	331.985871365003	0	0.31	3.82	1	317.482203266998	317.871784331001	"21"	41495.436191994	41493.23715403	1.5	0.1
0.01	1	0.308157209998171	1	123	NA	331.985871365003	0	0.31	3.82	1	318.099860490001	318.4080177	"21"	41495.436191994	41493.23715403	1.5	0.1
0.01	1	0.326875769998878	1	123	NA	331.985871365003	0	0.31	3.82	1	318.634152958002	318.961028728001	"21"	41495.436191994	41493.23715403	1.5	0.1
0.01	1	0.359904448996531	1	123	NA	331.985871365003	0	0.31	3.82	1	319.185038588002	319.544943036999	"21"	41495.436191994	41493.23715403	1.5	0.1
0.01	1	0.374984561000019	1	123	NA	331.985871365003	0	0.31	3.82	1	319.769373989999	320.144358550999	"21"	41495.436191994	41493.23715403	1.5	0.1
0.01	1	0.341346674998931	1	123	NA	331.985871365003	0	0.31	3.82	1	320.370427998001	320.711774673	"21"	41495.436191994	41493.23715403	1.5	0.1
0.01	1	0.358159835996048	1	123	NA	331.985871365003	0	0.31	3.82	1	320.938010563004	321.296170399	"21"	41495.436191994	41493.23715403	1.5	0.1
0.01	1	0.325453233999724	1	123	NA	331.985871365003	0	0.31	3.82	1	321.522302108002	321.847755342002	"21"	41495.436191994	41493.23715403	1.5	0.1
0.01	1	0.319305126999097	1	123	NA	331.985871365003	0	0.31	3.82	1	322.073274280003	322.392579407002	"21"	41495.436191994	41493.23715403	1.5	0.1
0.01	1	0.36743034900428	1	123	NA	331.985871365003	0	0.31	3.82	1	322.624232132999	322.991662482003	"21"	41495.436191994	41493.23715403	1.5	0.1
0.01	1	0.430648298002779	1	123	NA	331.985871365003	0	0.31	3.82	1	323.225267408998	323.655915707001	"21"	41495.436191994	41493.23715403	1.5	0.1
0.01	1	0.419887288000609	1	123	NA	331.985871365003	0	0.31	3.82	1	323.892978650001	324.312865938002	"21"	41495.436191994	41493.23715403	1.5	0.1
0.01	1	0.415370531998633	1	123	NA	331.985871365003	0	0.31	3.82	1	324.544117278005	324.959487810003	"21"	41495.436191994	41493.23715403	1.5	0.1
0.01	1	0.381778916998883	1	123	NA	331.985871365003	0	0.31	3.82	1	325.195148428	325.576927344999	"21"	41495.436191994	41493.23715403	1.5	0.1
0.01	1	0.467318324997905	1	123	NA	331.985871365003	0	0.31	3.82	1	325.812922628	326.280240952998	"21"	41495.436191994	41493.23715403	1.5	0.1
0.01	1	0.342512123999768	1	123	NA	331.985871365003	0	0.31	3.82	1	326.514101927998	326.856614051998	"21"	41495.436191994	41493.23715403	1.5	0.1
0.01	1	0.399093011998048	1	123	NA	331.985871365003	0	0.31	3.82	1	327.081743993003	327.480837005001	"21"	41495.436191994	41493.23715403	1.5	0.1
0.01	1	0.332675552999717	1	123	NA	331.985871365003	0	0.31	3.82	1	327.716132278001	328.048807831001	"21"	41495.436191994	41493.23715403	1.5	0.1
0.01	1	0.363840149002499	1	123	NA	331.985871365003	0	0.31	3.82	1	328.283673038	328.647513187003	"21"	41495.436191994	41493.23715403	1.5	0.1
0.01	1	0.39607327599515	1	123	NA	331.985871365003	0	0.31	3.82	1	328.884867785004	329.280941060999	"21"	41495.436191994	41493.23715403	1.5	0.1
0.01	1	0.377312673001143	1	123	NA	331.985871365003	0	0.31	3.82	1	329.519216590001	329.896529263002	"21"	41495.436191994	41493.23715403	1.5	0.1
0.01	1	0.350893426999392	1	123	NA	331.985871365003	0	0.31	3.82	1	330.120210818	330.471104245	"21"	41495.436191994	41493.23715403	1.5	0.1
0.01	1	0.343821314992965	1	123	NA	331.985871365003	0	0.31	3.82	1	330.704472483005	331.048293797998	"21"	41495.436191994	41493.23715403	1.5	0.1
0.01	1	0.256239580005058	1	123	NA	331.985871365003	0	0.31	3.82	1	331.272079189999	331.528318770004	"21"	41495.436191994	41493.23715403	1.5	0.1
0.01	1	0.228080567001598	2	123	NA	331.985871365003	0	0.31	3.82	1	331.756258383	331.984338950002	"21"	41495.436191994	41493.23715403	1.5	0.1
0.01	1	0.324361805003718	1	81	NA	353.752709059998	0	0.44	4.26	1	334.026683602999	334.351045408002	"22"	41495.436191994	41493.23715403	1.5	0.1
0.01	1	0.213508093002019	1	81	NA	353.752709059998	0	0.44	4.26	1	334.577757022002	334.791265115004	"22"	41495.436191994	41493.23715403	1.5	0.1
0.01	1	0.307834194005409	1	81	NA	353.752709059998	0	0.44	4.26	1	335.028412667998	335.336246862003	"22"	41495.436191994	41493.23715403	1.5	0.1
0.01	1	0.269014684003196	1	81	NA	353.752709059998	0	0.44	4.26	1	335.562664548001	335.831679232004	"22"	41495.436191994	41493.23715403	1.5	0.1
0.01	1	0.264803719001065	1	81	NA	353.752709059998	0	0.44	4.26	1	336.063492612004	336.328296331005	"22"	41495.436191994	41493.23715403	1.5	0.1
0.01	1	0.22713140599808	1	81	NA	353.752709059998	0	0.44	4.26	1	336.564308350004	336.791439756002	"22"	41495.436191994	41493.23715403	1.5	0.1
0.01	1	0.297147580000455	1	81	NA	353.752709059998	0	0.44	4.26	1	337.015074119998	337.312221699998	"22"	41495.436191994	41493.23715403	1.5	0.1
0.01	1	0.274926798003435	1	81	NA	353.752709059998	0	0.44	4.26	1	337.549324143001	337.824250941005	"22"	41495.436191994	41493.23715403	1.5	0.1
0.01	1	0.254667230998166	1	81	NA	353.752709059998	0	0.44	4.26	1	338.050238328004	338.304905559002	"22"	41495.436191994	41493.23715403	1.5	0.1
0.01	1	0.282344894003472	1	81	NA	353.752709059998	0	0.44	4.26	1	338.534341981998	338.816686876002	"22"	41495.436191994	41493.23715403	1.5	0.1
0.01	1	0.283626256001298	1	81	NA	353.752709059998	0	0.44	4.26	1	339.051833780002	339.335460036003	"22"	41495.436191994	41493.23715403	1.5	0.1
0.01	1	0.29373845399823	1	81	NA	353.752709059998	0	0.44	4.26	1	339.569416718005	339.863155172003	"22"	41495.436191994	41493.23715403	1.5	0.1
0.01	1	0.258240251998359	1	81	NA	353.752709059998	0	0.44	4.26	1	340.086904463002	340.345144715	"22"	41495.436191994	41493.23715403	1.5	0.1
0.01	1	0.24604763899697	1	81	NA	353.752709059998	0	0.44	4.26	1	340.571081940005	340.817129579002	"22"	41495.436191994	41493.23715403	1.5	0.1
0.01	1	0.20009468599892	1	81	NA	353.752709059998	0	0.44	4.26	1	341.055220804999	341.255315490998	"22"	41495.436191994	41493.23715403	1.5	0.1
0.01	1	0.254623379994882	1	81	NA	353.752709059998	0	0.44	4.26	1	341.489268495003	341.743891874998	"22"	41495.436191994	41493.23715403	1.5	0.1
0.01	1	0.283087618998252	1	81	NA	353.752709059998	0	0.44	4.26	1	341.973440431	342.256528049998	"22"	41495.436191994	41493.23715403	1.5	0.1
0.01	1	0.284285244000785	1	81	NA	353.752709059998	0	0.44	4.26	1	342.490990120001	342.775275364002	"22"	41495.436191994	41493.23715403	1.5	0.1
0.01	1	0.28762975299469	1	81	NA	353.752709059998	0	0.44	4.26	1	343.008478788004	343.296108540999	"22"	41495.436191994	41493.23715403	1.5	0.1
0.01	1	0.194151583003986	1	81	NA	353.752709059998	0	0.44	4.26	1	343.525924661	343.720076244004	"22"	41495.436191994	41493.23715403	1.5	0.1
0.01	1	0.225203007001255	1	81	NA	353.752709059998	0	0.44	4.26	1	343.943410562999	344.16861357	"22"	41495.436191994	41493.23715403	1.5	0.1
0.01	1	0.30137297300098	1	81	NA	353.752709059998	0	0.44	4.26	1	344.394072579998	344.695445552999	"22"	41495.436191994	41493.23715403	1.5	0.1
0.01	1	0.207631311997829	1	81	NA	353.752709059998	0	0.44	4.26	1	344.928393915005	345.136025227002	"22"	41495.436191994	41493.23715403	1.5	0.1
0.01	1	0.20576801399875	1	81	NA	353.752709059998	0	0.44	4.26	1	345.362468068	345.568236081999	"22"	41495.436191994	41493.23715403	1.5	0.1
0.01	1	0.196494560004794	1	81	NA	353.752709059998	0	0.44	4.26	1	345.796558381	345.993052941005	"22"	41495.436191994	41493.23715403	1.5	0.1
0.01	1	0.21785453800112	1	81	NA	353.752709059998	0	0.44	4.26	1	346.230557622999	346.448412161	"22"	41495.436191994	41493.23715403	1.5	0.1
0.01	1	0.21571689999837	1	81	NA	353.752709059998	0	0.44	4.26	1	346.681360091003	346.897076991001	"22"	41495.436191994	41493.23715403	1.5	0.1
0.01	1	0.236576957002399	1	81	NA	353.752709059998	0	0.44	4.26	1	347.132158738001	347.368735695003	"22"	41495.436191994	41493.23715403	1.5	0.1
0.01	1	0.279603410999698	1	81	NA	353.752709059998	0	0.44	4.26	1	347.599539610004	347.879143021004	"22"	41495.436191994	41493.23715403	1.5	0.1
0.01	1	0.227591174996633	1	81	NA	353.752709059998	0	0.44	4.26	1	348.117081820004	348.344672995001	"22"	41495.436191994	41493.23715403	1.5	0.1
0.01	1	0.248059896999621	1	81	NA	353.752709059998	0	0.44	4.26	1	348.567744723005	348.815804620004	"22"	41495.436191994	41493.23715403	1.5	0.1
0.01	1	0.235907957998279	1	81	NA	353.752709059998	0	0.44	4.26	1	349.052024233002	349.287932191	"22"	41495.436191994	41493.23715403	1.5	0.1
0.01	1	0.200826799999049	1	81	NA	353.752709059998	0	0.44	4.26	1	349.519479030001	349.72030583	"22"	41495.436191994	41493.23715403	1.5	0.1
0.01	1	0.151063794997754	1	81	NA	353.752709059998	0	0.44	4.26	1	349.953440653	350.104504447998	"22"	41495.436191994	41493.23715403	1.5	0.1
0.01	1	0.158973499994318	1	81	NA	353.752709059998	0	0.44	4.26	1	350.337483813004	350.496457312998	"22"	41495.436191994	41493.23715403	1.5	0.1
0.01	1	0.118880374997389	1	81	NA	353.752709059998	0	0.44	4.26	1	350.721444168004	350.840324543002	"22"	41495.436191994	41493.23715403	1.5	0.1
0.01	1	0.078983501996845	1	81	NA	353.752709059998	0	0.44	4.26	1	351.072116775002	351.151100276998	"22"	41495.436191994	41493.23715403	1.5	0.1
0.01	1	0.186586745003297	1	81	NA	353.752709059998	0	0.44	4.26	1	351.389185382999	351.575772128002	"22"	41495.436191994	41493.23715403	1.5	0.1
0.01	1	0.00219755800208077	1	81	NA	353.752709059998	0	0.44	4.26	1	351.806651523999	351.808849082001	"22"	41495.436191994	41493.23715403	1.5	0.1
0.01	1	0.0157042919963715	1	81	NA	353.752709059998	0	0.44	4.26	1	352.040417110002	352.056121401998	"22"	41495.436191994	41493.23715403	1.5	0.1
0.01	1	0.100307189000887	1	81	NA	353.752709059998	0	0.44	4.26	1	352.290818740003	352.391125929003	"22"	41495.436191994	41493.23715403	1.5	0.1
0.01	1	0.0553141660057008	1	81	NA	353.752709059998	0	0.44	4.26	1	352.624567104998	352.679881271004	"22"	41495.436191994	41493.23715403	1.5	0.1
0.01	1	0.00726517899602186	1	81	NA	353.752709059998	0	0.44	4.26	1	352.908496640004	352.915761819	"22"	41495.436191994	41493.23715403	1.5	0.1
0.01	1	0.0584230669992394	1	81	NA	353.752709059998	0	0.44	4.26	1	353.142248333002	353.200671400002	"22"	41495.436191994	41493.23715403	1.5	0.1
0.01	1	0.325169417999859	2	81	NA	353.752709059998	0	0.44	4.26	1	353.425975630002	353.751145048001	"22"	41495.436191994	41493.23715403	1.5	0.1
0.01	1	0.426767684002698	1	117	NA	371.090540837002	0	0.39	4.65	1	355.796640182998	356.223407867001	"23"	41495.436191994	41493.23715403	1.5	0.1
0.01	1	0.0722435429997859	1	117	NA	371.090540837002	0	0.39	4.65	1	356.447859129999	356.520102672999	"23"	41495.436191994	41493.23715403	1.5	0.1
0.01	1	0.155929376000131	1	117	NA	371.090540837002	0	0.39	4.65	1	356.748234842998	356.904164218999	"23"	41495.436191994	41493.23715403	1.5	0.1
0.01	1	0.0678656450036215	1	117	NA	371.090540837002	0	0.39	4.65	1	357.132268103	357.200133748003	"23"	41495.436191994	41493.23715403	1.5	0.1
0.01	1	0.0560603249978158	1	117	NA	371.090540837002	0	0.39	4.65	1	357.432826590004	357.488886915002	"23"	41495.436191994	41493.23715403	1.5	0.1
0.01	1	0.0665314799989574	1	117	NA	371.090540837002	0	0.39	4.65	1	357.71656737	357.783098849999	"23"	41495.436191994	41493.23715403	1.5	0.1
0.01	1	0.0229158900037874	1	117	NA	371.090540837002	0	0.39	4.65	1	358.017051078001	358.039966968005	"23"	41495.436191994	41493.23715403	1.5	0.1
0.01	1	0.0608202220028033	1	117	NA	371.090540837002	0	0.39	4.65	1	358.267491248	358.328311470003	"23"	41495.436191994	41493.23715403	1.5	0.1
0.01	1	0.00932834400009597	1	117	NA	371.090540837002	0	0.39	4.65	1	358.551382955004	358.560711299004	"23"	41495.436191994	41493.23715403	1.5	0.1
0.01	1	0.0701956589982728	1	117	NA	371.090540837002	0	0.39	4.65	1	358.784943143	358.855138801999	"23"	41495.436191994	41493.23715403	1.5	0.1
0.01	1	0.234789027002989	1	117	NA	371.090540837002	0	0.39	4.65	1	359.085522182999	359.320311210002	"23"	41495.436191994	41493.23715403	1.5	0.1
0.01	1	0.143295132998901	1	117	NA	371.090540837002	0	0.39	4.65	1	359.552924342999	359.696219475998	"23"	41495.436191994	41493.23715403	1.5	0.1
0.01	1	0.182753880995733	1	117	NA	371.090540837002	0	0.39	4.65	1	359.920316955002	360.103070835998	"23"	41495.436191994	41493.23715403	1.5	0.1
0.01	1	0.205610893004632	1	117	NA	371.090540837002	0	0.39	4.65	1	360.337606948	360.543217841005	"23"	41495.436191994	41493.23715403	1.5	0.1
0.01	1	0.165350042996579	1	117	NA	371.090540837002	0	0.39	4.65	1	360.771739435004	360.937089478	"23"	41495.436191994	41493.23715403	1.5	0.1
0.01	1	0.180352650000714	1	117	NA	371.090540837002	0	0.39	4.65	1	361.172432940002	361.352785590003	"23"	41495.436191994	41493.23715403	1.5	0.1
0.01	1	0.226626797004428	1	117	NA	371.090540837002	0	0.39	4.65	1	361.589701422999	361.816328220004	"23"	41495.436191994	41493.23715403	1.5	0.1
0.01	1	0.0801511080062483	1	117	NA	371.090540837002	0	0.39	4.65	1	362.040492282998	362.120643391005	"23"	41495.436191994	41493.23715403	1.5	0.1
0.01	1	0.137714487995254	1	117	NA	371.090540837002	0	0.39	4.65	1	362.357828133005	362.495542621	"23"	41495.436191994	41493.23715403	1.5	0.1
0.01	1	0.178833656995266	1	117	NA	371.090540837002	0	0.39	4.65	1	362.725079378004	362.903913034999	"23"	41495.436191994	41493.23715403	1.5	0.1
0.01	1	0.201115547002701	1	117	NA	371.090540837002	0	0.39	4.65	1	363.142349647998	363.343465195001	"23"	41495.436191994	41493.23715403	1.5	0.1
0.01	1	0.126704582995444	1	117	NA	371.090540837002	0	0.39	4.65	1	363.576398030003	363.703102612999	"23"	41495.436191994	41493.23715403	1.5	0.1
0.01	1	0.12162155599799	1	117	NA	371.090540837002	0	0.39	4.65	1	363.927121083005	364.048742639003	"23"	41495.436191994	41493.23715403	1.5	0.1
0.01	1	0.305792185994505	1	117	NA	371.090540837002	0	0.39	4.65	1	364.277641858003	364.583434043998	"23"	41495.436191994	41493.23715403	1.5	0.1
0.01	1	0.107425053000043	1	117	NA	371.090540837002	0	0.39	4.65	1	364.811785113001	364.919210166001	"23"	41495.436191994	41493.23715403	1.5	0.1
0.01	1	0.190532735003217	1	117	NA	371.090540837002	0	0.39	4.65	1	365.145772618002	365.336305353005	"23"	41495.436191994	41493.23715403	1.5	0.1
0.01	1	0.15699384000618	1	117	NA	371.090540837002	0	0.39	4.65	1	365.563006174998	365.720000015004	"23"	41495.436191994	41493.23715403	1.5	0.1
0.01	1	0.198047581994615	1	117	NA	371.090540837002	0	0.39	4.65	1	365.947145260005	366.145192841999	"23"	41495.436191994	41493.23715403	1.5	0.1
0.01	1	0.17014033599844	1	117	NA	371.090540837002	0	0.39	4.65	1	366.38110038	366.551240715999	"23"	41495.436191994	41493.23715403	1.5	0.1
0.01	1	0.15441743300471	1	117	NA	371.090540837002	0	0.39	4.65	1	366.781745408	366.936162841004	"23"	41495.436191994	41493.23715403	1.5	0.1
0.01	1	0.15495898899826	1	117	NA	371.090540837002	0	0.39	4.65	1	367.165816058005	367.320775047003	"23"	41495.436191994	41493.23715403	1.5	0.1
0.01	1	0.234139890999359	1	117	NA	371.090540837002	0	0.39	4.65	1	367.549736318004	367.783876209003	"23"	41495.436191994	41493.23715403	1.5	0.1
0.01	1	0.238477001999854	1	117	NA	371.090540837002	0	0.39	4.65	1	368.017246230003	368.255723232003	"23"	41495.436191994	41493.23715403	1.5	0.1
0.01	1	0.171615284998552	1	117	NA	371.090540837002	0	0.39	4.65	1	368.484631368003	368.656246653001	"23"	41495.436191994	41493.23715403	1.5	0.1
0.01	1	0.227496792998863	1	117	NA	371.090540837002	0	0.39	4.65	1	368.885289149999	369.112785942998	"23"	41495.436191994	41493.23715403	1.5	0.1
0.01	1	0.167695557000116	1	117	NA	371.090540837002	0	0.39	4.65	1	369.352830033	369.52052559	"23"	41495.436191994	41493.23715403	1.5	0.1
0.01	1	0.213588215003256	1	117	NA	371.090540837002	0	0.39	4.65	1	369.753542489998	369.967130705001	"23"	41495.436191994	41493.23715403	1.5	0.1
0.01	1	0.163778765003372	1	117	NA	371.090540837002	0	0.39	4.65	1	370.204327583	370.368106348003	"23"	41495.436191994	41493.23715403	1.5	0.1
0.01	1	0.155915358001948	1	117	NA	371.090540837002	0	0.39	4.65	1	370.604883143002	370.760798501004	"23"	41495.436191994	41493.23715403	1.5	0.1
0.01	1	0.100082384000416	2	117	NA	371.090540837002	0	0.39	4.65	1	370.988881372999	371.088963757	"23"	41495.436191994	41493.23715403	1.5	0.1
0.01	1	0.281875331995252	1	84	NA	386.945102830003	0	0.33	4.98	1	373.142570998003	373.424446329998	"24"	41495.436191994	41493.23715403	1.5	0.1
0.01	1	0.188353857003676	1	84	NA	386.945102830003	0	0.33	4.98	1	373.659990332999	373.848344190003	"24"	41495.436191994	41493.23715403	1.5	0.1
0.01	1	0.0190632910016575	1	84	NA	386.945102830003	0	0.33	4.98	1	374.077346828002	374.096410119004	"24"	41495.436191994	41493.23715403	1.5	0.1
0.01	1	0.0873207969998475	1	84	NA	386.945102830003	0	0.33	4.98	1	374.327866453001	374.415187250001	"24"	41495.436191994	41493.23715403	1.5	0.1
0.01	1	0.16318482200586	1	84	NA	386.945102830003	0	0.33	4.98	1	374.645031519998	374.808216342004	"24"	41495.436191994	41493.23715403	1.5	0.1
0.01	1	0.115081657000701	1	84	NA	386.945102830003	0	0.33	4.98	1	375.045770915	375.160852572	"24"	41495.436191994	41493.23715403	1.5	0.1
0.01	1	0.148703236998699	1	84	NA	386.945102830003	0	0.33	4.98	1	375.396338083003	375.545041320001	"24"	41495.436191994	41493.23715403	1.5	0.1
0.01	1	0.051022314997681	1	84	NA	386.945102830003	0	0.33	4.98	1	375.780290773	375.831313087998	"24"	41495.436191994	41493.23715403	1.5	0.1
0.01	1	0.375372450005671	1	84	NA	386.945102830003	0	0.33	4.98	1	376.064130357998	376.439502808003	"24"	41495.436191994	41493.23715403	1.5	0.1
0.01	1	0.215081138005189	1	84	NA	386.945102830003	0	0.33	4.98	1	376.665115331998	376.880196470003	"24"	41495.436191994	41493.23715403	1.5	0.1
0.01	1	0.268841983001039	1	84	NA	386.945102830003	0	0.33	4.98	1	377.115885029998	377.384727012999	"24"	41495.436191994	41493.23715403	1.5	0.1
0.01	1	0.143781874001434	1	84	NA	386.945102830003	0	0.33	4.98	1	377.616697028003	377.760478902004	"24"	41495.436191994	41493.23715403	1.5	0.1
0.01	1	0.504849696997553	1	84	NA	386.945102830003	0	0.33	4.98	1	377.984008598003	378.488858295001	"24"	41495.436191994	41493.23715403	1.5	0.1
0.01	1	0.170608018001076	1	84	NA	386.945102830003	0	0.33	4.98	1	378.718535318003	378.889143336004	"24"	41495.436191994	41493.23715403	1.5	0.1
0.01	1	0.153538269994897	1	84	NA	386.945102830003	0	0.33	4.98	1	379.119302928004	379.272841197999	"24"	41495.436191994	41493.23715403	1.5	0.1
0.01	1	0.215926621000108	1	84	NA	386.945102830003	0	0.33	4.98	1	379.503184722998	379.719111343999	"24"	41495.436191994	41493.23715403	1.5	0.1
0.01	1	0.151152872000239	1	84	NA	386.945102830003	0	0.33	4.98	1	379.954042383004	380.105195255004	"24"	41495.436191994	41493.23715403	1.5	0.1
0.01	1	0.198941290997027	1	84	NA	386.945102830003	0	0.33	4.98	1	380.337969628003	380.536910919	"24"	41495.436191994	41493.23715403	1.5	0.1
0.01	1	0.171368277995498	1	84	NA	386.945102830003	0	0.33	4.98	1	380.771994813003	380.943363090999	"24"	41495.436191994	41493.23715403	1.5	0.1
0.01	1	0.188252205000026	1	84	NA	386.945102830003	0	0.33	4.98	1	381.172756519998	381.361008724998	"24"	41495.436191994	41493.23715403	1.5	0.1
0.01	1	0.234948871999222	1	84	NA	386.945102830003	0	0.33	4.98	1	381.590139813001	381.825088685	"24"	41495.436191994	41493.23715403	1.5	0.1
0.01	1	0.278335252995021	1	84	NA	386.945102830003	0	0.33	4.98	1	382.057488438004	382.335823690999	"24"	41495.436191994	41493.23715403	1.5	0.1
0.01	1	0.201246819000517	1	84	NA	386.945102830003	0	0.33	4.98	1	382.558349058003	382.759595877003	"24"	41495.436191994	41493.23715403	1.5	0.1
0.01	1	0.206733007005823	1	84	NA	386.945102830003	0	0.33	4.98	1	382.992389177998	383.199122185004	"24"	41495.436191994	41493.23715403	1.5	0.1
0.01	1	0.189911665998807	1	84	NA	386.945102830003	0	0.33	4.98	1	383.426552205005	383.616463871003	"24"	41495.436191994	41493.23715403	1.5	0.1
0.01	1	0.179694644997653	1	84	NA	386.945102830003	0	0.33	4.98	1	383.843862223002	384.023556868	"24"	41495.436191994	41493.23715403	1.5	0.1
0.01	1	0.162532887996349	1	84	NA	386.945102830003	0	0.33	4.98	1	384.261265908004	384.423798796	"24"	41495.436191994	41493.23715403	1.5	0.1
0.01	1	0.234815618998255	1	84	NA	386.945102830003	0	0.33	4.98	1	384.661955529002	384.896771148	"24"	41495.436191994	41493.23715403	1.5	0.1
0.01	1	0.151367782993475	1	84	NA	386.945102830003	0	0.33	4.98	1	385.129319682004	385.280687464998	"24"	41495.436191994	41493.23715403	1.5	0.1
0.01	1	0.0305873740071547	1	84	NA	386.945102830003	0	0.33	4.98	1	385.513328524998	385.543915899005	"24"	41495.436191994	41493.23715403	1.5	0.1
0.01	1	0.00714616799814394	1	84	NA	386.945102830003	0	0.33	4.98	1	385.780487313001	385.787633480999	"24"	41495.436191994	41493.23715403	1.5	0.1
0.01	1	0.0901151110010687	1	84	NA	386.945102830003	0	0.33	4.98	1	386.014073730003	386.104188841004	"24"	41495.436191994	41493.23715403	1.5	0.1
0.01	1	0.108131943001354	1	84	NA	386.945102830003	0	0.33	4.98	1	386.331379513002	386.439511456003	"24"	41495.436191994	41493.23715403	1.5	0.1
0.01	1	0.278225652997207	2	84	NA	386.945102830003	0	0.33	4.98	1	386.665329588002	386.943555241	"24"	41495.436191994	41493.23715403	1.5	0.1
0.01	1	0.301324302003195	1	22	396.836242122998	NA	1	0	4.98	1	389.002489459999	389.303813762002	"25"	41495.436191994	41493.23715403	1.5	0.1
0.01	1	0.175674951002293	1	22	396.836242122998	NA	1	0	4.98	1	389.536756308	389.712431259002	"25"	41495.436191994	41493.23715403	1.5	0.1
0.01	1	0.0303238310007146	1	22	396.836242122998	NA	1	0	4.98	1	389.937425648	389.967749479001	"25"	41495.436191994	41493.23715403	1.5	0.1
0.01	1	0.106795849998889	1	22	396.836242122998	NA	1	0	4.98	1	390.204585628002	390.311381478001	"25"	41495.436191994	41493.23715403	1.5	0.1
0.01	1	0.125886243004061	1	22	396.836242122998	NA	1	0	4.98	1	390.538469589999	390.664355833003	"25"	41495.436191994	41493.23715403	1.5	0.1
0.01	1	0.071492056005809	1	22	396.836242122998	NA	1	0	4.98	1	390.889085802999	390.960577859005	"25"	41495.436191994	41493.23715403	1.5	0.1
0.01	1	0.162598576993332	1	22	396.836242122998	NA	1	0	4.98	1	391.189559611004	391.352158187998	"25"	41495.436191994	41493.23715403	1.5	0.1
0.01	1	0.0969590870008687	1	22	396.836242122998	NA	1	0	4.98	1	391.590196603	391.687155690001	"25"	41495.436191994	41493.23715403	1.5	0.1
0.01	1	0.204860566998832	1	22	396.836242122998	NA	1	0	4.98	1	391.924129240004	392.128989807003	"25"	41495.436191994	41493.23715403	1.5	0.1
0.01	1	0.0899848230037605	1	22	396.836242122998	NA	1	0	4.98	1	392.358098012999	392.448082836003	"25"	41495.436191994	41493.23715403	1.5	0.1
0.01	1	0.101218731004337	1	22	396.836242122998	NA	1	0	4.98	1	392.675369732999	392.776588464003	"25"	41495.436191994	41493.23715403	1.5	0.1
0.01	1	0.0951682029990479	1	22	396.836242122998	NA	1	0	4.98	1	393.009335258001	393.104503461	"25"	41495.436191994	41493.23715403	1.5	0.1
0.01	1	0.121626535001269	1	22	396.836242122998	NA	1	0	4.98	1	393.326448355001	393.448074890002	"25"	41495.436191994	41493.23715403	1.5	0.1
0.01	1	0.123243959002139	1	22	396.836242122998	NA	1	0	4.98	1	393.677056439999	393.800300399002	"25"	41495.436191994	41493.23715403	1.5	0.1
0.01	1	0.0994903430037084	1	22	396.836242122998	NA	1	0	4.98	1	394.027672297998	394.127162641002	"25"	41495.436191994	41493.23715403	1.5	0.1
0.01	1	0.0714717029986787	1	22	396.836242122998	NA	1	0	4.98	1	394.361488098002	394.432959801001	"25"	41495.436191994	41493.23715403	1.5	0.1
0.01	1	0.15337501400063	1	22	396.836242122998	NA	1	0	4.98	1	394.662094173	394.815469187	"25"	41495.436191994	41493.23715403	1.5	0.1
0.01	1	0.217653287996654	1	22	396.836242122998	NA	1	0	4.98	1	395.046137313002	395.263790600999	"25"	41495.436191994	41493.23715403	1.5	0.1
0.01	1	0.112095053002122	1	22	396.836242122998	NA	1	0	4.98	1	395.496746215002	395.608841268004	"25"	41495.436191994	41493.23715403	1.5	0.1
0.01	1	0.145338803995401	1	22	396.836242122998	NA	1	0	4.98	1	395.847361416003	395.992700219998	"25"	41495.436191994	41493.23715403	1.5	0.1
0.01	1	0.121181039998191	1	22	396.836242122998	NA	1	0	4.98	1	396.214623359003	396.335804399001	"25"	41495.436191994	41493.23715403	1.5	0.1
0.01	1	0.155612538997957	1	22	396.836242122998	NA	1	0	4.98	1	396.565284983	396.720897521998	"25"	41495.436191994	41493.23715403	1.5	0.1
0.01	1	0.546185474995582	1	36	NA	407.017674647002	0	0.18	5.16	1	398.885778663003	399.431964137999	"26"	41495.436191994	41493.23715403	1.5	0.1
0.01	1	0.192899205998401	1	36	NA	407.017674647002	0	0.18	5.16	1	399.670534495002	399.863433701001	"26"	41495.436191994	41493.23715403	1.5	0.1
0.01	1	0.168040145996201	1	36	NA	407.017674647002	0	0.18	5.16	1	400.087803150003	400.255843296	"26"	41495.436191994	41493.23715403	1.5	0.1
0.01	1	0.119207012998231	1	36	NA	407.017674647002	0	0.18	5.16	1	400.488603603	400.607810615998	"26"	41495.436191994	41493.23715403	1.5	0.1
0.01	1	0.193850288000249	1	36	NA	407.017674647002	0	0.18	5.16	1	400.839100789002	401.032951077003	"26"	41495.436191994	41493.23715403	1.5	0.1
0.01	1	0.270946987999196	1	36	NA	407.017674647002	0	0.18	5.16	1	401.256459508004	401.527406496003	"26"	41495.436191994	41493.23715403	1.5	0.1
0.01	1	0.210492616999545	1	36	NA	407.017674647002	0	0.18	5.16	1	401.757321992998	401.967814609998	"26"	41495.436191994	41493.23715403	1.5	0.1
0.01	1	0.209577168003307	1	36	NA	407.017674647002	0	0.18	5.16	1	402.191347943	402.400925111004	"26"	41495.436191994	41493.23715403	1.5	0.1
0.01	1	0.229206998003065	1	36	NA	407.017674647002	0	0.18	5.16	1	402.642085398002	402.871292396005	"26"	41495.436191994	41493.23715403	1.5	0.1
0.01	1	0.1456363660036	1	36	NA	407.017674647002	0	0.18	5.16	1	403.109678105	403.255314471004	"26"	41495.436191994	41493.23715403	1.5	0.1
0.01	1	0.218980129000556	1	36	NA	407.017674647002	0	0.18	5.16	1	403.493516543	403.712496672	"26"	41495.436191994	41493.23715403	1.5	0.1
0.01	1	0.112168118001136	1	36	NA	407.017674647002	0	0.18	5.16	1	403.944342075003	404.056510193004	"26"	41495.436191994	41493.23715403	1.5	0.1
0.01	1	0.146376084005169	1	36	NA	407.017674647002	0	0.18	5.16	1	404.294884039999	404.441260124004	"26"	41495.436191994	41493.23715403	1.5	0.1
0.01	1	0.201752214001317	1	36	NA	407.017674647002	0	0.18	5.16	1	404.678882228	404.880634442001	"26"	41495.436191994	41493.23715403	1.5	0.1
0.01	1	0.1911725950049	1	36	NA	407.017674647002	0	0.18	5.16	1	405.112999682999	405.304172278004	"26"	41495.436191994	41493.23715403	1.5	0.1
0.01	1	0.204694756001118	1	36	NA	407.017674647002	0	0.18	5.16	1	405.530388122999	405.735082879	"26"	41495.436191994	41493.23715403	1.5	0.1
0.01	1	0.171853837004164	1	36	NA	407.017674647002	0	0.18	5.16	1	405.964384790001	406.136238627005	"26"	41495.436191994	41493.23715403	1.5	0.1
0.01	1	0.203776551999908	1	36	NA	407.017674647002	0	0.18	5.16	1	406.365069512998	406.568846064998	"26"	41495.436191994	41493.23715403	1.5	0.1
0.01	1	0.217002224999305	2	36	NA	407.017674647002	0	0.18	5.16	1	406.799106773004	407.016108998003	"26"	41495.436191994	41493.23715403	1.5	0.1
0.01	1	0.00217669999983627	1	124	NA	419.146673029005	0	0.31	5.47	1	409.052890664003	409.055067364003	"27"	41495.436191994	41493.23715403	1.5	0.1
0.01	1	0.0810320770033286	1	124	NA	419.146673029005	0	0.31	5.47	1	409.286603127999	409.367635205002	"27"	41495.436191994	41493.23715403	1.5	0.1
0.01	1	0.157283157997881	1	124	NA	419.146673029005	0	0.31	5.47	1	409.603899310001	409.761182467999	"27"	41495.436191994	41493.23715403	1.5	0.1
0.01	1	0.12416242499603	1	124	NA	419.146673029005	0	0.31	5.47	1	409.987889633005	410.112052058001	"27"	41495.436191994	41493.23715403	1.5	0.1
0.01	1	0.158870694998768	1	124	NA	419.146673029005	0	0.31	5.47	1	410.338519360004	410.497390055003	"27"	41495.436191994	41493.23715403	1.5	0.1
0.01	1	0.10875335700257	1	124	NA	419.146673029005	0	0.31	5.47	1	410.722339972999	410.831093330002	"27"	41495.436191994	41493.23715403	1.5	0.1
0.01	1	0.151918210001895	1	124	NA	419.146673029005	0	0.31	5.47	1	411.056387933	411.208306143002	"27"	41495.436191994	41493.23715403	1.5	0.1
0.01	1	0.144804562005447	1	124	NA	419.146673029005	0	0.31	5.47	1	411.440285912999	411.585090475004	"27"	41495.436191994	41493.23715403	1.5	0.1
0.01	1	0.12884555200435	1	124	NA	419.146673029005	0	0.31	5.47	1	411.807497595	411.936343147005	"27"	41495.436191994	41493.23715403	1.5	0.1
0.01	1	0.218691449001199	1	124	NA	419.146673029005	0	0.31	5.47	1	412.158168553004	412.376860002005	"27"	41495.436191994	41493.23715403	1.5	0.1
0.01	1	0.150996554002631	1	124	NA	419.146673029005	0	0.31	5.47	1	412.608958878001	412.759955432004	"27"	41495.436191994	41493.23715403	1.5	0.1
0.01	1	0.120094149999204	1	124	NA	419.146673029005	0	0.31	5.47	1	412.992946318001	413.113040468001	"27"	41495.436191994	41493.23715403	1.5	0.1
0.01	1	0.103734491996875	1	124	NA	419.146673029005	0	0.31	5.47	1	413.343579553002	413.447314044999	"27"	41495.436191994	41493.23715403	1.5	0.1
0.01	1	0.210868537003989	1	124	NA	419.146673029005	0	0.31	5.47	1	413.677403408001	413.888271945005	"27"	41495.436191994	41493.23715403	1.5	0.1
0.01	1	0.105175917997258	1	124	NA	419.146673029005	0	0.31	5.47	1	414.111375810004	414.216551728001	"27"	41495.436191994	41493.23715403	1.5	0.1
0.01	1	0.0897625309953582	1	124	NA	419.146673029005	0	0.31	5.47	1	414.445317568003	414.535080098998	"27"	41495.436191994	41493.23715403	1.5	0.1
0.01	1	0.125491974999022	1	124	NA	419.146673029005	0	0.31	5.47	1	414.762518686002	414.888010661001	"27"	41495.436191994	41493.23715403	1.5	0.1
0.01	1	0.0792401180005982	1	124	NA	419.146673029005	0	0.31	5.47	1	415.113131692	415.192371810001	"27"	41495.436191994	41493.23715403	1.5	0.1
0.01	1	0.0413837550004246	1	124	NA	419.146673029005	0	0.31	5.47	1	415.43032141	415.471705165	"27"	41495.436191994	41493.23715403	1.5	0.1
0.01	1	0.0468342160020256	1	124	NA	419.146673029005	0	0.31	5.47	1	415.697484798002	415.744319014004	"27"	41495.436191994	41493.23715403	1.5	0.1
0.01	1	0.0197414689973812	1	124	NA	419.146673029005	0	0.31	5.47	1	415.981188623002	416.000930091999	"27"	41495.436191994	41493.23715403	1.5	0.1
0.01	1	0.0474807359933038	1	124	NA	419.146673029005	0	0.31	5.47	1	416.231611348005	416.279092083998	"27"	41495.436191994	41493.23715403	1.5	0.1
0.01	1	0.0208899429999292	1	124	NA	419.146673029005	0	0.31	5.47	1	416.515491878003	416.536381821003	"27"	41495.436191994	41493.23715403	1.5	0.1
0.01	1	0.0734931400002097	1	124	NA	419.146673029005	0	0.31	5.47	1	416.765930093003	416.839423233003	"27"	41495.436191994	41493.23715403	1.5	0.1
0.01	1	0.069470377995458	1	124	NA	419.146673029005	0	0.31	5.47	1	417.066455703003	417.135926080999	"27"	41495.436191994	41493.23715403	1.5	0.1
0.01	1	0.0176950179957203	1	124	NA	419.146673029005	0	0.31	5.47	1	417.366909870005	417.384604888	"27"	41495.436191994	41493.23715403	1.5	0.1
0.01	1	0.00359758899867302	1	124	NA	419.146673029005	0	0.31	5.47	1	417.617355640003	417.620953229001	"27"	41495.436191994	41493.23715403	1.5	0.1
0.01	1	0.0371492949998355	1	124	NA	419.146673029005	0	0.31	5.47	1	417.851134623001	417.888283918001	"27"	41495.436191994	41493.23715403	1.5	0.1
0.01	1	0.0252232509956229	1	124	NA	419.146673029005	0	0.31	5.47	1	418.118185760002	418.143409010998	"27"	41495.436191994	41493.23715403	1.5	0.1
0.01	1	0.136045990002458	1	124	NA	419.146673029005	0	0.31	5.47	1	418.368558777998	418.504604768001	"27"	41495.436191994	41493.23715403	1.5	0.1
0.01	1	0.00237005899543874	1	124	NA	419.146673029005	0	0.31	5.47	1	418.735816095003	418.738186153998	"27"	41495.436191994	41493.23715403	1.5	0.1
0.01	1	0.175429767994501	2	124	NA	419.146673029005	0	0.31	5.47	1	418.969659063005	419.145088830999	"27"	41495.436191994	41493.23715403	1.5	0.1
0.01	1	0.00203687199973501	1	13	424.69897623	NA	1	0	5.47	1	421.173353159	421.175390031	"28"	41495.436191994	41493.23715403	1.5	0.1
0.01	1	0.00209856400033459	1	13	424.69897623	NA	1	0	5.47	1	421.407062457001	421.409161021002	"28"	41495.436191994	41493.23715403	1.5	0.1
0.01	1	0.166382078001334	1	13	424.69897623	NA	1	0	5.47	1	421.640800793	421.807182871002	"28"	41495.436191994	41493.23715403	1.5	0.1
0.01	1	0.0305990070046391	1	13	424.69897623	NA	1	0	5.47	1	422.041510529998	422.072109537003	"28"	41495.436191994	41493.23715403	1.5	0.1
0.01	1	0.00198223900224548	1	13	424.69897623	NA	1	0	5.47	1	422.308567929002	422.310550168004	"28"	41495.436191994	41493.23715403	1.5	0.1
0.01	1	0.00213173699739855	1	13	424.69897623	NA	1	0	5.47	1	422.542328034004	422.544459771001	"28"	41495.436191994	41493.23715403	1.5	0.1
0.01	1	0.00450252999871736	1	13	424.69897623	NA	1	0	5.47	1	422.776056938004	422.780559468003	"28"	41495.436191994	41493.23715403	1.5	0.1
0.01	1	0.00196776100347051	1	13	424.69897623	NA	1	0	5.47	1	423.009710940998	423.011678702002	"28"	41495.436191994	41493.23715403	1.5	0.1
0.01	1	0.0216269130032742	1	13	424.69897623	NA	1	0	5.47	1	423.243511877998	423.265138791001	"28"	41495.436191994	41493.23715403	1.5	0.1
0.01	1	0.0827178899999126	1	13	424.69897623	NA	1	0	5.47	1	423.493963908004	423.576681798004	"28"	41495.436191994	41493.23715403	1.5	0.1
0.01	1	0.0931919340000604	1	13	424.69897623	NA	1	0	5.47	1	423.811060960004	423.904252894004	"28"	41495.436191994	41493.23715403	1.5	0.1
0.01	1	0.0797107300022617	1	13	424.69897623	NA	1	0	5.47	1	424.128322723001	424.208033453004	"28"	41495.436191994	41493.23715403	1.5	0.1
0.01	1	0.147192509997694	1	13	424.69897623	NA	1	0	5.47	1	424.445608348004	424.592800858001	"28"	41495.436191994	41493.23715403	1.5	0.1
0.01	1	0.484087386997999	1	125	NA	438.034334263	0	0.22	5.69	1	426.732647035002	427.216734422	"29"	41495.436191994	41493.23715403	1.5	0.1
0.01	1	0.245124720000604	1	125	NA	438.034334263	0	0.22	5.69	1	427.450579618002	427.695704338003	"29"	41495.436191994	41493.23715403	1.5	0.1
0.01	1	0.281535309004539	1	125	NA	438.034334263	0	0.22	5.69	1	427.918031034998	428.199566344003	"29"	41495.436191994	41493.23715403	1.5	0.1
0.01	1	0.308928502003255	1	125	NA	438.034334263	0	0.22	5.69	1	428.435506977999	428.744435480003	"29"	41495.436191994	41493.23715403	1.5	0.1
0.01	1	0.279193203001341	1	125	NA	438.034334263	0	0.22	5.69	1	428.969729650002	429.248922853003	"29"	41495.436191994	41493.23715403	1.5	0.1
0.01	1	0.249284615994839	1	125	NA	438.034334263	0	0.22	5.69	1	429.487285560004	429.736570175999	"29"	41495.436191994	41493.23715403	1.5	0.1
0.01	1	0.228831150001497	1	125	NA	438.034334263	0	0.22	5.69	1	429.971404573	430.200235723001	"29"	41495.436191994	41493.23715403	1.5	0.1
0.01	1	0.289002484998491	1	125	NA	438.034334263	0	0.22	5.69	1	430.438859333	430.727861817999	"29"	41495.436191994	41493.23715403	1.5	0.1
0.01	1	0.260594637002214	1	125	NA	438.034334263	0	0.22	5.69	1	430.956471368001	431.217066005003	"29"	41495.436191994	41493.23715403	1.5	0.1
0.01	1	0.247731866002141	1	125	NA	438.034334263	0	0.22	5.69	1	431.440542643002	431.688274509004	"29"	41495.436191994	41493.23715403	1.5	0.1
0.01	1	0.330502921999141	1	125	NA	438.034334263	0	0.22	5.69	1	431.924743975003	432.255246897003	"29"	41495.436191994	41493.23715403	1.5	0.1
0.01	1	0.275832229002845	1	125	NA	438.034334263	0	0.22	5.69	1	432.492366660001	432.768198889004	"29"	41495.436191994	41493.23715403	1.5	0.1
0.01	1	0.255069844999525	1	125	NA	438.034334263	0	0.22	5.69	1	432.993154192001	433.248224037001	"29"	41495.436191994	41493.23715403	1.5	0.1
0.01	1	0.218135187998996	1	125	NA	438.034334263	0	0.22	5.69	1	433.477447680001	433.695582868	"29"	41495.436191994	41493.23715403	1.5	0.1
0.01	1	0.248700782001833	1	125	NA	438.034334263	0	0.22	5.69	1	433.928042348001	434.176743130003	"29"	41495.436191994	41493.23715403	1.5	0.1
0.01	1	0.267898334001075	1	125	NA	438.034334263	0	0.22	5.69	1	434.412299008	434.680197342001	"29"	41495.436191994	41493.23715403	1.5	0.1
0.01	1	0.215380578003533	1	125	NA	438.034334263	0	0.22	5.69	1	434.913079277998	435.128459856001	"29"	41495.436191994	41493.23715403	1.5	0.1
0.01	1	0.164172831995529	1	125	NA	438.034334263	0	0.22	5.69	1	435.363821618004	435.52799445	"29"	41495.436191994	41493.23715403	1.5	0.1
0.01	1	0.18811767999432	1	125	NA	438.034334263	0	0.22	5.69	1	435.764553819005	435.952671498999	"29"	41495.436191994	41493.23715403	1.5	0.1
0.01	1	0.203136025003914	1	125	NA	438.034334263	0	0.22	5.69	1	436.181891849999	436.385027875003	"29"	41495.436191994	41493.23715403	1.5	0.1
0.01	1	0.183135917999607	1	125	NA	438.034334263	0	0.22	5.69	1	436.615923303005	436.799059221004	"29"	41495.436191994	41493.23715403	1.5	0.1
0.01	1	0.134122756993747	1	125	NA	438.034334263	0	0.22	5.69	1	437.033305738005	437.167428494999	"29"	41495.436191994	41493.23715403	1.5	0.1
0.01	1	0.63201911199576	2	125	NA	438.034334263	0	0.22	5.69	1	437.400698830003	438.032717941998	"29"	41495.436191994	41493.23715403	1.5	0.1
0.01	1	0.233390815999883	1	105	NA	450.760727990004	0	0.25	5.94	1	440.071700113003	440.305090929003	"30"	41495.436191994	41493.23715403	1.5	0.1
0.01	1	0.228566541998589	1	105	NA	450.760727990004	0	0.25	5.94	1	440.539258868004	440.767825410003	"30"	41495.436191994	41493.23715403	1.5	0.1
0.01	1	0.218980074001593	1	105	NA	450.760727990004	0	0.25	5.94	1	440.989950208001	441.208930282002	"30"	41495.436191994	41493.23715403	1.5	0.1
0.01	1	0.206937846000073	1	105	NA	450.760727990004	0	0.25	5.94	1	441.440757233002	441.647695079002	"30"	41495.436191994	41493.23715403	1.5	0.1
0.01	1	0.188375104000443	1	105	NA	450.760727990004	0	0.25	5.94	1	441.874850863001	442.063225967002	"30"	41495.436191994	41493.23715403	1.5	0.1
0.01	1	0.12365953099652	1	105	NA	450.760727990004	0	0.25	5.94	1	442.292077440005	442.415736971001	"30"	41495.436191994	41493.23715403	1.5	0.1
0.01	1	0.109911225001269	1	105	NA	450.760727990004	0	0.25	5.94	1	442.642739918003	442.752651143004	"30"	41495.436191994	41493.23715403	1.5	0.1
0.01	1	0.126979640997888	1	105	NA	450.760727990004	0	0.25	5.94	1	442.976642920003	443.103622561001	"30"	41495.436191994	41493.23715403	1.5	0.1
0.01	1	0.103918446002353	1	105	NA	450.760727990004	0	0.25	5.94	1	443.327265690001	443.431184136003	"30"	41495.436191994	41493.23715403	1.5	0.1
0.01	1	0.210600706996047	1	105	NA	450.760727990004	0	0.25	5.94	1	443.661191160005	443.871791867001	"30"	41495.436191994	41493.23715403	1.5	0.1
0.01	1	0.153038267999364	1	105	NA	450.760727990004	0	0.25	5.94	1	444.095123470004	444.248161738004	"30"	41495.436191994	41493.23715403	1.5	0.1
0.01	1	0.105053035003948	1	105	NA	450.760727990004	0	0.25	5.94	1	444.479136262999	444.584189298002	"30"	41495.436191994	41493.23715403	1.5	0.1
0.01	1	0.355801454003085	1	105	NA	450.760727990004	0	0.25	5.94	1	444.813127328001	445.168928782005	"30"	41495.436191994	41493.23715403	1.5	0.1
0.01	1	0.442008377998718	1	105	NA	450.760727990004	0	0.25	5.94	1	445.397481108004	445.839489486003	"30"	41495.436191994	41493.23715403	1.5	0.1
0.01	1	0.191301201004535	1	105	NA	450.760727990004	0	0.25	5.94	1	446.065226197999	446.256527399004	"30"	41495.436191994	41493.23715403	1.5	0.1
0.01	1	0.142165520999697	1	105	NA	450.760727990004	0	0.25	5.94	1	446.482565190003	446.624730711002	"30"	41495.436191994	41493.23715403	1.5	0.1
0.01	1	0.157414745001006	1	105	NA	450.760727990004	0	0.25	5.94	1	446.849831790001	447.007246535002	"30"	41495.436191994	41493.23715403	1.5	0.1
0.01	1	0.158980856002017	1	105	NA	450.760727990004	0	0.25	5.94	1	447.233783962998	447.392764819	"30"	41495.436191994	41493.23715403	1.5	0.1
0.01	1	0.350817092999932	1	105	NA	450.760727990004	0	0.25	5.94	1	447.617860455	447.968677548	"30"	41495.436191994	41493.23715403	1.5	0.1
0.01	1	0.222182257995883	1	105	NA	450.760727990004	0	0.25	5.94	1	448.202121940005	448.424304198001	"30"	41495.436191994	41493.23715403	1.5	0.1
0.01	1	0.163574932994379	1	105	NA	450.760727990004	0	0.25	5.94	1	448.652852135005	448.816427067999	"30"	41495.436191994	41493.23715403	1.5	0.1
0.01	1	0.179384901995945	1	105	NA	450.760727990004	0	0.25	5.94	1	449.053534488005	449.23291939	"30"	41495.436191994	41493.23715403	1.5	0.1
0.01	1	0.185414494000725	1	105	NA	450.760727990004	0	0.25	5.94	1	449.470926895003	449.656341389004	"30"	41495.436191994	41493.23715403	1.5	0.1
0.01	1	0.0802655049992609	1	105	NA	450.760727990004	0	0.25	5.94	1	449.888397698	449.968663202999	"30"	41495.436191994	41493.23715403	1.5	0.1
0.01	1	0.20220526799676	1	105	NA	450.760727990004	0	0.25	5.94	1	450.205536303001	450.407741570998	"30"	41495.436191994	41493.23715403	1.5	0.1
0.01	1	0.119563802996709	2	105	NA	450.760727990004	0	0.25	5.94	1	450.639594455002	450.759158257999	"30"	41495.436191994	41493.23715403	1.5	0.1
