"payoff.level"	"balloon"	"rt"	"resp"	"explode.trial"	"explode.time"	"finish.time"	"exploded"	"trial.total"	"cumulative.total"	"finished"	"trial.start"	"trial.end"	"trial.num"	"secs"	"start.time"	"iti"	"isi"
0.01	1	1.09859045699704	1	64	50.4247784779873	NA	1	0	0	1	0.023404099047184	1.12199455604423	"1"	966976.085633015	966968.325994509	1.5	0.1
0.01	1	0.485290313954465	1	64	50.4247784779873	NA	1	0	0	1	1.42755371599924	1.9128440299537	"1"	966976.085633015	966968.325994509	1.5	0.1
0.01	1	0.495733375078999	1	64	50.4247784779873	NA	1	0	0	1	2.14605435496196	2.64178773004096	"1"	966976.085633015	966968.325994509	1.5	0.1
0.01	1	0.59988637897186	1	64	50.4247784779873	NA	1	0	0	1	2.86484014499001	3.46472652396187	"1"	966976.085633015	966968.325994509	1.5	0.1
0.01	1	0.540016190963797	1	64	50.4247784779873	NA	1	0	0	1	3.70058584504295	4.24060203600675	"1"	966976.085633015	966968.325994509	1.5	0.1
0.01	1	0.595650542061776	1	64	50.4247784779873	NA	1	0	0	1	4.46959038695786	5.06524092901964	"1"	966976.085633015	966968.325994509	1.5	0.1
0.01	1	0.639928376069292	1	64	50.4247784779873	NA	1	0	0	1	5.28904591896571	5.928974295035	"1"	966976.085633015	966968.325994509	1.5	0.1
0.01	1	0.547891604015604	1	64	50.4247784779873	NA	1	0	0	1	6.15792451403104	6.70581611804664	"1"	966976.085633015	966968.325994509	1.5	0.1
0.01	1	0.579065828002058	1	64	50.4247784779873	NA	1	0	0	1	6.9269419569755	7.50600778497756	"1"	966976.085633015	966968.325994509	1.5	0.1
0.01	1	0.583177652908489	1	64	50.4247784779873	NA	1	0	0	1	7.72949362604413	8.31267127895262	"1"	966976.085633015	966968.325994509	1.5	0.1
0.01	1	0.564418229972944	1	64	50.4247784779873	NA	1	0	0	1	8.54838899103925	9.11280722101219	"1"	966976.085633015	966968.325994509	1.5	0.1
0.01	1	0.698861240991391	1	64	50.4247784779873	NA	1	0	0	1	9.3507663840428	10.0496276250342	"1"	966976.085633015	966968.325994509	1.5	0.1
0.01	1	0.762869602069259	1	64	50.4247784779873	NA	1	0	0	1	10.2701748559484	11.0330444580177	"1"	966976.085633015	966968.325994509	1.5	0.1
0.01	1	0.56067025102675	1	64	50.4247784779873	NA	1	0	0	1	11.2565193009796	11.8171895520063	"1"	966976.085633015	966968.325994509	1.5	0.1
0.01	1	0.488208725932054	1	64	50.4247784779873	NA	1	0	0	1	12.0421689830255	12.5303777089575	"1"	966976.085633015	966968.325994509	1.5	0.1
0.01	1	0.608373182010837	1	64	50.4247784779873	NA	1	0	0	1	12.7609284030041	13.3693015850149	"1"	966976.085633015	966968.325994509	1.5	0.1
0.01	1	0.557525638025254	1	64	50.4247784779873	NA	1	0	0	1	13.5967966329772	14.1543222710025	"1"	966976.085633015	966968.325994509	1.5	0.1
0.01	1	0.55513025005348	1	64	50.4247784779873	NA	1	0	0	1	14.3824433269911	14.9375735770445	"1"	966976.085633015	966968.325994509	1.5	0.1
0.01	1	0.513945088954642	1	64	50.4247784779873	NA	1	0	0	1	15.1681088670157	15.6820539559703	"1"	966976.085633015	966968.325994509	1.5	0.1
0.01	1	0.489745935075916	1	64	50.4247784779873	NA	1	0	0	1	15.9204328319756	16.4101787670515	"1"	966976.085633015	966968.325994509	1.5	0.1
0.01	1	0.481707590981387	1	64	50.4247784779873	NA	1	0	0	1	16.639254180016	17.1209617709974	"1"	966976.085633015	966968.325994509	1.5	0.1
0.01	1	0.740564582054503	1	64	50.4247784779873	NA	1	0	0	1	17.3413190069841	18.0818835890386	"1"	966976.085633015	966968.325994509	1.5	0.1
0.01	1	0.530057528987527	1	64	50.4247784779873	NA	1	0	0	1	18.3108839320485	18.840941461036	"1"	966976.085633015	966968.325994509	1.5	0.1
0.01	1	0.514653919963166	1	64	50.4247784779873	NA	1	0	0	1	19.0634771740297	19.5781310939929	"1"	966976.085633015	966968.325994509	1.5	0.1
0.01	1	0.569613324012607	1	64	50.4247784779873	NA	1	0	0	1	19.8153582389932	20.3849715630058	"1"	966976.085633015	966968.325994509	1.5	0.1
0.01	1	0.535308577003889	1	64	50.4247784779873	NA	1	0	0	1	20.6177804489853	21.1530890259892	"1"	966976.085633015	966968.325994509	1.5	0.1
0.01	1	0.462496825028211	1	64	50.4247784779873	NA	1	0	0	1	21.3867501009954	21.8492469260236	"1"	966976.085633015	966968.325994509	1.5	0.1
0.01	1	0.568530437070876	1	64	50.4247784779873	NA	1	0	0	1	22.0720428209752	22.6405732580461	"1"	966976.085633015	966968.325994509	1.5	0.1
0.01	1	0.54320594004821	1	64	50.4247784779873	NA	1	0	0	1	22.8744322150014	23.4176381550496	"1"	966976.085633015	966968.325994509	1.5	0.1
0.01	1	0.581107667996548	1	64	50.4247784779873	NA	1	0	0	1	23.6434417699929	24.2245494379895	"1"	966976.085633015	966968.325994509	1.5	0.1
0.01	1	0.490671920939349	1	64	50.4247784779873	NA	1	0	0	1	24.4458608500427	24.936532770982	"1"	966976.085633015	966968.325994509	1.5	0.1
0.01	1	0.413092404021882	1	64	50.4247784779873	NA	1	0	0	1	25.1646815380082	25.57777394203	"1"	966976.085633015	966968.325994509	1.5	0.1
0.01	1	0.85656762891449	1	64	50.4247784779873	NA	1	0	0	1	25.8003016250441	26.6568692539586	"1"	966976.085633015	966968.325994509	1.5	0.1
0.01	1	0.418073129956611	1	64	50.4247784779873	NA	1	0	0	1	26.8864344439935	27.3045075739501	"1"	966976.085633015	966968.325994509	1.5	0.1
0.01	1	0.535808735992759	1	64	50.4247784779873	NA	1	0	0	1	27.5383410219802	28.0741497579729	"1"	966976.085633015	966968.325994509	1.5	0.1
0.01	1	0.430695521994494	1	64	50.4247784779873	NA	1	0	0	1	28.3073532970157	28.7380488190101	"1"	966976.085633015	966968.325994509	1.5	0.1
0.01	1	0.514922296046279	1	64	50.4247784779873	NA	1	0	0	1	28.9592529139481	29.4741752099944	"1"	966976.085633015	966968.325994509	1.5	0.1
0.01	1	0.643093400984071	1	64	50.4247784779873	NA	1	0	0	1	29.6948806010187	30.3379740020027	"1"	966976.085633015	966968.325994509	1.5	0.1
0.01	1	0.525173151982017	1	64	50.4247784779873	NA	1	0	0	1	30.5640408489853	31.0892140009673	"1"	966976.085633015	966968.325994509	1.5	0.1
0.01	1	0.605209528934211	1	64	50.4247784779873	NA	1	0	0	1	31.3162837410346	31.9214932699688	"1"	966976.085633015	966968.325994509	1.5	0.1
0.01	1	0.49656200199388	1	64	50.4247784779873	NA	1	0	0	1	32.1521392109571	32.648701212951	"1"	966976.085633015	966968.325994509	1.5	0.1
0.01	1	0.578093084041029	1	64	50.4247784779873	NA	1	0	0	1	32.8713522379985	33.4494453220395	"1"	966976.085633015	966968.325994509	1.5	0.1
0.01	1	0.511583935003728	1	64	50.4247784779873	NA	1	0	0	1	33.6736932259519	34.1852771609556	"1"	966976.085633015	966968.325994509	1.5	0.1
0.01	1	0.512752779992297	1	64	50.4247784779873	NA	1	0	0	1	34.4092911049956	34.9220438849879	"1"	966976.085633015	966968.325994509	1.5	0.1
0.01	1	0.536530297016725	1	64	50.4247784779873	NA	1	0	0	1	35.1448014950147	35.6813317920314	"1"	966976.085633015	966968.325994509	1.5	0.1
0.01	1	0.527662919019349	1	64	50.4247784779873	NA	1	0	0	1	35.91341208003	36.4410749990493	"1"	966976.085633015	966968.325994509	1.5	0.1
0.01	1	0.503223165054806	1	64	50.4247784779873	NA	1	0	0	1	36.6656446269481	37.1688677920029	"1"	966976.085633015	966968.325994509	1.5	0.1
0.01	1	0.583750171004795	1	64	50.4247784779873	NA	1	0	0	1	37.4011242049746	37.9848743759794	"1"	966976.085633015	966968.325994509	1.5	0.1
0.01	1	0.757447095005773	1	64	50.4247784779873	NA	1	0	0	1	38.2202217050362	38.977668800042	"1"	966976.085633015	966968.325994509	1.5	0.1
0.01	1	0.443178565008566	1	64	50.4247784779873	NA	1	0	0	1	39.206564271939	39.6497428369476	"1"	966976.085633015	966968.325994509	1.5	0.1
0.01	1	0.749972119927406	1	64	50.4247784779873	NA	1	0	0	1	39.8752086210297	40.6251807409571	"1"	966976.085633015	966968.325994509	1.5	0.1
0.01	1	0.285188335925341	1	64	50.4247784779873	NA	1	0	0	1	40.8447461610194	41.1299344969448	"1"	966976.085633015	966968.325994509	1.5	0.1
0.01	1	0.55803926801309	1	64	50.4247784779873	NA	1	0	0	1	41.3629589159973	41.9209981840104	"1"	966976.085633015	966968.325994509	1.5	0.1
0.01	1	0.557653344003484	1	64	50.4247784779873	NA	1	0	0	1	42.1486215810291	42.7062749250326	"1"	966976.085633015	966968.325994509	1.5	0.1
0.01	1	0.5958532349905	1	64	50.4247784779873	NA	1	0	0	1	42.9342963510426	43.5301495860331	"1"	966976.085633015	966968.325994509	1.5	0.1
0.01	1	0.63182701705955	1	64	50.4247784779873	NA	1	0	0	1	43.7534673629561	44.3852943800157	"1"	966976.085633015	966968.325994509	1.5	0.1
0.01	1	0.388229781063274	1	64	50.4247784779873	NA	1	0	0	1	44.6059781829827	44.9942079640459	"1"	966976.085633015	966968.325994509	1.5	0.1
0.01	1	0.497754549956881	1	64	50.4247784779873	NA	1	0	0	1	45.2245215550065	45.7222761049634	"1"	966976.085633015	966968.325994509	1.5	0.1
0.01	1	0.529474791022949	1	64	50.4247784779873	NA	1	0	0	1	45.9433429279597	46.4728177189827	"1"	966976.085633015	966968.325994509	1.5	0.1
0.01	1	0.546561219030991	1	64	50.4247784779873	NA	1	0	0	1	46.6956443269737	47.2422055460047	"1"	966976.085633015	966968.325994509	1.5	0.1
0.01	1	0.481180918053724	1	64	50.4247784779873	NA	1	0	0	1	47.4645211269381	47.9457020449918	"1"	966976.085633015	966968.325994509	1.5	0.1
0.01	1	0.546094977064058	1	64	50.4247784779873	NA	1	0	0	1	48.1833086119732	48.7294035890372	"1"	966976.085633015	966968.325994509	1.5	0.1
0.01	1	0.584765470004641	1	64	50.4247784779873	NA	1	0	0	1	48.9522730619647	49.5370385319693	"1"	966976.085633015	966968.325994509	1.5	0.1
0.01	1	0.534225554089062	1	64	50.4247784779873	NA	1	0	0	1	49.771361373947	50.3055869280361	"1"	966976.085633015	966968.325994509	1.5	0.1
0.01	1	0.474350773962215	1	102	NA	73.1068776280154	0	0.28	0.28	1	52.4631459410302	52.9374967149924	"2"	966976.085633015	966968.325994509	1.5	0.1
0.01	1	0.379651195020415	1	102	NA	73.1068776280154	0	0.28	0.28	1	53.1651913960231	53.5448425910436	"2"	966976.085633015	966968.325994509	1.5	0.1
0.01	1	0.921605049050413	1	102	NA	73.1068776280154	0	0.28	0.28	1	53.7833702879725	54.7049753370229	"2"	966976.085633015	966968.325994509	1.5	0.1
0.01	1	0.472110579023138	1	102	NA	73.1068776280154	0	0.28	0.28	1	54.9367360529723	55.4088466319954	"2"	966976.085633015	966968.325994509	1.5	0.1
0.01	1	0.457736575976014	1	102	NA	73.1068776280154	0	0.28	0.28	1	55.6388490779791	56.0965856539551	"2"	966976.085633015	966968.325994509	1.5	0.1
0.01	1	0.492296169977635	1	102	NA	73.1068776280154	0	0.28	0.28	1	56.3242927449755	56.8165889149532	"2"	966976.085633015	966968.325994509	1.5	0.1
0.01	1	0.445722984964959	1	102	NA	73.1068776280154	0	0.28	0.28	1	57.0434948150069	57.4892177999718	"2"	966976.085633015	966968.325994509	1.5	0.1
0.01	1	0.512788876076229	1	102	NA	73.1068776280154	0	0.28	0.28	1	57.7121456449386	58.2249345210148	"2"	966976.085633015	966968.325994509	1.5	0.1
0.01	1	0.409788195043802	1	102	NA	73.1068776280154	0	0.28	0.28	1	58.4476479369914	58.8574361320352	"2"	966976.085633015	966968.325994509	1.5	0.1
0.01	1	0.471052447916009	1	102	NA	73.1068776280154	0	0.28	0.28	1	59.0828569240402	59.5539093719563	"2"	966976.085633015	966968.325994509	1.5	0.1
0.01	1	0.45707973500248	1	102	NA	73.1068776280154	0	0.28	0.28	1	59.7846154969884	60.2416952319909	"2"	966976.085633015	966968.325994509	1.5	0.1
0.01	1	0.354830812895671	1	102	NA	73.1068776280154	0	0.28	0.28	1	60.4699378920486	60.8247687049443	"2"	966976.085633015	966968.325994509	1.5	0.1
0.01	1	0.641734888893552	1	102	NA	73.1068776280154	0	0.28	0.28	1	61.0550472460454	61.696782134939	"2"	966976.085633015	966968.325994509	1.5	0.1
0.01	1	0.476620956906117	1	102	NA	73.1068776280154	0	0.28	0.28	1	61.9242948760511	62.4009158329573	"2"	966976.085633015	966968.325994509	1.5	0.1
0.01	1	0.263308938010596	1	102	NA	73.1068776280154	0	0.28	0.28	1	62.6264368409757	62.8897457789863	"2"	966976.085633015	966968.325994509	1.5	0.1
0.01	1	0.544682771083899	1	102	NA	73.1068776280154	0	0.28	0.28	1	63.1278300839476	63.6725128550315	"2"	966976.085633015	966968.325994509	1.5	0.1
0.01	1	0.495719625032507	1	102	NA	73.1068776280154	0	0.28	0.28	1	63.8968828460202	64.3926024710527	"2"	966976.085633015	966968.325994509	1.5	0.1
0.01	1	0.41811868804507	1	102	NA	73.1068776280154	0	0.28	0.28	1	64.6156098559732	65.0337285440182	"2"	966976.085633015	966968.325994509	1.5	0.1
0.01	1	0.430016579921357	1	102	NA	73.1068776280154	0	0.28	0.28	1	65.2675689810421	65.6975855609635	"2"	966976.085633015	966968.325994509	1.5	0.1
0.01	1	0.490444793947972	1	102	NA	73.1068776280154	0	0.28	0.28	1	65.9195972400485	66.4100420339964	"2"	966976.085633015	966968.325994509	1.5	0.1
0.01	1	0.659925366053358	1	102	NA	73.1068776280154	0	0.28	0.28	1	66.6383903879905	67.2983157540439	"2"	966976.085633015	966968.325994509	1.5	0.1
0.01	1	0.428369359928183	1	102	NA	73.1068776280154	0	0.28	0.28	1	67.5242927300278	67.952662089956	"2"	966976.085633015	966968.325994509	1.5	0.1
0.01	1	0.504716929979622	1	102	NA	73.1068776280154	0	0.28	0.28	1	68.17623370199	68.6809506319696	"2"	966976.085633015	966968.325994509	1.5	0.1
0.01	1	0.562323733000085	1	102	NA	73.1068776280154	0	0.28	0.28	1	68.9118186469423	69.4741423799424	"2"	966976.085633015	966968.325994509	1.5	0.1
0.01	1	0.495284019969404	1	102	NA	73.1068776280154	0	0.28	0.28	1	69.6978130040225	70.1930970239919	"2"	966976.085633015	966968.325994509	1.5	0.1
0.01	1	0.505097526009195	1	102	NA	73.1068776280154	0	0.28	0.28	1	70.416706627002	70.9218041530112	"2"	966976.085633015	966968.325994509	1.5	0.1
0.01	1	0.47275005991105	1	102	NA	73.1068776280154	0	0.28	0.28	1	71.1518229290377	71.6245729889488	"2"	966976.085633015	966968.325994509	1.5	0.1
0.01	1	0.547287901048549	1	102	NA	73.1068776280154	0	0.28	0.28	1	71.8538616789738	72.4011495800223	"2"	966976.085633015	966968.325994509	1.5	0.1
0.01	1	0.482672587037086	2	102	NA	73.1068776280154	0	0.28	0.28	1	72.6228500489378	73.1055226359749	"2"	966976.085633015	966968.325994509	1.5	0.1
0.01	1	0.494315981981345	1	97	NA	110.483519028989	0	0.49	0.77	1	75.1475220429711	75.6418380249524	"3"	966976.085633015	966968.325994509	1.5	0.1
0.01	1	0.423293622094207	1	97	NA	110.483519028989	0	0.49	0.77	1	75.8662221259438	76.289515748038	"3"	966976.085633015	966968.325994509	1.5	0.1
0.01	1	0.61139514495153	1	97	NA	110.483519028989	0	0.49	0.77	1	76.5178239980014	77.1292191429529	"3"	966976.085633015	966968.325994509	1.5	0.1
0.01	1	0.43945442896802	1	97	NA	110.483519028989	0	0.49	0.77	1	77.3536148100393	77.7930692390073	"3"	966976.085633015	966968.325994509	1.5	0.1
0.01	1	0.459623711998574	1	97	NA	110.483519028989	0	0.49	0.77	1	78.0222685600165	78.4818922720151	"3"	966976.085633015	966968.325994509	1.5	0.1
0.01	1	0.406516678049229	1	97	NA	110.483519028989	0	0.49	0.77	1	78.7076981120044	79.1142147900537	"3"	966976.085633015	966968.325994509	1.5	0.1
0.01	1	0.331020119949244	1	97	NA	110.483519028989	0	0.49	0.77	1	79.3429071570281	79.6739272769773	"3"	966976.085633015	966968.325994509	1.5	0.1
0.01	1	0.426639355020598	1	97	NA	110.483519028989	0	0.49	0.77	1	79.8946061419556	80.3212454969762	"3"	966976.085633015	966968.325994509	1.5	0.1
0.01	1	0.510361266089603	1	97	NA	110.483519028989	0	0.49	0.77	1	80.5465647849487	81.0569260510383	"3"	966976.085633015	966968.325994509	1.5	0.1
0.01	1	0.551812844001688	1	97	NA	110.483519028989	0	0.49	0.77	1	81.2820169420447	81.8338297860464	"3"	966976.085633015	966968.325994509	1.5	0.1
0.01	1	0.469470967072994	1	97	NA	110.483519028989	0	0.49	0.77	1	82.0676931539783	82.5371641210513	"3"	966976.085633015	966968.325994509	1.5	0.1
0.01	1	0.407906698994339	1	97	NA	110.483519028989	0	0.49	0.77	1	82.7698101389688	83.1777168379631	"3"	966976.085633015	966968.325994509	1.5	0.1
0.01	1	0.468705700943246	1	97	NA	110.483519028989	0	0.49	0.77	1	83.4049819690408	83.8736876699841	"3"	966976.085633015	966968.325994509	1.5	0.1
0.01	1	0.44616778800264	1	97	NA	110.483519028989	0	0.49	0.77	1	84.107172450982	84.5533402389847	"3"	966976.085633015	966968.325994509	1.5	0.1
0.01	1	0.0016883930657059	1	97	NA	110.483519028989	0	0.49	0.77	1	84.7758271379862	84.7775155310519	"3"	966976.085633015	966968.325994509	1.5	0.1
0.01	1	0.46367777895648	1	97	NA	110.483519028989	0	0.49	0.77	1	85.0098395580426	85.4735173369991	"3"	966976.085633015	966968.325994509	1.5	0.1
0.01	1	0.441910604014993	1	97	NA	110.483519028989	0	0.49	0.77	1	85.7119341309881	86.1538447350031	"3"	966976.085633015	966968.325994509	1.5	0.1
0.01	1	0.580285578034818	1	97	NA	110.483519028989	0	0.49	0.77	1	86.3806361659663	86.9609217440011	"3"	966976.085633015	966968.325994509	1.5	0.1
0.01	1	0.466539775952697	1	97	NA	110.483519028989	0	0.49	0.77	1	87.1830187080195	87.6495584839722	"3"	966976.085633015	966968.325994509	1.5	0.1
0.01	1	0.500103797065094	1	97	NA	110.483519028989	0	0.49	0.77	1	87.8850499329856	88.3851537300507	"3"	966976.085633015	966968.325994509	1.5	0.1
0.01	1	0.43621870293282	1	97	NA	110.483519028989	0	0.49	0.77	1	88.6206190730445	89.0568377759773	"3"	966976.085633015	966968.325994509	1.5	0.1
0.01	1	0.439279137994163	1	97	NA	110.483519028989	0	0.49	0.77	1	89.289308574982	89.7285877129762	"3"	966976.085633015	966968.325994509	1.5	0.1
0.01	1	0.419185462989844	1	97	NA	110.483519028989	0	0.49	0.77	1	89.9578895670129	90.3770750300027	"3"	966976.085633015	966968.325994509	1.5	0.1
0.01	1	0.471433247090317	1	97	NA	110.483519028989	0	0.49	0.77	1	90.6099109549541	91.0813442020444	"3"	966976.085633015	966968.325994509	1.5	0.1
0.01	1	0.490060126991011	1	97	NA	110.483519028989	0	0.49	0.77	1	91.3118989970535	91.8019591240445	"3"	966976.085633015	966968.325994509	1.5	0.1
0.01	1	0.451540436944924	1	97	NA	110.483519028989	0	0.49	0.77	1	92.0307668190217	92.4823072559666	"3"	966976.085633015	966968.325994509	1.5	0.1
0.01	1	0.55753431993071	1	97	NA	110.483519028989	0	0.49	0.77	1	92.716098304023	93.2736326239537	"3"	966976.085633015	966968.325994509	1.5	0.1
0.01	1	0.515536726103164	1	97	NA	110.483519028989	0	0.49	0.77	1	93.5018499889411	94.0173867150443	"3"	966976.085633015	966968.325994509	1.5	0.1
0.01	1	0.475315765012056	1	97	NA	110.483519028989	0	0.49	0.77	1	94.2373510559555	94.7126668209676	"3"	966976.085633015	966968.325994509	1.5	0.1
0.01	1	0.517528620082885	1	97	NA	110.483519028989	0	0.49	0.77	1	94.9398639339488	95.4573925540317	"3"	966976.085633015	966968.325994509	1.5	0.1
0.01	1	0.493305624928325	1	97	NA	110.483519028989	0	0.49	0.77	1	95.6916891080327	96.1849947329611	"3"	966976.085633015	966968.325994509	1.5	0.1
0.01	1	0.48753562499769	1	97	NA	110.483519028989	0	0.49	0.77	1	96.4104531679768	96.8979887929745	"3"	966976.085633015	966968.325994509	1.5	0.1
0.01	1	0.576644057990052	1	97	NA	110.483519028989	0	0.49	0.77	1	97.1292548159836	97.7058988739736	"3"	966976.085633015	966968.325994509	1.5	0.1
0.01	1	0.397154309088364	1	97	NA	110.483519028989	0	0.49	0.77	1	97.9317006679485	98.3288549770368	"3"	966976.085633015	966968.325994509	1.5	0.1
0.01	1	0.562991179060191	1	97	NA	110.483519028989	0	0.49	0.77	1	98.56689154997	99.1298827290302	"3"	966976.085633015	966968.325994509	1.5	0.1
0.01	1	0.457285652053542	1	97	NA	110.483519028989	0	0.49	0.77	1	99.3525933179772	99.8098789700307	"3"	966976.085633015	966968.325994509	1.5	0.1
0.01	1	0.508153986069374	1	97	NA	110.483519028989	0	0.49	0.77	1	100.038058039965	100.546212026034	"3"	966976.085633015	966968.325994509	1.5	0.1
0.01	1	0.54871906992048	1	97	NA	110.483519028989	0	0.49	0.77	1	100.773475802038	101.322194871958	"3"	966976.085633015	966968.325994509	1.5	0.1
0.01	1	0.449816546053626	1	97	NA	110.483519028989	0	0.49	0.77	1	101.559210609994	102.009027156048	"3"	966976.085633015	966968.325994509	1.5	0.1
0.01	1	0.492731109028682	1	97	NA	110.483519028989	0	0.49	0.77	1	102.244559796993	102.737290906021	"3"	966976.085633015	966968.325994509	1.5	0.1
0.01	1	0.501699325046502	1	97	NA	110.483519028989	0	0.49	0.77	1	102.963351401966	103.465050727013	"3"	966976.085633015	966968.325994509	1.5	0.1
0.01	1	0.495242750039324	1	97	NA	110.483519028989	0	0.49	0.77	1	103.698896988994	104.194139739033	"3"	966976.085633015	966968.325994509	1.5	0.1
0.01	1	0.478555995970964	1	97	NA	110.483519028989	0	0.49	0.77	1	104.41813461401	104.896690609981	"3"	966976.085633015	966968.325994509	1.5	0.1
0.01	1	0.512703070067801	1	97	NA	110.483519028989	0	0.49	0.77	1	105.120188780944	105.632891851012	"3"	966976.085633015	966968.325994509	1.5	0.1
0.01	1	0.466298151994124	1	97	NA	110.483519028989	0	0.49	0.77	1	105.855759163969	106.322057315963	"3"	966976.085633015	966968.325994509	1.5	0.1
0.01	1	0.811636282945983	1	97	NA	110.483519028989	0	0.49	0.77	1	106.557409439003	107.369045721949	"3"	966976.085633015	966968.325994509	1.5	0.1
0.01	1	0.622741337050684	1	97	NA	110.483519028989	0	0.49	0.77	1	107.593851187965	108.216592525016	"3"	966976.085633015	966968.325994509	1.5	0.1
0.01	1	0.507850088062696	1	97	NA	110.483519028989	0	0.49	0.77	1	108.446424660971	108.954274749034	"3"	966976.085633015	966968.325994509	1.5	0.1
0.01	1	0.634612248977646	1	97	NA	110.483519028989	0	0.49	0.77	1	109.181972134975	109.816584383952	"3"	966976.085633015	966968.325994509	1.5	0.1
0.01	1	0.430917179095559	2	97	NA	110.483519028989	0	0.49	0.77	1	110.05119071994	110.482107899035	"3"	966976.085633015	966968.325994509	1.5	0.1
0.01	1	0.667513461085036	1	51	149.035640044021	NA	1	0	0.77	1	112.525271286955	113.19278474804	"4"	966976.085633015	966968.325994509	1.5	0.1
0.01	1	0.422047841013409	1	51	149.035640044021	NA	1	0	0.77	1	113.427961861948	113.850009702961	"4"	966976.085633015	966968.325994509	1.5	0.1
0.01	1	0.553151872940361	1	51	149.035640044021	NA	1	0	0.77	1	114.079858114012	114.633009986952	"4"	966976.085633015	966968.325994509	1.5	0.1
0.01	1	0.470860401983373	1	51	149.035640044021	NA	1	0	0.77	1	114.86561040103	115.336470803013	"4"	966976.085633015	966968.325994509	1.5	0.1
0.01	1	0.272999657085165	1	51	149.035640044021	NA	1	0	0.77	1	115.567683383939	115.840683041024	"4"	966976.085633015	966968.325994509	1.5	0.1
0.01	1	0.564800010994077	1	51	149.035640044021	NA	1	0	0.77	1	116.069162701024	116.633962712018	"4"	966976.085633015	966968.325994509	1.5	0.1
0.01	1	0.48222414101474	1	51	149.035640044021	NA	1	0	0.77	1	116.871536105988	117.353760247002	"4"	966976.085633015	966968.325994509	1.5	0.1
0.01	1	0.691546696005389	1	51	149.035640044021	NA	1	0	0.77	1	117.573603095952	118.265149791958	"4"	966976.085633015	966968.325994509	1.5	0.1
0.01	1	0.491540548042394	1	51	149.035640044021	NA	1	0	0.77	1	118.49307733099	118.984617879032	"4"	966976.085633015	966968.325994509	1.5	0.1
0.01	1	0.428784074960276	1	51	149.035640044021	NA	1	0	0.77	1	119.211921463022	119.640705537982	"4"	966976.085633015	966968.325994509	1.5	0.1
0.01	1	0.472420006990433	1	51	149.035640044021	NA	1	0	0.77	1	119.864143235958	120.336563242949	"4"	966976.085633015	966968.325994509	1.5	0.1
0.01	1	0.547151861013845	1	51	149.035640044021	NA	1	0	0.77	1	120.565920214984	121.113072075997	"4"	966976.085633015	966968.325994509	1.5	0.1
0.01	1	0.27448301599361	1	51	149.035640044021	NA	1	0	0.77	1	121.334842980024	121.609325996018	"4"	966976.085633015	966968.325994509	1.5	0.1
0.01	1	0.549698472954333	1	51	149.035640044021	NA	1	0	0.77	1	121.83634459204	122.386043064995	"4"	966976.085633015	966968.325994509	1.5	0.1
0.01	1	0.378910294966772	1	51	149.035640044021	NA	1	0	0.77	1	122.622019396978	123.000929691945	"4"	966976.085633015	966968.325994509	1.5	0.1
0.01	1	0.456924158963375	1	51	149.035640044021	NA	1	0	0.77	1	123.223892687005	123.680816845968	"4"	966976.085633015	966968.325994509	1.5	0.1
0.01	1	0.525016139959916	1	51	149.035640044021	NA	1	0	0.77	1	123.909213859006	124.434229998966	"4"	966976.085633015	966968.325994509	1.5	0.1
0.01	1	0.451926545007154	1	51	149.035640044021	NA	1	0	0.77	1	124.661461053998	125.113387599005	"4"	966976.085633015	966968.325994509	1.5	0.1
0.01	1	0.00176470098085701	1	51	149.035640044021	NA	1	0	0.77	1	125.34682890703	125.348593608011	"4"	966976.085633015	966968.325994509	1.5	0.1
0.01	1	0.500640688929707	1	51	149.035640044021	NA	1	0	0.77	1	125.580817259033	126.081457947963	"4"	966976.085633015	966968.325994509	1.5	0.1
0.01	1	0.476844204938971	1	51	149.035640044021	NA	1	0	0.77	1	126.316384259029	126.793228463968	"4"	966976.085633015	966968.325994509	1.5	0.1
0.01	1	0.477740986039862	1	51	149.035640044021	NA	1	0	0.77	1	127.01894451899	127.49668550503	"4"	966976.085633015	966968.325994509	1.5	0.1
0.01	1	0.487700704019517	1	51	149.035640044021	NA	1	0	0.77	1	127.720978040947	128.208678744966	"4"	966976.085633015	966968.325994509	1.5	0.1
0.01	1	0.473419710993767	1	51	149.035640044021	NA	1	0	0.77	1	128.439362728037	128.912782439031	"4"	966976.085633015	966968.325994509	1.5	0.1
0.01	1	0.44350369006861	1	51	149.035640044021	NA	1	0	0.77	1	129.141472965945	129.584976656013	"4"	966976.085633015	966968.325994509	1.5	0.1
0.01	1	0.438475437927991	1	51	149.035640044021	NA	1	0	0.77	1	129.810109380051	130.248584817979	"4"	966976.085633015	966968.325994509	1.5	0.1
0.01	1	0.418519311002456	1	51	149.035640044021	NA	1	0	0.77	1	130.478780888021	130.897300199023	"4"	966976.085633015	966968.325994509	1.5	0.1
0.01	1	0.430150661966763	1	51	149.035640044021	NA	1	0	0.77	1	131.130800812971	131.560951474938	"4"	966976.085633015	966968.325994509	1.5	0.1
0.01	1	0.513501681969501	1	51	149.035640044021	NA	1	0	0.77	1	131.79943905503	132.312940737	"4"	966976.085633015	966968.325994509	1.5	0.1
0.01	1	0.49141292704735	1	51	149.035640044021	NA	1	0	0.77	1	132.534932799987	133.026345727034	"4"	966976.085633015	966968.325994509	1.5	0.1
0.01	1	0.466775177046657	1	51	149.035640044021	NA	1	0	0.77	1	133.253758489969	133.720533667016	"4"	966976.085633015	966968.325994509	1.5	0.1
0.01	1	0.509400674956851	1	51	149.035640044021	NA	1	0	0.77	1	133.95580967702	134.465210351977	"4"	966976.085633015	966968.325994509	1.5	0.1
0.01	1	0.486037374008447	1	51	149.035640044021	NA	1	0	0.77	1	134.691771122045	135.177808496053	"4"	966976.085633015	966968.325994509	1.5	0.1
0.01	1	0.494355567963794	1	51	149.035640044021	NA	1	0	0.77	1	135.410187573987	135.904543141951	"4"	966976.085633015	966968.325994509	1.5	0.1
0.01	1	0.528405393008143	1	51	149.035640044021	NA	1	0	0.77	1	136.129023088957	136.657428481965	"4"	966976.085633015	966968.325994509	1.5	0.1
0.01	1	0.52052491705399	1	51	149.035640044021	NA	1	0	0.77	1	136.881260731956	137.40178564901	"4"	966976.085633015	966968.325994509	1.5	0.1
0.01	1	0.48807345808018	1	51	149.035640044021	NA	1	0	0.77	1	137.633526728954	138.121600187034	"4"	966976.085633015	966968.325994509	1.5	0.1
0.01	1	0.560231099021621	1	51	149.035640044021	NA	1	0	0.77	1	138.352308774018	138.912539873039	"4"	966976.085633015	966968.325994509	1.5	0.1
0.01	1	0.519255768042058	1	51	149.035640044021	NA	1	0	0.77	1	139.138003322994	139.657259091036	"4"	966976.085633015	966968.325994509	1.5	0.1
0.01	1	0.575392920058221	1	51	149.035640044021	NA	1	0	0.77	1	139.89019524795	140.465588168008	"4"	966976.085633015	966968.325994509	1.5	0.1
0.01	1	0.437425400014035	1	51	149.035640044021	NA	1	0	0.77	1	140.692606361001	141.130031761015	"4"	966976.085633015	966968.325994509	1.5	0.1
0.01	1	0.600039524957538	1	51	149.035640044021	NA	1	0	0.77	1	141.361185854999	141.961225379957	"4"	966976.085633015	966968.325994509	1.5	0.1
0.01	1	0.588132056058384	1	51	149.035640044021	NA	1	0	0.77	1	142.197111994959	142.785244051018	"4"	966976.085633015	966968.325994509	1.5	0.1
0.01	1	0.51373606803827	1	51	149.035640044021	NA	1	0	0.77	1	143.016191066941	143.52992713498	"4"	966976.085633015	966968.325994509	1.5	0.1
0.01	1	0.54568131105043	1	51	149.035640044021	NA	1	0	0.77	1	143.751695264946	144.297376575996	"4"	966976.085633015	966968.325994509	1.5	0.1
0.01	1	0.504637086996809	1	51	149.035640044021	NA	1	0	0.77	1	144.521017714986	145.025654801982	"4"	966976.085633015	966968.325994509	1.5	0.1
0.01	1	0.528360947035253	1	51	149.035640044021	NA	1	0	0.77	1	145.256198049989	145.784558997024	"4"	966976.085633015	966968.325994509	1.5	0.1
0.01	1	0.505017001996748	1	51	149.035640044021	NA	1	0	0.77	1	146.008424208965	146.513441210962	"4"	966976.085633015	966968.325994509	1.5	0.1
0.01	1	0.720905137015507	1	51	149.035640044021	NA	1	0	0.77	1	146.744015885983	147.464921022998	"4"	966976.085633015	966968.325994509	1.5	0.1
0.01	1	0.496502898982726	1	51	149.035640044021	NA	1	0	0.77	1	147.696836006013	148.193338904995	"4"	966976.085633015	966968.325994509	1.5	0.1
0.01	1	0.49761512700934	1	51	149.035640044021	NA	1	0	0.77	1	148.416045374004	148.913660501014	"4"	966976.085633015	966968.325994509	1.5	0.1
0.01	1	0.624430872034281	1	116	NA	185.731016178965	0	0.47	1.24	1	151.073984990944	151.698415862978	"5"	966976.085633015	966968.325994509	1.5	0.1
0.01	1	0.402610742021352	1	116	NA	185.731016178965	0	0.47	1.24	1	151.926551013021	152.329161755042	"5"	966976.085633015	966968.325994509	1.5	0.1
0.01	1	0.43161075306125	1	116	NA	185.731016178965	0	0.47	1.24	1	152.56131244998	152.992923203041	"5"	966976.085633015	966968.325994509	1.5	0.1
0.01	1	0.492729497957043	1	116	NA	185.731016178965	0	0.47	1.24	1	153.213234142982	153.705963640939	"5"	966976.085633015	966968.325994509	1.5	0.1
0.01	1	0.66989207896404	1	116	NA	185.731016178965	0	0.47	1.24	1	153.932147209998	154.602039288962	"5"	966976.085633015	966968.325994509	1.5	0.1
0.01	1	0.486658290959895	1	116	NA	185.731016178965	0	0.47	1.24	1	154.834774757037	155.321433047997	"5"	966976.085633015	966968.325994509	1.5	0.1
0.01	1	0.407211080077104	1	116	NA	185.731016178965	0	0.47	1.24	1	155.55363505194	155.960846132017	"5"	966976.085633015	966968.325994509	1.5	0.1
0.01	1	0.444518284057267	1	116	NA	185.731016178965	0	0.47	1.24	1	156.188799876953	156.63331816101	"5"	966976.085633015	966968.325994509	1.5	0.1
0.01	1	0.543708615005016	1	116	NA	185.731016178965	0	0.47	1.24	1	156.857528946945	157.40123756195	"5"	966976.085633015	966968.325994509	1.5	0.1
0.01	1	0.479146820027381	1	116	NA	185.731016178965	0	0.47	1.24	1	157.626499313978	158.105646134005	"5"	966976.085633015	966968.325994509	1.5	0.1
0.01	1	0.312881579971872	1	116	NA	185.731016178965	0	0.47	1.24	1	158.328533521038	158.64141510101	"5"	966976.085633015	966968.325994509	1.5	0.1
0.01	1	0.401031428016722	1	116	NA	185.731016178965	0	0.47	1.24	1	158.863897065981	159.264928493998	"5"	966976.085633015	966968.325994509	1.5	0.1
0.01	1	0.50240302295424	1	116	NA	185.731016178965	0	0.47	1.24	1	159.498639054014	160.001042076969	"5"	966976.085633015	966968.325994509	1.5	0.1
0.01	1	0.382273321971297	1	116	NA	185.731016178965	0	0.47	1.24	1	160.234257356031	160.616530678002	"5"	966976.085633015	966968.325994509	1.5	0.1
0.01	1	0.501053304993547	1	116	NA	185.731016178965	0	0.47	1.24	1	160.852736365981	161.353789670975	"5"	966976.085633015	966968.325994509	1.5	0.1
0.01	1	0.453630295000039	1	116	NA	185.731016178965	0	0.47	1.24	1	161.588230377994	162.041860672995	"5"	966976.085633015	966968.325994509	1.5	0.1
0.01	1	0.440394092933275	1	116	NA	185.731016178965	0	0.47	1.24	1	162.273620296037	162.71401438897	"5"	966976.085633015	966968.325994509	1.5	0.1
0.01	1	0.315396495978348	1	116	NA	185.731016178965	0	0.47	1.24	1	162.942321132985	163.257717628963	"5"	966976.085633015	966968.325994509	1.5	0.1
0.01	1	0.667951497016475	1	116	NA	185.731016178965	0	0.47	1.24	1	163.477221754962	164.145173251978	"5"	966976.085633015	966968.325994509	1.5	0.1
0.01	1	0.612896792939864	1	116	NA	185.731016178965	0	0.47	1.24	1	164.379871558049	164.992768350989	"5"	966976.085633015	966968.325994509	1.5	0.1
0.01	1	0.441862423089333	1	116	NA	185.731016178965	0	0.47	1.24	1	165.215779294958	165.657641718048	"5"	966976.085633015	966968.325994509	1.5	0.1
0.01	1	0.48488428699784	1	116	NA	185.731016178965	0	0.47	1.24	1	165.884817474987	166.369701761985	"5"	966976.085633015	966968.325994509	1.5	0.1
0.01	1	0.549770332989283	1	116	NA	185.731016178965	0	0.47	1.24	1	166.603326339042	167.153096672031	"5"	966976.085633015	966968.325994509	1.5	0.1
0.01	1	0.572910169023089	1	116	NA	185.731016178965	0	0.47	1.24	1	167.388926237007	167.96183640603	"5"	966976.085633015	966968.325994509	1.5	0.1
0.01	1	0.546528366045095	1	116	NA	185.731016178965	0	0.47	1.24	1	168.191318128956	168.737846495002	"5"	966976.085633015	966968.325994509	1.5	0.1
0.01	1	0.521178489085287	1	116	NA	185.731016178965	0	0.47	1.24	1	168.960255670943	169.481434160029	"5"	966976.085633015	966968.325994509	1.5	0.1
0.01	1	0.512997430982068	1	116	NA	185.731016178965	0	0.47	1.24	1	169.71256353904	170.225560970022	"5"	966976.085633015	966968.325994509	1.5	0.1
0.01	1	0.498153832973912	1	116	NA	185.731016178965	0	0.47	1.24	1	170.448058941052	170.946212774026	"5"	966976.085633015	966968.325994509	1.5	0.1
0.01	1	0.513765295036137	1	116	NA	185.731016178965	0	0.47	1.24	1	171.166842576	171.680607871036	"5"	966976.085633015	966968.325994509	1.5	0.1
0.01	1	0.522652905900031	1	116	NA	185.731016178965	0	0.47	1.24	1	171.902342851041	172.424995756941	"5"	966976.085633015	966968.325994509	1.5	0.1
0.01	1	0.578789573977701	1	116	NA	185.731016178965	0	0.47	1.24	1	172.654533065972	173.23332263995	"5"	966976.085633015	966968.325994509	1.5	0.1
0.01	1	0.416738444007933	1	116	NA	185.731016178965	0	0.47	1.24	1	173.456975720008	173.873714164016	"5"	966976.085633015	966968.325994509	1.5	0.1
0.01	1	0.452682870090939	1	116	NA	185.731016178965	0	0.47	1.24	1	174.10888274794	174.561565618031	"5"	966976.085633015	966968.325994509	1.5	0.1
0.01	1	0.526567621040158	1	116	NA	185.731016178965	0	0.47	1.24	1	174.794355542981	175.320923164021	"5"	966976.085633015	966968.325994509	1.5	0.1
0.01	1	0.486918770940974	1	116	NA	185.731016178965	0	0.47	1.24	1	175.546918213018	176.033836983959	"5"	966976.085633015	966968.325994509	1.5	0.1
0.01	1	0.431588136008941	1	116	NA	185.731016178965	0	0.47	1.24	1	176.265392447007	176.696980583016	"5"	966976.085633015	966968.325994509	1.5	0.1
0.01	1	0.659743889933452	1	116	NA	185.731016178965	0	0.47	1.24	1	176.917317289044	177.577061178978	"5"	966976.085633015	966968.325994509	1.5	0.1
0.01	1	0.501781673985533	1	116	NA	185.731016178965	0	0.47	1.24	1	177.803314693971	178.305096367956	"5"	966976.085633015	966968.325994509	1.5	0.1
0.01	1	0.470617993036285	1	116	NA	185.731016178965	0	0.47	1.24	1	178.538830331992	179.009448325029	"5"	966976.085633015	966968.325994509	1.5	0.1
0.01	1	0.447853508987464	1	116	NA	185.731016178965	0	0.47	1.24	1	179.240922293975	179.688775802962	"5"	966976.085633015	966968.325994509	1.5	0.1
0.01	1	0.531737512908876	1	116	NA	185.731016178965	0	0.47	1.24	1	179.909595862031	180.44133337494	"5"	966976.085633015	966968.325994509	1.5	0.1
0.01	1	0.476204241043888	1	116	NA	185.731016178965	0	0.47	1.24	1	180.661769140977	181.137973382021	"5"	966976.085633015	966968.325994509	1.5	0.1
0.01	1	0.550443941960111	1	116	NA	185.731016178965	0	0.47	1.24	1	181.363863531034	181.914307472995	"5"	966976.085633015	966968.325994509	1.5	0.1
0.01	1	0.595675357966684	1	116	NA	185.731016178965	0	0.47	1.24	1	182.149729543016	182.745404900983	"5"	966976.085633015	966968.325994509	1.5	0.1
0.01	1	0.561143793980591	1	116	NA	185.731016178965	0	0.47	1.24	1	182.968726773048	183.529870567028	"5"	966976.085633015	966968.325994509	1.5	0.1
0.01	1	0.518762112013064	1	116	NA	185.731016178965	0	0.47	1.24	1	183.754360530991	184.273122643004	"5"	966976.085633015	966968.325994509	1.5	0.1
0.01	1	0.479300840990618	1	116	NA	185.731016178965	0	0.47	1.24	1	184.506682954961	184.985983795952	"5"	966976.085633015	966968.325994509	1.5	0.1
0.01	1	0.520534801064059	2	116	NA	185.731016178965	0	0.47	1.24	1	185.209109792951	185.729644594016	"5"	966976.085633015	966968.325994509	1.5	0.1
0.01	1	0.522034142981283	1	118	NA	222.722446897998	0	0.52	1.76	1	187.76669450698	188.288728649961	"6"	966976.085633015	966968.325994509	1.5	0.1
0.01	1	0.362142405007035	1	118	NA	222.722446897998	0	0.52	1.76	1	188.518617241993	188.880759647	"6"	966976.085633015	966968.325994509	1.5	0.1
0.01	1	0.00165792694315314	1	118	NA	222.722446897998	0	0.52	1.76	1	189.103683709051	189.105341635994	"6"	966976.085633015	966968.325994509	1.5	0.1
0.01	1	0.44767430506181	1	118	NA	222.722446897998	0	0.52	1.76	1	189.33769938699	189.785373692052	"6"	966976.085633015	966968.325994509	1.5	0.1
0.01	1	0.467073570936918	1	118	NA	222.722446897998	0	0.52	1.76	1	190.006320629036	190.473394199973	"6"	966976.085633015	966968.325994509	1.5	0.1
0.01	1	0.484751132084057	1	118	NA	222.722446897998	0	0.52	1.76	1	190.708469560952	191.193220693036	"6"	966976.085633015	966968.325994509	1.5	0.1
0.01	1	0.405387441976927	1	118	NA	222.722446897998	0	0.52	1.76	1	191.42730444402	191.832691885997	"6"	966976.085633015	966968.325994509	1.5	0.1
0.01	1	0.521985845989548	1	118	NA	222.722446897998	0	0.52	1.76	1	192.062541574007	192.584527419996	"6"	966976.085633015	966968.325994509	1.5	0.1
0.01	1	0.370671862037852	1	118	NA	222.722446897998	0	0.52	1.76	1	192.814718956011	193.185390818049	"6"	966976.085633015	966968.325994509	1.5	0.1
0.01	1	0.496740507078357	1	118	NA	222.722446897998	0	0.52	1.76	1	193.416521040956	193.913261548034	"6"	966976.085633015	966968.325994509	1.5	0.1
0.01	1	0.346848350018263	1	118	NA	222.722446897998	0	0.52	1.76	1	194.135312260943	194.482160610962	"6"	966976.085633015	966968.325994509	1.5	0.1
0.01	1	0.417472218978219	1	118	NA	222.722446897998	0	0.52	1.76	1	194.720434710965	195.137906929944	"6"	966976.085633015	966968.325994509	1.5	0.1
0.01	1	0.293732934980653	1	118	NA	222.722446897998	0	0.52	1.76	1	195.372347102966	195.666080037947	"6"	966976.085633015	966968.325994509	1.5	0.1
0.01	1	0.446643503033556	1	118	NA	222.722446897998	0	0.52	1.76	1	195.890551295015	196.337194798049	"6"	966976.085633015	966968.325994509	1.5	0.1
0.01	1	0.289325485937297	1	118	NA	222.722446897998	0	0.52	1.76	1	196.559244205011	196.848569690948	"6"	966976.085633015	966968.325994509	1.5	0.1
0.01	1	0.500552259967662	1	118	NA	222.722446897998	0	0.52	1.76	1	197.077478721971	197.578030981938	"6"	966976.085633015	966968.325994509	1.5	0.1
0.01	1	0.404155796044506	1	118	NA	222.722446897998	0	0.52	1.76	1	197.812960361945	198.21711615799	"6"	966976.085633015	966968.325994509	1.5	0.1
0.01	1	0.45657844399102	1	118	NA	222.722446897998	0	0.52	1.76	1	198.448189159972	198.904767603963	"6"	966976.085633015	966968.325994509	1.5	0.1
0.01	1	0.356048565008678	1	118	NA	222.722446897998	0	0.52	1.76	1	199.133617948974	199.489666513982	"6"	966976.085633015	966968.325994509	1.5	0.1
0.01	1	0.322500920039602	1	118	NA	222.722446897998	0	0.52	1.76	1	199.718683774001	200.041184694041	"6"	966976.085633015	966968.325994509	1.5	0.1
0.01	1	0.475831436924636	1	118	NA	222.722446897998	0	0.52	1.76	1	200.270260142046	200.746091578971	"6"	966976.085633015	966968.325994509	1.5	0.1
0.01	1	0.469198020990007	1	118	NA	222.722446897998	0	0.52	1.76	1	200.972765348968	201.441963369958	"6"	966976.085633015	966968.325994509	1.5	0.1
0.01	1	0.518080423003994	1	118	NA	222.722446897998	0	0.52	1.76	1	201.674508498982	202.192588921986	"6"	966976.085633015	966968.325994509	1.5	0.1
0.01	1	0.462136586080305	1	118	NA	222.722446897998	0	0.52	1.76	1	202.42670968594	202.888846272021	"6"	966976.085633015	966968.325994509	1.5	0.1
0.01	1	0.465226673986763	1	118	NA	222.722446897998	0	0.52	1.76	1	203.112140269019	203.577366943005	"6"	966976.085633015	966968.325994509	1.5	0.1
0.01	1	0.00179227697663009	1	118	NA	222.722446897998	0	0.52	1.76	1	203.797470098012	203.799262374989	"6"	966976.085633015	966968.325994509	1.5	0.1
0.01	1	0.250569761963561	1	118	NA	222.722446897998	0	0.52	1.76	1	204.031534463051	204.282104225014	"6"	966976.085633015	966968.325994509	1.5	0.1
0.01	1	0.501071115024388	1	118	NA	222.722446897998	0	0.52	1.76	1	204.516267998028	205.017339113052	"6"	966976.085633015	966968.325994509	1.5	0.1
0.01	1	0.501668052049354	1	118	NA	222.722446897998	0	0.52	1.76	1	205.251815667958	205.753483720007	"6"	966976.085633015	966968.325994509	1.5	0.1
0.01	1	0.382177285035141	1	118	NA	222.722446897998	0	0.52	1.76	1	205.987403968	206.369581253035	"6"	966976.085633015	966968.325994509	1.5	0.1
0.01	1	0.381113608018495	1	118	NA	222.722446897998	0	0.52	1.76	1	206.589124158025	206.970237766043	"6"	966976.085633015	966968.325994509	1.5	0.1
0.01	1	0.458081756951287	1	118	NA	222.722446897998	0	0.52	1.76	1	207.190910910023	207.648992666975	"6"	966976.085633015	966968.325994509	1.5	0.1
0.01	1	0.557619864004664	1	118	NA	222.722446897998	0	0.52	1.76	1	207.876724704984	208.434344568988	"6"	966976.085633015	966968.325994509	1.5	0.1
0.01	1	0.267295901081525	1	118	NA	222.722446897998	0	0.52	1.76	1	208.662009706954	208.929305608035	"6"	966976.085633015	966968.325994509	1.5	0.1
0.01	1	0.51053910003975	1	118	NA	222.722446897998	0	0.52	1.76	1	209.163464432	209.67400353204	"6"	966976.085633015	966968.325994509	1.5	0.1
0.01	1	0.494842365966178	1	118	NA	222.722446897998	0	0.52	1.76	1	209.899074451998	210.393916817964	"6"	966976.085633015	966968.325994509	1.5	0.1
0.01	1	0.399253919022158	1	118	NA	222.722446897998	0	0.52	1.76	1	210.617781333975	211.017035252997	"6"	966976.085633015	966968.325994509	1.5	0.1
0.01	1	0.572768620913848	1	118	NA	222.722446897998	0	0.52	1.76	1	211.253035519039	211.825804139953	"6"	966976.085633015	966968.325994509	1.5	0.1
0.01	1	0.521765663987026	1	118	NA	222.722446897998	0	0.52	1.76	1	212.055433770991	212.577199434978	"6"	966976.085633015	966968.325994509	1.5	0.1
0.01	1	0.458519387058914	1	118	NA	222.722446897998	0	0.52	1.76	1	212.807655023993	213.266174411052	"6"	966976.085633015	966968.325994509	1.5	0.1
0.01	1	0.468377376906574	1	118	NA	222.722446897998	0	0.52	1.76	1	213.493144014035	213.961521390942	"6"	966976.085633015	966968.325994509	1.5	0.1
0.01	1	0.525402756989934	1	118	NA	222.722446897998	0	0.52	1.76	1	214.19514070102	214.72054345801	"6"	966976.085633015	966968.325994509	1.5	0.1
0.01	1	0.565048296004534	1	118	NA	222.722446897998	0	0.52	1.76	1	214.947802971001	215.512851267005	"6"	966976.085633015	966968.325994509	1.5	0.1
0.01	1	0.467067798017524	1	118	NA	222.722446897998	0	0.52	1.76	1	215.74984059995	216.216908397968	"6"	966976.085633015	966968.325994509	1.5	0.1
0.01	1	0.533097469015047	1	118	NA	222.722446897998	0	0.52	1.76	1	216.451917349943	216.985014818958	"6"	966976.085633015	966968.325994509	1.5	0.1
0.01	1	0.483775697066449	1	118	NA	222.722446897998	0	0.52	1.76	1	217.22085179796	217.704627495026	"6"	966976.085633015	966968.325994509	1.5	0.1
0.01	1	0.460966610000469	1	118	NA	222.722446897998	0	0.52	1.76	1	217.939696429996	218.400663039996	"6"	966976.085633015	966968.325994509	1.5	0.1
0.01	1	0.504104377003387	1	118	NA	222.722446897998	0	0.52	1.76	1	218.625457094982	219.129561471986	"6"	966976.085633015	966968.325994509	1.5	0.1
0.01	1	0.505748755997047	1	118	NA	222.722446897998	0	0.52	1.76	1	219.36062254	219.866371295997	"6"	966976.085633015	966968.325994509	1.5	0.1
0.01	1	0.608445162069984	1	118	NA	222.722446897998	0	0.52	1.76	1	220.096079071984	220.704524234054	"6"	966976.085633015	966968.325994509	1.5	0.1
0.01	1	0.38150272204075	1	118	NA	222.722446897998	0	0.52	1.76	1	220.931935523986	221.313438246027	"6"	966976.085633015	966968.325994509	1.5	0.1
0.01	1	0.451489261933602	1	118	NA	222.722446897998	0	0.52	1.76	1	221.533728237031	221.985217498965	"6"	966976.085633015	966968.325994509	1.5	0.1
0.01	1	0.501581327058375	2	118	NA	222.722446897998	0	0.52	1.76	1	222.219459968968	222.721041296027	"6"	966976.085633015	966968.325994509	1.5	0.1
0.01	1	0.464845460024662	1	87	NA	264.755353925051	0	0.54	2.3	1	224.760404911009	225.225250371033	"7"	966976.085633015	966968.325994509	1.5	0.1
0.01	1	0.418879552045837	1	87	NA	264.755353925051	0	0.54	2.3	1	225.462243090966	225.881122643012	"7"	966976.085633015	966968.325994509	1.5	0.1
0.01	1	0.295813375036232	1	87	NA	264.755353925051	0	0.54	2.3	1	226.11408630095	226.409899675986	"7"	966976.085633015	966968.325994509	1.5	0.1
0.01	1	0.513632629998028	1	87	NA	264.755353925051	0	0.54	2.3	1	226.632278544945	227.145911174943	"7"	966976.085633015	966968.325994509	1.5	0.1
0.01	1	0.489077949896455	1	87	NA	264.755353925051	0	0.54	2.3	1	227.367846313049	227.856924262946	"7"	966976.085633015	966968.325994509	1.5	0.1
0.01	1	0.506692430004478	1	87	NA	264.755353925051	0	0.54	2.3	1	228.086586409947	228.593278839951	"7"	966976.085633015	966968.325994509	1.5	0.1
0.01	1	0.475004539010115	1	87	NA	264.755353925051	0	0.54	2.3	1	228.822161323042	229.297165862052	"7"	966976.085633015	966968.325994509	1.5	0.1
0.01	1	0.597831647028215	1	87	NA	264.755353925051	0	0.54	2.3	1	229.524260420003	230.122092067031	"7"	966976.085633015	966968.325994509	1.5	0.1
0.01	1	0.617310020024888	1	87	NA	264.755353925051	0	0.54	2.3	1	230.343352771946	230.960662791971	"7"	966976.085633015	966968.325994509	1.5	0.1
0.01	1	0.406244146986865	1	87	NA	264.755353925051	0	0.54	2.3	1	231.19589127705	231.602135424037	"7"	966976.085633015	966968.325994509	1.5	0.1
0.01	1	0.433764797984622	1	87	NA	264.755353925051	0	0.54	2.3	1	231.831076239003	232.264841036987	"7"	966976.085633015	966968.325994509	1.5	0.1
0.01	1	0.438098440994509	1	87	NA	264.755353925051	0	0.54	2.3	1	232.499775019009	232.937873460003	"7"	966976.085633015	966968.325994509	1.5	0.1
0.01	1	0.536731478990987	1	87	NA	264.755353925051	0	0.54	2.3	1	233.168449643999	233.70518112299	"7"	966976.085633015	966968.325994509	1.5	0.1
0.01	1	0.503425227943808	1	87	NA	264.755353925051	0	0.54	2.3	1	233.937416904024	234.440842131968	"7"	966976.085633015	966968.325994509	1.5	0.1
0.01	1	0.537047756020911	1	87	NA	264.755353925051	0	0.54	2.3	1	234.672965331003	235.210013087024	"7"	966976.085633015	966968.325994509	1.5	0.1
0.01	1	0.535307461046614	1	87	NA	264.755353925051	0	0.54	2.3	1	235.441917549004	235.97722501005	"7"	966976.085633015	966968.325994509	1.5	0.1
0.01	1	0.551325014908798	1	87	NA	264.755353925051	0	0.54	2.3	1	236.210819688044	236.762144702952	"7"	966976.085633015	966968.325994509	1.5	0.1
0.01	1	0.484941049013287	1	87	NA	264.755353925051	0	0.54	2.3	1	236.996574949007	237.481515998021	"7"	966976.085633015	966968.325994509	1.5	0.1
0.01	1	0.430671066977084	1	87	NA	264.755353925051	0	0.54	2.3	1	237.715468975017	238.146140041994	"7"	966976.085633015	966968.325994509	1.5	0.1
0.01	1	0.410627944977023	1	87	NA	264.755353925051	0	0.54	2.3	1	238.367311683018	238.777939627995	"7"	966976.085633015	966968.325994509	1.5	0.1
0.01	1	0.7275596850086	1	87	NA	264.755353925051	0	0.54	2.3	1	239.002516704961	239.730076389969	"7"	966976.085633015	966968.325994509	1.5	0.1
0.01	1	0.39064548490569	1	87	NA	264.755353925051	0	0.54	2.3	1	239.955338782049	240.345984266954	"7"	966976.085633015	966968.325994509	1.5	0.1
0.01	1	0.419580850983039	1	87	NA	264.755353925051	0	0.54	2.3	1	240.574298170046	240.993879021029	"7"	966976.085633015	966968.325994509	1.5	0.1
0.01	1	0.351977566955611	1	87	NA	264.755353925051	0	0.54	2.3	1	241.225807260023	241.577784826979	"7"	966976.085633015	966968.325994509	1.5	0.1
0.01	1	0.502181775053032	1	87	NA	264.755353925051	0	0.54	2.3	1	241.810868586996	242.313050362049	"7"	966976.085633015	966968.325994509	1.5	0.1
0.01	1	0.542212891974486	1	87	NA	264.755353925051	0	0.54	2.3	1	242.546386186965	243.088599078939	"7"	966976.085633015	966968.325994509	1.5	0.1
0.01	1	0.526457643951289	1	87	NA	264.755353925051	0	0.54	2.3	1	243.315355309052	243.841812953004	"7"	966976.085633015	966968.325994509	1.5	0.1
0.01	1	0.509138688910753	1	87	NA	264.755353925051	0	0.54	2.3	1	244.067712311051	244.576850999962	"7"	966976.085633015	966968.325994509	1.5	0.1
0.01	1	0.437538939993829	1	87	NA	264.755353925051	0	0.54	2.3	1	244.803550985991	245.241089925985	"7"	966976.085633015	966968.325994509	1.5	0.1
0.01	1	0.426662593963556	1	87	NA	264.755353925051	0	0.54	2.3	1	245.471873849048	245.898536443012	"7"	966976.085633015	966968.325994509	1.5	0.1
0.01	1	0.517810599063523	1	87	NA	264.755353925051	0	0.54	2.3	1	246.123829678982	246.641640278045	"7"	966976.085633015	966968.325994509	1.5	0.1
0.01	1	0.437898270087317	1	87	NA	264.755353925051	0	0.54	2.3	1	246.876056322944	247.313954593032	"7"	966976.085633015	966968.325994509	1.5	0.1
0.01	1	0.481336929020472	1	87	NA	264.755353925051	0	0.54	2.3	1	247.544658493018	248.025995422038	"7"	966976.085633015	966968.325994509	1.5	0.1
0.01	1	0.467021703021601	1	87	NA	264.755353925051	0	0.54	2.3	1	248.24670229794	248.713724000962	"7"	966976.085633015	966968.325994509	1.5	0.1
0.01	1	0.388084440957755	1	87	NA	264.755353925051	0	0.54	2.3	1	248.948851827998	249.336936268955	"7"	966976.085633015	966968.325994509	1.5	0.1
0.01	1	0.441609670990147	1	87	NA	264.755353925051	0	0.54	2.3	1	249.567386334995	250.008996005985	"7"	966976.085633015	966968.325994509	1.5	0.1
0.01	1	0.461861845105886	1	87	NA	264.755353925051	0	0.54	2.3	1	250.236051189946	250.697913035052	"7"	966976.085633015	966968.325994509	1.5	0.1
0.01	1	0.464849728974514	1	87	NA	264.755353925051	0	0.54	2.3	1	250.921396141988	251.386245870963	"7"	966976.085633015	966968.325994509	1.5	0.1
0.01	1	0.618187337997369	1	87	NA	264.755353925051	0	0.54	2.3	1	251.606799882022	252.224987220019	"7"	966976.085633015	966968.325994509	1.5	0.1
0.01	1	0.494203482056037	1	87	NA	264.755353925051	0	0.54	2.3	1	252.459368636948	252.953572119004	"7"	966976.085633015	966968.325994509	1.5	0.1
0.01	1	0.574579717009328	1	87	NA	264.755353925051	0	0.54	2.3	1	253.178091977024	253.752671694034	"7"	966976.085633015	966968.325994509	1.5	0.1
0.01	1	0.492711127968505	1	87	NA	264.755353925051	0	0.54	2.3	1	253.98055217904	254.473263307009	"7"	966976.085633015	966968.325994509	1.5	0.1
0.01	1	0.421158659970388	1	87	NA	264.755353925051	0	0.54	2.3	1	254.699376504053	255.120535164024	"7"	966976.085633015	966968.325994509	1.5	0.1
0.01	1	0.57024270191323	1	87	NA	264.755353925051	0	0.54	2.3	1	255.35128578404	255.921528485953	"7"	966976.085633015	966968.325994509	1.5	0.1
0.01	1	0.511422135983594	1	87	NA	264.755353925051	0	0.54	2.3	1	256.153735409025	256.665157545009	"7"	966976.085633015	966968.325994509	1.5	0.1
0.01	1	0.608503930037841	1	87	NA	264.755353925051	0	0.54	2.3	1	256.889180097962	257.497684028	"7"	966976.085633015	966968.325994509	1.5	0.1
0.01	1	0.548314000014216	1	87	NA	264.755353925051	0	0.54	2.3	1	257.725076887989	258.273390888004	"7"	966976.085633015	966968.325994509	1.5	0.1
0.01	1	0.450909613049589	1	87	NA	264.755353925051	0	0.54	2.3	1	258.510655199992	258.961564813042	"7"	966976.085633015	966968.325994509	1.5	0.1
0.01	1	0.485415425966494	1	87	NA	264.755353925051	0	0.54	2.3	1	259.196069417987	259.681484843954	"7"	966976.085633015	966968.325994509	1.5	0.1
0.01	1	0.52742129995022	1	87	NA	264.755353925051	0	0.54	2.3	1	259.914918872993	260.442340172944	"7"	966976.085633015	966968.325994509	1.5	0.1
0.01	1	0.494651166023687	1	87	NA	264.755353925051	0	0.54	2.3	1	260.667131419992	261.161782586016	"7"	966976.085633015	966968.325994509	1.5	0.1
0.01	1	0.550724853063002	1	87	NA	264.755353925051	0	0.54	2.3	1	261.38636749296	261.937092346023	"7"	966976.085633015	966968.325994509	1.5	0.1
0.01	1	0.525667370995507	1	87	NA	264.755353925051	0	0.54	2.3	1	262.171663515037	262.697330886032	"7"	966976.085633015	966968.325994509	1.5	0.1
0.01	1	0.756809675018303	1	87	NA	264.755353925051	0	0.54	2.3	1	262.923851141939	263.680660816957	"7"	966976.085633015	966968.325994509	1.5	0.1
0.01	1	0.843724078964442	2	87	NA	264.755353925051	0	0.54	2.3	1	263.910232783994	264.753956862958	"7"	966976.085633015	966968.325994509	1.5	0.1
0.01	1	0.935354265966453	1	6	270.848721088958	NA	1	0	2.3	1	266.78573879099	267.721093056956	"8"	966976.085633015	966968.325994509	1.5	0.1
0.01	1	0.318432910018601	1	6	270.848721088958	NA	1	0	2.3	1	267.95553802303	268.273970933049	"8"	966976.085633015	966968.325994509	1.5	0.1
0.01	1	0.390841108048335	1	6	270.848721088958	NA	1	0	2.3	1	268.50722251297	268.898063621018	"8"	966976.085633015	966968.325994509	1.5	0.1
0.01	1	0.323875857982785	1	6	270.848721088958	NA	1	0	2.3	1	269.125713018002	269.449588875985	"8"	966976.085633015	966968.325994509	1.5	0.1
0.01	1	0.411926039028913	1	6	270.848721088958	NA	1	0	2.3	1	269.677373535	270.089299574029	"8"	966976.085633015	966968.325994509	1.5	0.1
0.01	1	0.416833424009383	1	6	270.848721088958	NA	1	0	2.3	1	270.312633150956	270.729466574965	"8"	966976.085633015	966968.325994509	1.5	0.1
0.01	1	0.674817593069747	1	106	NA	327.466605841997	0	0.72	3.02	1	272.88729826198	273.562115855049	"9"	966976.085633015	966968.325994509	1.5	0.1
0.01	1	0.444172705989331	1	106	NA	327.466605841997	0	0.72	3.02	1	273.789607160026	274.233779866016	"9"	966976.085633015	966968.325994509	1.5	0.1
0.01	1	1.06312615098432	1	106	NA	327.466605841997	0	0.72	3.02	1	274.458297024015	275.521423175	"9"	966976.085633015	966968.325994509	1.5	0.1
0.01	1	0.464401965029538	1	106	NA	327.466605841997	0	0.72	3.02	1	275.745458888006	276.209860853036	"9"	966976.085633015	966968.325994509	1.5	0.1
0.01	1	1.17849484400358	1	106	NA	327.466605841997	0	0.72	3.02	1	276.43082914094	277.609323984943	"9"	966976.085633015	966968.325994509	1.5	0.1
0.01	1	0.508955547004007	1	106	NA	327.466605841997	0	0.72	3.02	1	277.835494474042	278.344450021046	"9"	966976.085633015	966968.325994509	1.5	0.1
0.01	1	0.502765699988231	1	106	NA	327.466605841997	0	0.72	3.02	1	278.570930353017	279.073696053005	"9"	966976.085633015	966968.325994509	1.5	0.1
0.01	1	0.575270936940797	1	106	NA	327.466605841997	0	0.72	3.02	1	279.306095308042	279.881366244983	"9"	966976.085633015	966968.325994509	1.5	0.1
0.01	1	0.445467873942107	1	106	NA	327.466605841997	0	0.72	3.02	1	280.108395905001	280.553863778943	"9"	966976.085633015	966968.325994509	1.5	0.1
0.01	1	0.664922032039613	1	106	NA	327.466605841997	0	0.72	3.02	1	280.777111949981	281.442033982021	"9"	966976.085633015	966968.325994509	1.5	0.1
0.01	1	0.554988094954751	1	106	NA	327.466605841997	0	0.72	3.02	1	281.663100330043	282.218088424997	"9"	966976.085633015	966968.325994509	1.5	0.1
0.01	1	0.551983169978485	1	106	NA	327.466605841997	0	0.72	3.02	1	282.44872749201	283.000710661989	"9"	966976.085633015	966968.325994509	1.5	0.1
0.01	1	0.607097118045203	1	106	NA	327.466605841997	0	0.72	3.02	1	283.234494586941	283.841591704986	"9"	966976.085633015	966968.325994509	1.5	0.1
0.01	1	0.602264920948073	1	106	NA	327.466605841997	0	0.72	3.02	1	284.070321767009	284.672586687957	"9"	966976.085633015	966968.325994509	1.5	0.1
0.01	1	0.686617569997907	1	106	NA	327.466605841997	0	0.72	3.02	1	284.906196441967	285.592814011965	"9"	966976.085633015	966968.325994509	1.5	0.1
0.01	1	0.58355202502571	1	106	NA	327.466605841997	0	0.72	3.02	1	285.825512193958	286.409064218984	"9"	966976.085633015	966968.325994509	1.5	0.1
0.01	1	0.436481178971007	1	106	NA	327.466605841997	0	0.72	3.02	1	286.644622000982	287.081103179953	"9"	966976.085633015	966968.325994509	1.5	0.1
0.01	1	0.536467556958087	1	106	NA	327.466605841997	0	0.72	3.02	1	287.313258621027	287.849726177985	"9"	966976.085633015	966968.325994509	1.5	0.1
0.01	1	0.471457361010835	1	106	NA	327.466605841997	0	0.72	3.02	1	288.082281879033	288.553739240044	"9"	966976.085633015	966968.325994509	1.5	0.1
0.01	1	0.569328872021288	1	106	NA	327.466605841997	0	0.72	3.02	1	288.784307338996	289.353636211017	"9"	966976.085633015	966968.325994509	1.5	0.1
0.01	1	0.557813394931145	1	106	NA	327.466605841997	0	0.72	3.02	1	289.586693868041	290.144507262972	"9"	966976.085633015	966968.325994509	1.5	0.1
0.01	1	0.429014733992517	1	106	NA	327.466605841997	0	0.72	3.02	1	290.372414106037	290.80142884003	"9"	966976.085633015	966968.325994509	1.5	0.1
0.01	1	0.448492130031809	1	106	NA	327.466605841997	0	0.72	3.02	1	291.024359885952	291.472852015984	"9"	966976.085633015	966968.325994509	1.5	0.1
0.01	1	0.467129298951477	1	106	NA	327.466605841997	0	0.72	3.02	1	291.709686479997	292.176815778948	"9"	966976.085633015	966968.325994509	1.5	0.1
0.01	1	0.486117642023601	1	106	NA	327.466605841997	0	0.72	3.02	1	292.411804122967	292.89792176499	"9"	966976.085633015	966968.325994509	1.5	0.1
0.01	1	0.486495892051607	1	106	NA	327.466605841997	0	0.72	3.02	1	293.130680714967	293.617176607018	"9"	966976.085633015	966968.325994509	1.5	0.1
0.01	1	0.368325245915912	1	106	NA	327.466605841997	0	0.72	3.02	1	293.849403960048	294.217729205964	"9"	966976.085633015	966968.325994509	1.5	0.1
0.01	1	0.718472155043855	1	106	NA	327.466605841997	0	0.72	3.02	1	294.451264871983	295.169737027027	"9"	966976.085633015	966968.325994509	1.5	0.1
0.01	1	0.390303699998185	1	106	NA	327.466605841997	0	0.72	3.02	1	295.404055797029	295.794359497027	"9"	966976.085633015	966968.325994509	1.5	0.1
0.01	1	0.442148556932807	1	106	NA	327.466605841997	0	0.72	3.02	1	296.022609952022	296.464758508955	"9"	966976.085633015	966968.325994509	1.5	0.1
0.01	1	0.421734643983655	1	106	NA	327.466605841997	0	0.72	3.02	1	296.69124294701	297.112977590994	"9"	966976.085633015	966968.325994509	1.5	0.1
0.01	1	0.426199216046371	1	106	NA	327.466605841997	0	0.72	3.02	1	297.343222294003	297.769421510049	"9"	966976.085633015	966968.325994509	1.5	0.1
0.01	1	0.550691164913587	1	106	NA	327.466605841997	0	0.72	3.02	1	297.995202949038	298.545894113951	"9"	966976.085633015	966968.325994509	1.5	0.1
0.01	1	0.341011833981611	1	106	NA	327.466605841997	0	0.72	3.02	1	298.780879611033	299.121891445015	"9"	966976.085633015	966968.325994509	1.5	0.1
0.01	1	0.300351556972601	1	106	NA	327.466605841997	0	0.72	3.02	1	299.349193740985	299.649545297958	"9"	966976.085633015	966968.325994509	1.5	0.1
0.01	1	0.612827019067481	1	106	NA	327.466605841997	0	0.72	3.02	1	299.884105855948	300.496932875016	"9"	966976.085633015	966968.325994509	1.5	0.1
0.01	1	0.330236042966135	1	106	NA	327.466605841997	0	0.72	3.02	1	300.719911667984	301.05014771095	"9"	966976.085633015	966968.325994509	1.5	0.1
0.01	1	0.00169587694108486	1	106	NA	327.466605841997	0	0.72	3.02	1	301.271637693048	301.273333569989	"9"	966976.085633015	966968.325994509	1.5	0.1
0.01	1	0.432488742051646	1	106	NA	327.466605841997	0	0.72	3.02	1	301.505588495987	301.938077238039	"9"	966976.085633015	966968.325994509	1.5	0.1
0.01	1	0.482271414017305	1	106	NA	327.466605841997	0	0.72	3.02	1	302.17427838	302.656549794017	"9"	966976.085633015	966968.325994509	1.5	0.1
0.01	1	0.580864676972851	1	106	NA	327.466605841997	0	0.72	3.02	1	302.876419418026	303.457284094999	"9"	966976.085633015	966968.325994509	1.5	0.1
0.01	1	0.490583856008016	1	106	NA	327.466605841997	0	0.72	3.02	1	303.678800023044	304.169383879052	"9"	966976.085633015	966968.325994509	1.5	0.1
0.01	1	0.596406880067661	1	106	NA	327.466605841997	0	0.72	3.02	1	304.397542799939	304.993949680007	"9"	966976.085633015	966968.325994509	1.5	0.1
0.01	1	0.567541945027187	1	106	NA	327.466605841997	0	0.72	3.02	1	305.217067742022	305.784609687049	"9"	966976.085633015	966968.325994509	1.5	0.1
0.01	1	0.574657908990048	1	106	NA	327.466605841997	0	0.72	3.02	1	306.019099139026	306.593757048016	"9"	966976.085633015	966968.325994509	1.5	0.1
0.01	1	0.43657912092749	1	106	NA	327.466605841997	0	0.72	3.02	1	306.82154481404	307.258123934967	"9"	966976.085633015	966968.325994509	1.5	0.1
0.01	1	0.559883869020268	1	106	NA	327.466605841997	0	0.72	3.02	1	307.49016131903	308.050045188051	"9"	966976.085633015	966968.325994509	1.5	0.1
0.01	1	0.50145584193524	1	106	NA	327.466605841997	0	0.72	3.02	1	308.275872512022	308.777328353957	"9"	966976.085633015	966968.325994509	1.5	0.1
0.01	1	0.614633508957922	1	106	NA	327.466605841997	0	0.72	3.02	1	309.011316625983	309.625950134941	"9"	966976.085633015	966968.325994509	1.5	0.1
0.01	1	0.465756616089493	1	106	NA	327.466605841997	0	0.72	3.02	1	309.84713469795	310.312891314039	"9"	966976.085633015	966968.325994509	1.5	0.1
0.01	1	0.476570955943316	1	106	NA	327.466605841997	0	0.72	3.02	1	310.532528911019	311.009099866962	"9"	966976.085633015	966968.325994509	1.5	0.1
0.01	1	0.519232950056903	1	106	NA	327.466605841997	0	0.72	3.02	1	311.234659780981	311.753892731038	"9"	966976.085633015	966968.325994509	1.5	0.1
0.01	1	0.502829354954883	1	106	NA	327.466605841997	0	0.72	3.02	1	311.986876406008	312.489705760963	"9"	966976.085633015	966968.325994509	1.5	0.1
0.01	1	0.503402575966902	1	106	NA	327.466605841997	0	0.72	3.02	1	312.722403135034	313.225805711001	"9"	966976.085633015	966968.325994509	1.5	0.1
0.01	1	0.510447373031639	1	106	NA	327.466605841997	0	0.72	3.02	1	313.458038844983	313.968486218015	"9"	966976.085633015	966968.325994509	1.5	0.1
0.01	1	0.512762133963406	1	106	NA	327.466605841997	0	0.72	3.02	1	314.19347329298	314.706235426944	"9"	966976.085633015	966968.325994509	1.5	0.1
0.01	1	0.495958643965423	1	106	NA	327.466605841997	0	0.72	3.02	1	314.92939759302	315.425356236985	"9"	966976.085633015	966968.325994509	1.5	0.1
0.01	1	0.496439674985595	1	106	NA	327.466605841997	0	0.72	3.02	1	315.64823324501	316.144672919996	"9"	966976.085633015	966968.325994509	1.5	0.1
0.01	1	0.554812640068121	1	106	NA	327.466605841997	0	0.72	3.02	1	316.383381034946	316.938193675014	"9"	966976.085633015	966968.325994509	1.5	0.1
0.01	1	0.480407904018648	1	106	NA	327.466605841997	0	0.72	3.02	1	317.16899937694	317.649407280958	"9"	966976.085633015	966968.325994509	1.5	0.1
0.01	1	0.482209039968438	1	106	NA	327.466605841997	0	0.72	3.02	1	317.871126594022	318.35333563399	"9"	966976.085633015	966968.325994509	1.5	0.1
0.01	1	0.467697018990293	1	106	NA	327.466605841997	0	0.72	3.02	1	318.57324801595	319.04094503494	"9"	966976.085633015	966968.325994509	1.5	0.1
0.01	1	0.54278153902851	1	106	NA	327.466605841997	0	0.72	3.02	1	319.275277683977	319.818059223006	"9"	966976.085633015	966968.325994509	1.5	0.1
0.01	1	0.581237825914286	1	106	NA	327.466605841997	0	0.72	3.02	1	320.044264649041	320.625502474955	"9"	966976.085633015	966968.325994509	1.5	0.1
0.01	1	0.491017467924394	1	106	NA	327.466605841997	0	0.72	3.02	1	320.846662404016	321.33767987194	"9"	966976.085633015	966968.325994509	1.5	0.1
0.01	1	0.524529446964152	1	106	NA	327.466605841997	0	0.72	3.02	1	321.565433679032	322.089963125996	"9"	966976.085633015	966968.325994509	1.5	0.1
0.01	1	0.532051287009381	1	106	NA	327.466605841997	0	0.72	3.02	1	322.317751380964	322.849802667974	"9"	966976.085633015	966968.325994509	1.5	0.1
0.01	1	0.627263669972308	1	106	NA	327.466605841997	0	0.72	3.02	1	323.069989977987	323.697253647959	"9"	966976.085633015	966968.325994509	1.5	0.1
0.01	1	0.575400360045023	1	106	NA	327.466605841997	0	0.72	3.02	1	323.922547588008	324.497947948053	"9"	966976.085633015	966968.325994509	1.5	0.1
0.01	1	0.483720700023696	1	106	NA	327.466605841997	0	0.72	3.02	1	324.724900517962	325.208621217986	"9"	966976.085633015	966968.325994509	1.5	0.1
0.01	1	0.429701960063539	1	106	NA	327.466605841997	0	0.72	3.02	1	325.443699121941	325.873401082004	"9"	966976.085633015	966968.325994509	1.5	0.1
0.01	1	0.634637619019486	1	106	NA	327.466605841997	0	0.72	3.02	1	326.095802291995	326.730439911014	"9"	966976.085633015	966968.325994509	1.5	0.1
0.01	1	0.500290586031042	2	106	NA	327.466605841997	0	0.72	3.02	1	326.964904261986	327.465194848017	"9"	966976.085633015	966968.325994509	1.5	0.1
0.01	1	1.11041261698119	1	21	344.217428809963	NA	1	0	3.02	1	329.506229924038	330.616642541019	"10"	966976.085633015	966968.325994509	1.5	0.1
0.01	1	0.526496015954763	1	21	344.217428809963	NA	1	0	3.02	1	330.84357166104	331.370067676995	"10"	966976.085633015	966968.325994509	1.5	0.1
0.01	1	0.334528077044524	1	21	344.217428809963	NA	1	0	3.02	1	331.59569923894	331.930227315985	"10"	966976.085633015	966968.325994509	1.5	0.1
0.01	1	0.669320754008368	1	21	344.217428809963	NA	1	0	3.02	1	332.163754893001	332.83307564701	"10"	966976.085633015	966968.325994509	1.5	0.1
0.01	1	0.351648265030235	1	21	344.217428809963	NA	1	0	3.02	1	333.066421075957	333.418069340987	"10"	966976.085633015	966968.325994509	1.5	0.1
0.01	1	0.5175694670761	1	21	344.217428809963	NA	1	0	3.02	1	333.651559120975	334.169128588052	"10"	966976.085633015	966968.325994509	1.5	0.1
0.01	1	0.470119851990603	1	21	344.217428809963	NA	1	0	3.02	1	334.403847145964	334.873966997955	"10"	966976.085633015	966968.325994509	1.5	0.1
0.01	1	0.407317809993401	1	21	344.217428809963	NA	1	0	3.02	1	335.105880849995	335.513198659988	"10"	966976.085633015	966968.325994509	1.5	0.1
0.01	1	0.572049906011671	1	21	344.217428809963	NA	1	0	3.02	1	335.741128811962	336.313178717974	"10"	966976.085633015	966968.325994509	1.5	0.1
0.01	1	0.346004911931232	1	21	344.217428809963	NA	1	0	3.02	1	336.543455407023	336.889460318955	"10"	966976.085633015	966968.325994509	1.5	0.1
0.01	1	0.297287150053307	1	21	344.217428809963	NA	1	0	3.02	1	337.111771101947	337.409058252	"10"	966976.085633015	966968.325994509	1.5	0.1
0.01	1	0.563478855998255	1	21	344.217428809963	NA	1	0	3.02	1	337.630081551964	338.193560407963	"10"	966976.085633015	966968.325994509	1.5	0.1
0.01	1	0.40135692502372	1	21	344.217428809963	NA	1	0	3.02	1	338.416149072	338.817505997024	"10"	966976.085633015	966968.325994509	1.5	0.1
0.01	1	0.413883187924512	1	21	344.217428809963	NA	1	0	3.02	1	339.050935219042	339.464818406967	"10"	966976.085633015	966968.325994509	1.5	0.1
0.01	1	0.54000824096147	1	21	344.217428809963	NA	1	0	3.02	1	339.686219703988	340.22622794495	"10"	966976.085633015	966968.325994509	1.5	0.1
0.01	1	0.410112044075504	1	21	344.217428809963	NA	1	0	3.02	1	340.455084776971	340.865196821047	"10"	966976.085633015	966968.325994509	1.5	0.1
0.01	1	0.326815398992039	1	21	344.217428809963	NA	1	0	3.02	1	341.090354218963	341.417169617955	"10"	966976.085633015	966968.325994509	1.5	0.1
0.01	1	0.623045121086761	1	21	344.217428809963	NA	1	0	3.02	1	341.642050595954	342.265095717041	"10"	966976.085633015	966968.325994509	1.5	0.1
0.01	1	0.267653305083513	1	21	344.217428809963	NA	1	0	3.02	1	342.494532770943	342.762186076026	"10"	966976.085633015	966968.325994509	1.5	0.1
0.01	1	0.357221774989739	1	21	344.217428809963	NA	1	0	3.02	1	342.996037796023	343.353259571013	"10"	966976.085633015	966968.325994509	1.5	0.1
0.01	1	0.51652932795696	1	21	344.217428809963	NA	1	0	3.02	1	343.581170383026	344.097699710983	"10"	966976.085633015	966968.325994509	1.5	0.1
0.01	1	0.681330786086619	1	19	360.516509006964	NA	1	0	3.02	1	346.25614841294	346.937479199027	"11"	966976.085633015	966968.325994509	1.5	0.1
0.01	1	0.530984078068286	1	19	360.516509006964	NA	1	0	3.02	1	347.175181356957	347.706165435025	"11"	966976.085633015	966968.325994509	1.5	0.1
0.01	1	0.521731398068368	1	19	360.516509006964	NA	1	0	3.02	1	347.927461729967	348.449193128035	"11"	966976.085633015	966968.325994509	1.5	0.1
0.01	1	0.466555921011604	1	19	360.516509006964	NA	1	0	3.02	1	348.67966703698	349.146222957992	"11"	966976.085633015	966968.325994509	1.5	0.1
0.01	1	0.476235259091482	1	19	360.516509006964	NA	1	0	3.02	1	349.381806983962	349.858042243053	"11"	966976.085633015	966968.325994509	1.5	0.1
0.01	1	0.621066758991219	1	19	360.516509006964	NA	1	0	3.02	1	350.084212998976	350.705279757967	"11"	966976.085633015	966968.325994509	1.5	0.1
0.01	1	0.560936768073589	1	19	360.516509006964	NA	1	0	3.02	1	350.936393216951	351.497329985024	"11"	966976.085633015	966968.325994509	1.5	0.1
0.01	1	0.535238310927525	1	19	360.516509006964	NA	1	0	3.02	1	351.722071812022	352.25731012295	"11"	966976.085633015	966968.325994509	1.5	0.1
0.01	1	0.510935315978713	1	19	360.516509006964	NA	1	0	3.02	1	352.491033221013	353.001968536992	"11"	966976.085633015	966968.325994509	1.5	0.1
0.01	1	0.582511505112052	1	19	360.516509006964	NA	1	0	3.02	1	353.226592810941	353.809104316053	"11"	966976.085633015	966968.325994509	1.5	0.1
0.01	1	0.563704963074997	1	19	360.516509006964	NA	1	0	3.02	1	354.045703480951	354.609408444026	"11"	966976.085633015	966968.325994509	1.5	0.1
0.01	1	0.585857458994724	1	19	360.516509006964	NA	1	0	3.02	1	354.831321873004	355.417179331998	"11"	966976.085633015	966968.325994509	1.5	0.1
0.01	1	0.542998064076528	1	19	360.516509006964	NA	1	0	3.02	1	355.650498777977	356.193496842054	"11"	966976.085633015	966968.325994509	1.5	0.1
0.01	1	0.470520867966115	1	19	360.516509006964	NA	1	0	3.02	1	356.419434049982	356.889954917948	"11"	966976.085633015	966968.325994509	1.5	0.1
0.01	1	0.432565691997297	1	19	360.516509006964	NA	1	0	3.02	1	357.12153115496	357.554096846958	"11"	966976.085633015	966968.325994509	1.5	0.1
0.01	1	0.499476847006008	1	19	360.516509006964	NA	1	0	3.02	1	357.790201592958	358.289678439964	"11"	966976.085633015	966968.325994509	1.5	0.1
0.01	1	0.428250116994604	1	19	360.516509006964	NA	1	0	3.02	1	358.525706860004	358.953956976999	"11"	966976.085633015	966968.325994509	1.5	0.1
0.01	1	0.495820894953795	1	19	360.516509006964	NA	1	0	3.02	1	359.177694657003	359.673515551956	"11"	966976.085633015	966968.325994509	1.5	0.1
0.01	1	0.513203933020122	1	19	360.516509006964	NA	1	0	3.02	1	359.896439549979	360.409643482999	"11"	966976.085633015	966968.325994509	1.5	0.1
0.01	1	0.542739782948047	1	63	409.562888541957	NA	1	0	3.02	1	362.554769246024	363.097509028972	"12"	966976.085633015	966968.325994509	1.5	0.1
0.01	1	0.445276810089126	1	63	409.562888541957	NA	1	0	3.02	1	363.323781708954	363.769058519043	"12"	966976.085633015	966968.325994509	1.5	0.1
0.01	1	0.529985563014634	1	63	409.562888541957	NA	1	0	3.02	1	363.992410095991	364.522395659005	"12"	966976.085633015	966968.325994509	1.5	0.1
0.01	1	0.512048581033014	1	63	409.562888541957	NA	1	0	3.02	1	364.760932439007	365.27298102004	"12"	966976.085633015	966968.325994509	1.5	0.1
0.01	1	0.59195518901106	1	63	409.562888541957	NA	1	0	3.02	1	365.496560925967	366.088516114978	"12"	966976.085633015	966968.325994509	1.5	0.1
0.01	1	0.533543747966178	1	63	409.562888541957	NA	1	0	3.02	1	366.315599955036	366.849143703002	"12"	966976.085633015	966968.325994509	1.5	0.1
0.01	1	0.5572372560855	1	63	409.562888541957	NA	1	0	3.02	1	367.08462203294	367.641859289026	"12"	966976.085633015	966968.325994509	1.5	0.1
0.01	1	0.546562524978071	1	63	409.562888541957	NA	1	0	3.02	1	367.870256033028	368.416818558006	"12"	966976.085633015	966968.325994509	1.5	0.1
0.01	1	0.570729142054915	1	63	409.562888541957	NA	1	0	3.02	1	368.639176624944	369.209905766998	"12"	966976.085633015	966968.325994509	1.5	0.1
0.01	1	0.488234891090542	1	63	409.562888541957	NA	1	0	3.02	1	369.441575321951	369.929810213041	"12"	966976.085633015	966968.325994509	1.5	0.1
0.01	1	0.60120753699448	1	63	409.562888541957	NA	1	0	3.02	1	370.160459627048	370.761667164043	"12"	966976.085633015	966968.325994509	1.5	0.1
0.01	1	0.67798184894491	1	63	409.562888541957	NA	1	0	3.02	1	370.996257722029	371.674239570973	"12"	966976.085633015	966968.325994509	1.5	0.1
0.01	1	0.46173782099504	1	63	409.562888541957	NA	1	0	3.02	1	371.898897559033	372.360635380028	"12"	966976.085633015	966968.325994509	1.5	0.1
0.01	1	0.504693001974374	1	63	409.562888541957	NA	1	0	3.02	1	372.584333961015	373.089026962989	"12"	966976.085633015	966968.325994509	1.5	0.1
0.01	1	0.58605138794519	1	63	409.562888541957	NA	1	0	3.02	1	373.319883164018	373.905934551964	"12"	966976.085633015	966968.325994509	1.5	0.1
0.01	1	0.50281706196256	1	63	409.562888541957	NA	1	0	3.02	1	374.138967984007	374.641785045969	"12"	966976.085633015	966968.325994509	1.5	0.1
0.01	1	0.495082747074775	1	63	409.562888541957	NA	1	0	3.02	1	374.874498390942	375.369581138017	"12"	966976.085633015	966968.325994509	1.5	0.1
0.01	1	0.5602799289627	1	63	409.562888541957	NA	1	0	3.02	1	375.593255492975	376.153535421938	"12"	966976.085633015	966968.325994509	1.5	0.1
0.01	1	0.422113299020566	1	63	409.562888541957	NA	1	0	3.02	1	376.37899803801	376.80111133703	"12"	966976.085633015	966968.325994509	1.5	0.1
0.01	1	0.547016923082992	1	63	409.562888541957	NA	1	0	3.02	1	377.030964012956	377.577980936039	"12"	966976.085633015	966968.325994509	1.5	0.1
0.01	1	0.290406321990304	1	63	409.562888541957	NA	1	0	3.02	1	377.799845185014	378.090251507005	"12"	966976.085633015	966968.325994509	1.5	0.1
0.01	1	0.730787636013702	1	63	409.562888541957	NA	1	0	3.02	1	378.318060450023	379.048848086037	"12"	966976.085633015	966968.325994509	1.5	0.1
0.01	1	0.570118239964359	1	63	409.562888541957	NA	1	0	3.02	1	379.270916320034	379.841034559999	"12"	966976.085633015	966968.325994509	1.5	0.1
0.01	1	0.544469815096818	1	63	409.562888541957	NA	1	0	3.02	1	380.073317299946	380.617787115043	"12"	966976.085633015	966968.325994509	1.5	0.1
0.01	1	0.743165989057161	1	63	409.562888541957	NA	1	0	3.02	1	380.842220479972	381.585386469029	"12"	966976.085633015	966968.325994509	1.5	0.1
0.01	1	0.357479138066992	1	63	409.562888541957	NA	1	0	3.02	1	381.811861188966	382.169340327033	"12"	966976.085633015	966968.325994509	1.5	0.1
0.01	1	0.491978192934766	1	63	409.562888541957	NA	1	0	3.02	1	382.396938452031	382.888916644966	"12"	966976.085633015	966968.325994509	1.5	0.1
0.01	1	0.389603179064579	1	63	409.562888541957	NA	1	0	3.02	1	383.116154968971	383.505758148036	"12"	966976.085633015	966968.325994509	1.5	0.1
0.01	1	0.00177623995114118	1	63	409.562888541957	NA	1	0	3.02	1	383.734241151018	383.736017390969	"12"	966976.085633015	966968.325994509	1.5	0.1
0.01	1	0.336265092017129	1	63	409.562888541957	NA	1	0	3.02	1	383.96823014901	384.304495241027	"12"	966976.085633015	966968.325994509	1.5	0.1
0.01	1	0.521701810066588	1	63	409.562888541957	NA	1	0	3.02	1	384.536580180982	385.058281991049	"12"	966976.085633015	966968.325994509	1.5	0.1
0.01	1	0.505181230953895	1	63	409.562888541957	NA	1	0	3.02	1	385.288820054033	385.794001284987	"12"	966976.085633015	966968.325994509	1.5	0.1
0.01	1	0.512591090984643	1	63	409.562888541957	NA	1	0	3.02	1	386.024370284053	386.536961375037	"12"	966976.085633015	966968.325994509	1.5	0.1
0.01	1	0.689267225912772	1	63	409.562888541957	NA	1	0	3.02	1	386.760322803049	387.449590028962	"12"	966976.085633015	966968.325994509	1.5	0.1
0.01	1	0.578714158036746	1	63	409.562888541957	NA	1	0	3.02	1	387.679357729969	388.258071888005	"12"	966976.085633015	966968.325994509	1.5	0.1
0.01	1	0.488485262962058	1	63	409.562888541957	NA	1	0	3.02	1	388.481827322976	388.970312585938	"12"	966976.085633015	966968.325994509	1.5	0.1
0.01	1	0.545034663053229	1	63	409.562888541957	NA	1	0	3.02	1	389.200565002975	389.745599666028	"12"	966976.085633015	966968.325994509	1.5	0.1
0.01	1	0.455384449916892	1	63	409.562888541957	NA	1	0	3.02	1	389.969574623043	390.42495907296	"12"	966976.085633015	966968.325994509	1.5	0.1
0.01	1	0.562327124993317	1	63	409.562888541957	NA	1	0	3.02	1	390.654932616977	391.21725974197	"12"	966976.085633015	966968.325994509	1.5	0.1
0.01	1	0.537760723032989	1	63	409.562888541957	NA	1	0	3.02	1	391.440570625011	391.978331348044	"12"	966976.085633015	966968.325994509	1.5	0.1
0.01	1	0.536247926997021	1	63	409.562888541957	NA	1	0	3.02	1	392.209548642044	392.745796569041	"12"	966976.085633015	966968.325994509	1.5	0.1
0.01	1	0.398733524023555	1	63	409.562888541957	NA	1	0	3.02	1	392.978490108973	393.377223632997	"12"	966976.085633015	966968.325994509	1.5	0.1
0.01	1	0.619959607021883	1	63	409.562888541957	NA	1	0	3.02	1	393.61375973199	394.233719339012	"12"	966976.085633015	966968.325994509	1.5	0.1
0.01	1	0.447444105055183	1	63	409.562888541957	NA	1	0	3.02	1	394.466204183991	394.913648289046	"12"	966976.085633015	966968.325994509	1.5	0.1
0.01	1	0.52224408404436	1	63	409.562888541957	NA	1	0	3.02	1	395.134905960993	395.657150045037	"12"	966976.085633015	966968.325994509	1.5	0.1
0.01	1	0.530230315984227	1	63	409.562888541957	NA	1	0	3.02	1	395.887179804035	396.417410120019	"12"	966976.085633015	966968.325994509	1.5	0.1
0.01	1	0.481496449909173	1	63	409.562888541957	NA	1	0	3.02	1	396.639814218041	397.12131066795	"12"	966976.085633015	966968.325994509	1.5	0.1
0.01	1	0.595641886000521	1	63	409.562888541957	NA	1	0	3.02	1	397.35821051104	397.95385239704	"12"	966976.085633015	966968.325994509	1.5	0.1
0.01	1	0.512150808004662	1	63	409.562888541957	NA	1	0	3.02	1	398.177291166037	398.689441974042	"12"	966976.085633015	966968.325994509	1.5	0.1
0.01	1	0.59307116700802	1	63	409.562888541957	NA	1	0	3.02	1	398.912824730971	399.505895897979	"12"	966976.085633015	966968.325994509	1.5	0.1
0.01	1	0.485411617904902	1	63	409.562888541957	NA	1	0	3.02	1	399.731944318046	400.217355935951	"12"	966976.085633015	966968.325994509	1.5	0.1
0.01	1	0.430176913971081	1	63	409.562888541957	NA	1	0	3.02	1	400.450760659995	400.880937573966	"12"	966976.085633015	966968.325994509	1.5	0.1
0.01	1	0.617930189939216	1	63	409.562888541957	NA	1	0	3.02	1	401.102692135028	401.720622324967	"12"	966976.085633015	966968.325994509	1.5	0.1
0.01	1	0.510306766023859	1	63	409.562888541957	NA	1	0	3.02	1	401.955268249963	402.465575015987	"12"	966976.085633015	966968.325994509	1.5	0.1
0.01	1	0.566497687948868	1	63	409.562888541957	NA	1	0	3.02	1	402.69079938205	403.257297069998	"12"	966976.085633015	966968.325994509	1.5	0.1
0.01	1	0.476199869066477	1	63	409.562888541957	NA	1	0	3.02	1	403.493157861987	403.969357731054	"12"	966976.085633015	966968.325994509	1.5	0.1
0.01	1	0.629668326932006	1	63	409.562888541957	NA	1	0	3.02	1	404.195305482019	404.824973808951	"12"	966976.085633015	966968.325994509	1.5	0.1
0.01	1	0.481357675977051	1	63	409.562888541957	NA	1	0	3.02	1	405.047813098994	405.529170774971	"12"	966976.085633015	966968.325994509	1.5	0.1
0.01	1	0.530737502966076	1	63	409.562888541957	NA	1	0	3.02	1	405.74993480905	406.280672312016	"12"	966976.085633015	966968.325994509	1.5	0.1
0.01	1	0.498700889060274	1	63	409.562888541957	NA	1	0	3.02	1	406.518881845986	407.017582735047	"12"	966976.085633015	966968.325994509	1.5	0.1
0.01	1	0.811645011999644	1	63	409.562888541957	NA	1	0	3.02	1	407.237665810972	408.049310822971	"12"	966976.085633015	966968.325994509	1.5	0.1
0.01	1	0.456341009004973	1	63	409.562888541957	NA	1	0	3.02	1	408.274066795944	408.730407804949	"12"	966976.085633015	966968.325994509	1.5	0.1
0.01	1	0.489897934952751	1	63	409.562888541957	NA	1	0	3.02	1	408.959425883018	409.449323817971	"12"	966976.085633015	966968.325994509	1.5	0.1
0.01	1	0.59977713401895	1	54	NA	437.874840214965	0	0.44	3.46	1	411.60112880799	412.200905942009	"13"	966976.085633015	966968.325994509	1.5	0.1
0.01	1	0.21190417802427	1	54	NA	437.874840214965	0	0.44	3.46	1	412.436566316988	412.648470495013	"13"	966976.085633015	966968.325994509	1.5	0.1
0.01	1	0.281835607020184	1	54	NA	437.874840214965	0	0.44	3.46	1	412.871131959953	413.152967566974	"13"	966976.085633015	966968.325994509	1.5	0.1
0.01	1	0.3006310260389	1	54	NA	437.874840214965	0	0.44	3.46	1	413.372656436986	413.673287463025	"13"	966976.085633015	966968.325994509	1.5	0.1
0.01	1	0.278217470040545	1	54	NA	437.874840214965	0	0.44	3.46	1	413.907568383962	414.185785854002	"13"	966976.085633015	966968.325994509	1.5	0.1
0.01	1	0.192764646955766	1	54	NA	437.874840214965	0	0.44	3.46	1	414.409106542007	414.601871188963	"13"	966976.085633015	966968.325994509	1.5	0.1
0.01	1	0.342739165993407	1	54	NA	437.874840214965	0	0.44	3.46	1	414.826952056959	415.169691222953	"13"	966976.085633015	966968.325994509	1.5	0.1
0.01	1	0.4053225700045	1	54	NA	437.874840214965	0	0.44	3.46	1	415.395749244024	415.801071814029	"13"	966976.085633015	966968.325994509	1.5	0.1
0.01	1	0.307151691988111	1	54	NA	437.874840214965	0	0.44	3.46	1	416.030580261024	416.337731953012	"13"	966976.085633015	966968.325994509	1.5	0.1
0.01	1	0.340016327099875	1	54	NA	437.874840214965	0	0.44	3.46	1	416.565496410942	416.905512738042	"13"	966976.085633015	966968.325994509	1.5	0.1
0.01	1	0.267618812038563	1	54	NA	437.874840214965	0	0.44	3.46	1	417.133897728985	417.401516541024	"13"	966976.085633015	966968.325994509	1.5	0.1
0.01	1	0.262064586044289	1	54	NA	437.874840214965	0	0.44	3.46	1	417.635406791	417.897471377044	"13"	966976.085633015	966968.325994509	1.5	0.1
0.01	1	0.281109265051782	1	54	NA	437.874840214965	0	0.44	3.46	1	418.120134457946	418.401243722998	"13"	966976.085633015	966968.325994509	1.5	0.1
0.01	1	0.227801147964783	1	54	NA	437.874840214965	0	0.44	3.46	1	418.62163401302	418.849435160984	"13"	966976.085633015	966968.325994509	1.5	0.1
0.01	1	0.287500570062548	1	54	NA	437.874840214965	0	0.44	3.46	1	419.07337175298	419.360872323043	"13"	966976.085633015	966968.325994509	1.5	0.1
0.01	1	0.370563345961273	1	54	NA	437.874840214965	0	0.44	3.46	1	419.591186183039	419.961749529	"13"	966976.085633015	966968.325994509	1.5	0.1
0.01	1	0.423809443949722	1	54	NA	437.874840214965	0	0.44	3.46	1	420.193024966051	420.616834410001	"13"	966976.085633015	966968.325994509	1.5	0.1
0.01	1	0.307888795970939	1	54	NA	437.874840214965	0	0.44	3.46	1	420.844950455008	421.152839250979	"13"	966976.085633015	966968.325994509	1.5	0.1
0.01	1	0.413106129039079	1	54	NA	437.874840214965	0	0.44	3.46	1	421.380124042975	421.793230172014	"13"	966976.085633015	966968.325994509	1.5	0.1
0.01	1	0.274382196017541	1	54	NA	437.874840214965	0	0.44	3.46	1	422.015161521966	422.289543717983	"13"	966976.085633015	966968.325994509	1.5	0.1
0.01	1	0.244754927931353	1	54	NA	437.874840214965	0	0.44	3.46	1	422.516927412013	422.761682339944	"13"	966976.085633015	966968.325994509	1.5	0.1
0.01	1	0.359859863063321	1	54	NA	437.874840214965	0	0.44	3.46	1	422.985102416947	423.344962280011	"13"	966976.085633015	966968.325994509	1.5	0.1
0.01	1	0.510353156016208	1	54	NA	437.874840214965	0	0.44	3.46	1	423.570197819965	424.080550975981	"13"	966976.085633015	966968.325994509	1.5	0.1
0.01	1	0.35980853298679	1	54	NA	437.874840214965	0	0.44	3.46	1	424.305584055022	424.665392588009	"13"	966976.085633015	966968.325994509	1.5	0.1
0.01	1	0.495277150999755	1	54	NA	437.874840214965	0	0.44	3.46	1	424.890722954995	425.386000105995	"13"	966976.085633015	966968.325994509	1.5	0.1
0.01	1	0.383250153972767	1	54	NA	437.874840214965	0	0.44	3.46	1	425.609546093969	425.992796247941	"13"	966976.085633015	966968.325994509	1.5	0.1
0.01	1	0.197461645002477	1	54	NA	437.874840214965	0	0.44	3.46	1	426.227638504002	426.425100149005	"13"	966976.085633015	966968.325994509	1.5	0.1
0.01	1	0.260518366936594	1	54	NA	437.874840214965	0	0.44	3.46	1	426.64561869402	426.906137060956	"13"	966976.085633015	966968.325994509	1.5	0.1
0.01	1	0.287407084950246	1	54	NA	437.874840214965	0	0.44	3.46	1	427.130363604054	427.417770689004	"13"	966976.085633015	966968.325994509	1.5	0.1
0.01	1	0.34564258705359	1	54	NA	437.874840214965	0	0.44	3.46	1	427.648545888951	427.994188476005	"13"	966976.085633015	966968.325994509	1.5	0.1
0.01	1	0.248477944987826	1	54	NA	437.874840214965	0	0.44	3.46	1	428.216966649052	428.46544459404	"13"	966976.085633015	966968.325994509	1.5	0.1
0.01	1	0.316403253003955	1	54	NA	437.874840214965	0	0.44	3.46	1	428.68503297097	429.001436223974	"13"	966976.085633015	966968.325994509	1.5	0.1
0.01	1	0.412501321989112	1	54	NA	437.874840214965	0	0.44	3.46	1	429.236646206002	429.649147527991	"13"	966976.085633015	966968.325994509	1.5	0.1
0.01	1	0.529472936992534	1	54	NA	437.874840214965	0	0.44	3.46	1	429.871846545953	430.401319482946	"13"	966976.085633015	966968.325994509	1.5	0.1
0.01	1	0.512990031042136	1	54	NA	437.874840214965	0	0.44	3.46	1	430.624081725953	431.137071756995	"13"	966976.085633015	966968.325994509	1.5	0.1
0.01	1	0.578236369998194	1	54	NA	437.874840214965	0	0.44	3.46	1	431.359598212992	431.93783458299	"13"	966976.085633015	966968.325994509	1.5	0.1
0.01	1	0.495053911930881	1	54	NA	437.874840214965	0	0.44	3.46	1	432.162550705019	432.65760461695	"13"	966976.085633015	966968.325994509	1.5	0.1
0.01	1	0.679502477985807	1	54	NA	437.874840214965	0	0.44	3.46	1	432.881173450034	433.56067592802	"13"	966976.085633015	966968.325994509	1.5	0.1
0.01	1	0.546121853985824	1	54	NA	437.874840214965	0	0.44	3.46	1	433.783952919999	434.330074773985	"13"	966976.085633015	966968.325994509	1.5	0.1
0.01	1	0.567633623955771	1	54	NA	437.874840214965	0	0.44	3.46	1	434.552913625026	435.120547248982	"13"	966976.085633015	966968.325994509	1.5	0.1
0.01	1	0.462764071067795	1	54	NA	437.874840214965	0	0.44	3.46	1	435.35495022696	435.817714298028	"13"	966976.085633015	966968.325994509	1.5	0.1
0.01	1	0.585984864970669	1	54	NA	437.874840214965	0	0.44	3.46	1	436.040233341977	436.626218206948	"13"	966976.085633015	966968.325994509	1.5	0.1
0.01	1	0.454375565052032	1	54	NA	437.874840214965	0	0.44	3.46	1	436.859338479	437.313714044052	"13"	966976.085633015	966968.325994509	1.5	0.1
0.01	1	0.00172982504591346	1	54	NA	437.874840214965	0	0.44	3.46	1	437.54470807896	437.546437904006	"13"	966976.085633015	966968.325994509	1.5	0.1
0.01	1	0.0946812379406765	2	54	NA	437.874840214965	0	0.44	3.46	1	437.778795219027	437.873476456967	"13"	966976.085633015	966968.325994509	1.5	0.1
0.01	1	0.323375881067477	1	103	NA	482.114213007968	0	0.59	4.05	1	439.902132050949	440.225507932017	"14"	966976.085633015	966968.325994509	1.5	0.1
0.01	1	0.540000712964684	1	103	NA	482.114213007968	0	0.59	4.05	1	440.453838001005	440.99383871397	"14"	966976.085633015	966968.325994509	1.5	0.1
0.01	1	0.403359274030663	1	103	NA	482.114213007968	0	0.59	4.05	1	441.222315151012	441.625674425042	"14"	966976.085633015	966968.325994509	1.5	0.1
0.01	1	0.455546300043352	1	103	NA	482.114213007968	0	0.59	4.05	1	441.857640107977	442.313186408021	"14"	966976.085633015	966968.325994509	1.5	0.1
0.01	1	0.506870543933474	1	103	NA	482.114213007968	0	0.59	4.05	1	442.542987413006	443.049857956939	"14"	966976.085633015	966968.325994509	1.5	0.1
0.01	1	0.490677052992396	1	103	NA	482.114213007968	0	0.59	4.05	1	443.278518473031	443.769195526023	"14"	966976.085633015	966968.325994509	1.5	0.1
0.01	1	0.419742624973878	1	103	NA	482.114213007968	0	0.59	4.05	1	443.997341691982	444.417084316956	"14"	966976.085633015	966968.325994509	1.5	0.1
0.01	1	0.472548444988206	1	103	NA	482.114213007968	0	0.59	4.05	1	444.649251369992	445.12179981498	"14"	966976.085633015	966968.325994509	1.5	0.1
0.01	1	0.450895671965554	1	103	NA	482.114213007968	0	0.59	4.05	1	445.351339522051	445.802235194016	"14"	966976.085633015	966968.325994509	1.5	0.1
0.01	1	0.477516823913902	1	103	NA	482.114213007968	0	0.59	4.05	1	446.036717107054	446.514233930968	"14"	966976.085633015	966968.325994509	1.5	0.1
0.01	1	0.66274108493235	1	103	NA	482.114213007968	0	0.59	4.05	1	446.738881267025	447.401622351957	"14"	966976.085633015	966968.325994509	1.5	0.1
0.01	1	0.391812420100905	1	103	NA	482.114213007968	0	0.59	4.05	1	447.625243215938	448.017055636039	"14"	966976.085633015	966968.325994509	1.5	0.1
0.01	1	0.446247635991313	1	103	NA	482.114213007968	0	0.59	4.05	1	448.243678473984	448.689926109975	"14"	966976.085633015	966968.325994509	1.5	0.1
0.01	1	0.457627646974288	1	103	NA	482.114213007968	0	0.59	4.05	1	448.912475013989	449.370102660963	"14"	966976.085633015	966968.325994509	1.5	0.1
0.01	1	0.443521231994964	1	103	NA	482.114213007968	0	0.59	4.05	1	449.59773488401	450.041256116005	"14"	966976.085633015	966968.325994509	1.5	0.1
0.01	1	0.48730504908599	1	103	NA	482.114213007968	0	0.59	4.05	1	450.266382182948	450.753687232034	"14"	966976.085633015	966968.325994509	1.5	0.1
0.01	1	0.457356866914779	1	103	NA	482.114213007968	0	0.59	4.05	1	450.984790693037	451.442147559952	"14"	966976.085633015	966968.325994509	1.5	0.1
0.01	1	0.555387140018865	1	103	NA	482.114213007968	0	0.59	4.05	1	451.670212268014	452.225599408033	"14"	966976.085633015	966968.325994509	1.5	0.1
0.01	1	0.368949569063261	1	103	NA	482.114213007968	0	0.59	4.05	1	452.455894149956	452.82484371902	"14"	966976.085633015	966968.325994509	1.5	0.1
0.01	1	0.431508790003136	1	103	NA	482.114213007968	0	0.59	4.05	1	453.057655508048	453.489164298051	"14"	966976.085633015	966968.325994509	1.5	0.1
0.01	1	0.00177970994263887	1	103	NA	482.114213007968	0	0.59	4.05	1	453.70964785805	453.711427567992	"14"	966976.085633015	966968.325994509	1.5	0.1
0.01	1	0.465448106988333	1	103	NA	482.114213007968	0	0.59	4.05	1	453.943610165035	454.409058272024	"14"	966976.085633015	966968.325994509	1.5	0.1
0.01	1	0.540794483036734	1	103	NA	482.114213007968	0	0.59	4.05	1	454.629144111997	455.169938595034	"14"	966976.085633015	966968.325994509	1.5	0.1
0.01	1	0.371780224959366	1	103	NA	482.114213007968	0	0.59	4.05	1	455.398033729987	455.769813954947	"14"	966976.085633015	966968.325994509	1.5	0.1
0.01	1	0.345047590904869	1	103	NA	482.114213007968	0	0.59	4.05	1	455.999847162049	456.344894752954	"14"	966976.085633015	966968.325994509	1.5	0.1
0.01	1	0.489605136914179	1	103	NA	482.114213007968	0	0.59	4.05	1	456.568206027034	457.057811163948	"14"	966976.085633015	966968.325994509	1.5	0.1
0.01	1	0.457934466074221	1	103	NA	482.114213007968	0	0.59	4.05	1	457.286990053952	457.744924520026	"14"	966976.085633015	966968.325994509	1.5	0.1
0.01	1	0.540665813023224	1	103	NA	482.114213007968	0	0.59	4.05	1	457.972341364017	458.51300717704	"14"	966976.085633015	966968.325994509	1.5	0.1
0.01	1	0.507512585958466	1	103	NA	482.114213007968	0	0.59	4.05	1	458.741336714011	459.248849299969	"14"	966976.085633015	966968.325994509	1.5	0.1
0.01	1	0.461165345972404	1	103	NA	482.114213007968	0	0.59	4.05	1	459.476839913987	459.938005259959	"14"	966976.085633015	966968.325994509	1.5	0.1
0.01	1	0.00191293691750616	1	103	NA	482.114213007968	0	0.59	4.05	1	460.162672949024	460.164585885941	"14"	966976.085633015	966968.325994509	1.5	0.1
0.01	1	0.380862860009074	1	103	NA	482.114213007968	0	0.59	4.05	1	460.396244670963	460.777107530972	"14"	966976.085633015	966968.325994509	1.5	0.1
0.01	1	0.37924880895298	1	103	NA	482.114213007968	0	0.59	4.05	1	460.99801790202	461.377266710973	"14"	966976.085633015	966968.325994509	1.5	0.1
0.01	1	0.601272160070948	1	103	NA	482.114213007968	0	0.59	4.05	1	461.599839302944	462.201111463015	"14"	966976.085633015	966968.325994509	1.5	0.1
0.01	1	0.50983607803937	1	103	NA	482.114213007968	0	0.59	4.05	1	462.435695337947	462.945531415986	"14"	966976.085633015	966968.325994509	1.5	0.1
0.01	1	0.638043512939475	1	103	NA	482.114213007968	0	0.59	4.05	1	463.171230530017	463.809274042957	"14"	966976.085633015	966968.325994509	1.5	0.1
0.01	1	0.505749762989581	1	103	NA	482.114213007968	0	0.59	4.05	1	464.040444797953	464.546194560942	"14"	966976.085633015	966968.325994509	1.5	0.1
0.01	1	0.561708666034974	1	103	NA	482.114213007968	0	0.59	4.05	1	464.775915259961	465.337623925996	"14"	966976.085633015	966968.325994509	1.5	0.1
0.01	1	0.567771074012853	1	103	NA	482.114213007968	0	0.59	4.05	1	465.561628064956	466.129399138968	"14"	966976.085633015	966968.325994509	1.5	0.1
0.01	1	0.509517628001049	1	103	NA	482.114213007968	0	0.59	4.05	1	466.364007471944	466.873525099945	"14"	966976.085633015	966968.325994509	1.5	0.1
0.01	1	0.436651825904846	1	103	NA	482.114213007968	0	0.59	4.05	1	467.09990600904	467.536557834945	"14"	966976.085633015	966968.325994509	1.5	0.1
0.01	1	0.585342272999696	1	103	NA	482.114213007968	0	0.59	4.05	1	467.768278955016	468.353621228016	"14"	966976.085633015	966968.325994509	1.5	0.1
0.01	1	0.493437943048775	1	103	NA	482.114213007968	0	0.59	4.05	1	468.587303081993	469.080741025042	"14"	966976.085633015	966968.325994509	1.5	0.1
0.01	1	0.575504797976464	1	103	NA	482.114213007968	0	0.59	4.05	1	469.306178800995	469.881683598971	"14"	966976.085633015	966968.325994509	1.5	0.1
0.01	1	0.5251694759354	1	103	NA	482.114213007968	0	0.59	4.05	1	470.10858594405	470.633755419985	"14"	966976.085633015	966968.325994509	1.5	0.1
0.01	1	0.516159221064299	1	103	NA	482.114213007968	0	0.59	4.05	1	470.861159713939	471.377318935003	"14"	966976.085633015	966968.325994509	1.5	0.1
0.01	1	0.524078832007945	1	103	NA	482.114213007968	0	0.59	4.05	1	471.613067917991	472.137146749999	"14"	966976.085633015	966968.325994509	1.5	0.1
0.01	1	0.451776186004281	1	103	NA	482.114213007968	0	0.59	4.05	1	472.365308462991	472.817084648996	"14"	966976.085633015	966968.325994509	1.5	0.1
0.01	1	0.64620963903144	1	103	NA	482.114213007968	0	0.59	4.05	1	473.050651589991	473.696861229022	"14"	966976.085633015	966968.325994509	1.5	0.1
0.01	1	0.706105789053254	1	103	NA	482.114213007968	0	0.59	4.05	1	473.919940107968	474.626045897021	"14"	966976.085633015	966968.325994509	1.5	0.1
0.01	1	0.45816868392285	1	103	NA	482.114213007968	0	0.59	4.05	1	474.856084270054	475.314252953976	"14"	966976.085633015	966968.325994509	1.5	0.1
0.01	1	0.484189033042639	1	103	NA	482.114213007968	0	0.59	4.05	1	475.541451953002	476.025640986045	"14"	966976.085633015	966968.325994509	1.5	0.1
0.01	1	0.476812519016676	1	103	NA	482.114213007968	0	0.59	4.05	1	476.26025602303	476.737068542046	"14"	966976.085633015	966968.325994509	1.5	0.1
0.01	1	0.551079778000712	1	103	NA	482.114213007968	0	0.59	4.05	1	476.962407000014	477.513486778014	"14"	966976.085633015	966968.325994509	1.5	0.1
0.01	1	0.540724858059548	1	103	NA	482.114213007968	0	0.59	4.05	1	477.748028788948	478.288753647008	"14"	966976.085633015	966968.325994509	1.5	0.1
0.01	1	0.499492625007406	1	103	NA	482.114213007968	0	0.59	4.05	1	478.516998726991	479.016491351998	"14"	966976.085633015	966968.325994509	1.5	0.1
0.01	1	0.549209446995519	1	103	NA	482.114213007968	0	0.59	4.05	1	479.252552791964	479.80176223896	"14"	966976.085633015	966968.325994509	1.5	0.1
0.01	1	0.579455211991444	1	103	NA	482.114213007968	0	0.59	4.05	1	480.021419825964	480.600875037955	"14"	966976.085633015	966968.325994509	1.5	0.1
0.01	1	0.529693503980525	1	103	NA	482.114213007968	0	0.59	4.05	1	480.824258769047	481.353952273028	"14"	966976.085633015	966968.325994509	1.5	0.1
0.01	1	0.536245024995878	2	103	NA	482.114213007968	0	0.59	4.05	1	481.576543105999	482.112788130995	"14"	966976.085633015	966968.325994509	1.5	0.1
0.01	1	0.426369345979765	1	120	NA	533.346426322008	0	0.75	4.8	1	484.150826658006	484.577196003986	"15"	966976.085633015	966968.325994509	1.5	0.1
0.01	1	0.406075612991117	1	120	NA	533.346426322008	0	0.75	4.8	1	484.802714393009	485.208790006	"15"	966976.085633015	966968.325994509	1.5	0.1
0.01	1	0.475399222923443	1	120	NA	533.346426322008	0	0.75	4.8	1	485.437591213034	485.912990435958	"15"	966976.085633015	966968.325994509	1.5	0.1
0.01	1	0.518603264004923	1	120	NA	533.346426322008	0	0.75	4.8	1	486.139627079945	486.65823034395	"15"	966976.085633015	966968.325994509	1.5	0.1
0.01	1	0.542135672993027	1	120	NA	533.346426322008	0	0.75	4.8	1	486.891891821986	487.434027494979	"15"	966976.085633015	966968.325994509	1.5	0.1
0.01	1	0.548406359972432	1	120	NA	533.346426322008	0	0.75	4.8	1	487.660883505014	488.209289864986	"15"	966976.085633015	966968.325994509	1.5	0.1
0.01	1	0.418136277934536	1	120	NA	533.346426322008	0	0.75	4.8	1	488.446591772023	488.864728049957	"15"	966976.085633015	966968.325994509	1.5	0.1
0.01	1	0.431712811929174	1	120	NA	533.346426322008	0	0.75	4.8	1	489.098484160029	489.530196971959	"15"	966976.085633015	966968.325994509	1.5	0.1
0.01	1	0.443744051968679	1	120	NA	533.346426322008	0	0.75	4.8	1	489.750458679046	490.194202731014	"15"	966976.085633015	966968.325994509	1.5	0.1
0.01	1	0.438553542946465	1	120	NA	533.346426322008	0	0.75	4.8	1	490.419090159005	490.857643701951	"15"	966976.085633015	966968.325994509	1.5	0.1
0.01	1	0.489400250953622	1	120	NA	533.346426322008	0	0.75	4.8	1	491.087848438998	491.577248689951	"15"	966976.085633015	966968.325994509	1.5	0.1
0.01	1	0.562300588004291	1	120	NA	533.346426322008	0	0.75	4.8	1	491.806556915981	492.368857503985	"15"	966976.085633015	966968.325994509	1.5	0.1
0.01	1	0.536229880992323	1	120	NA	533.346426322008	0	0.75	4.8	1	492.592305400991	493.128535281983	"15"	966976.085633015	966968.325994509	1.5	0.1
0.01	1	0.551873870077543	1	120	NA	533.346426322008	0	0.75	4.8	1	493.361206945963	493.913080816041	"15"	966976.085633015	966968.325994509	1.5	0.1
0.01	1	0.390368209918961	1	120	NA	533.346426322008	0	0.75	4.8	1	494.146923313034	494.537291522953	"15"	966976.085633015	966968.325994509	1.5	0.1
0.01	1	0.411355954012834	1	120	NA	533.346426322008	0	0.75	4.8	1	494.765427940991	495.176783895004	"15"	966976.085633015	966968.325994509	1.5	0.1
0.01	1	0.449444739031605	1	120	NA	533.346426322008	0	0.75	4.8	1	495.400695923017	495.850140662049	"15"	966976.085633015	966968.325994509	1.5	0.1
0.01	1	0.499715723097324	1	120	NA	533.346426322008	0	0.75	4.8	1	496.086074337945	496.585790061043	"15"	966976.085633015	966968.325994509	1.5	0.1
0.01	1	0.37254449503962	1	120	NA	533.346426322008	0	0.75	4.8	1	496.821572102956	497.194116597995	"15"	966976.085633015	966968.325994509	1.5	0.1
0.01	1	0.649242482963018	1	120	NA	533.346426322008	0	0.75	4.8	1	497.423374752048	498.072617235011	"15"	966976.085633015	966968.325994509	1.5	0.1
0.01	1	0.300338665954769	1	120	NA	533.346426322008	0	0.75	4.8	1	498.309306117008	498.609644782962	"15"	966976.085633015	966968.325994509	1.5	0.1
0.01	1	0.517406524973921	1	120	NA	533.346426322008	0	0.75	4.8	1	498.844262166996	499.36166869197	"15"	966976.085633015	966968.325994509	1.5	0.1
0.01	1	0.453512917039916	1	120	NA	533.346426322008	0	0.75	4.8	1	499.596525816945	500.050038733985	"15"	966976.085633015	966968.325994509	1.5	0.1
0.01	1	0.423624022048898	1	120	NA	533.346426322008	0	0.75	4.8	1	500.281895176973	500.705519199022	"15"	966976.085633015	966968.325994509	1.5	0.1
0.01	1	0.459336068015546	1	120	NA	533.346426322008	0	0.75	4.8	1	500.933826269	501.393162337015	"15"	966976.085633015	966968.325994509	1.5	0.1
0.01	1	0.405252467026003	1	120	NA	533.346426322008	0	0.75	4.8	1	501.619608556968	502.024861023994	"15"	966976.085633015	966968.325994509	1.5	0.1
0.01	1	0.00170782802160829	1	120	NA	533.346426322008	0	0.75	4.8	1	502.254402220948	502.256110048969	"15"	966976.085633015	966968.325994509	1.5	0.1
0.01	1	0.209483959013596	1	120	NA	533.346426322008	0	0.75	4.8	1	502.488505720976	502.697989679989	"15"	966976.085633015	966968.325994509	1.5	0.1
0.01	1	0.55740343790967	1	120	NA	533.346426322008	0	0.75	4.8	1	502.923153009033	503.480556446943	"15"	966976.085633015	966968.325994509	1.5	0.1
0.01	1	0.419688405003399	1	120	NA	533.346426322008	0	0.75	4.8	1	503.708817705978	504.128506110981	"15"	966976.085633015	966968.325994509	1.5	0.1
0.01	1	0.464794743922539	1	120	NA	533.346426322008	0	0.75	4.8	1	504.360708498047	504.825503241969	"15"	966976.085633015	966968.325994509	1.5	0.1
0.01	1	0.467897127964534	1	120	NA	533.346426322008	0	0.75	4.8	1	505.046129020979	505.514026148943	"15"	966976.085633015	966968.325994509	1.5	0.1
0.01	1	0.501743608969264	1	120	NA	533.346426322008	0	0.75	4.8	1	505.748187212972	506.249930821941	"15"	966976.085633015	966968.325994509	1.5	0.1
0.01	1	0.357101558940485	1	120	NA	533.346426322008	0	0.75	4.8	1	506.483695970033	506.840797528974	"15"	966976.085633015	966968.325994509	1.5	0.1
0.01	1	0.325377903063782	1	120	NA	533.346426322008	0	0.75	4.8	1	507.068822843954	507.394200747018	"15"	966976.085633015	966968.325994509	1.5	0.1
0.01	1	0.46872856002301	1	120	NA	533.346426322008	0	0.75	4.8	1	507.62039921002	508.089127770043	"15"	966976.085633015	966968.325994509	1.5	0.1
0.01	1	0.390594299999066	1	120	NA	533.346426322008	0	0.75	4.8	1	508.322512221988	508.713106521987	"15"	966976.085633015	966968.325994509	1.5	0.1
0.01	1	0.452768706018105	1	120	NA	533.346426322008	0	0.75	4.8	1	508.941030991962	509.39379969798	"15"	966976.085633015	966968.325994509	1.5	0.1
0.01	1	0.367355989990756	1	120	NA	533.346426322008	0	0.75	4.8	1	509.626454642043	509.993810632033	"15"	966976.085633015	966968.325994509	1.5	0.1
0.01	1	0.00180151395034045	1	120	NA	533.346426322008	0	0.75	4.8	1	510.228152779047	510.229954292998	"15"	966976.085633015	966968.325994509	1.5	0.1
0.01	1	0.171909758006223	1	120	NA	533.346426322008	0	0.75	4.8	1	510.462279628962	510.634189386969	"15"	966976.085633015	966968.325994509	1.5	0.1
0.01	1	0.433966400101781	1	120	NA	533.346426322008	0	0.75	4.8	1	510.863467206946	511.297433607047	"15"	966976.085633015	966968.325994509	1.5	0.1
0.01	1	0.365412464016117	1	120	NA	533.346426322008	0	0.75	4.8	1	511.532147577032	511.897560041049	"15"	966976.085633015	966968.325994509	1.5	0.1
0.01	1	0.395627560908906	1	120	NA	533.346426322008	0	0.75	4.8	1	512.133865389042	512.529492949951	"15"	966976.085633015	966968.325994509	1.5	0.1
0.01	1	0.34563202096615	1	120	NA	533.346426322008	0	0.75	4.8	1	512.752407829044	513.098039850011	"15"	966976.085633015	966968.325994509	1.5	0.1
0.01	1	0.439914749003947	1	120	NA	533.346426322008	0	0.75	4.8	1	513.32079032599	513.760705074994	"15"	966976.085633015	966968.325994509	1.5	0.1
0.01	1	0.284282794920728	1	120	NA	533.346426322008	0	0.75	4.8	1	513.989477501018	514.273760295939	"15"	966976.085633015	966968.325994509	1.5	0.1
0.01	1	0.357505874941126	1	120	NA	533.346426322008	0	0.75	4.8	1	514.507627406041	514.865133280982	"15"	966976.085633015	966968.325994509	1.5	0.1
0.01	1	0.00180553505197167	1	120	NA	533.346426322008	0	0.75	4.8	1	515.093117265962	515.094922801014	"15"	966976.085633015	966968.325994509	1.5	0.1
0.01	1	0.242794583900832	1	120	NA	533.346426322008	0	0.75	4.8	1	515.326707993052	515.569502576953	"15"	966976.085633015	966968.325994509	1.5	0.1
0.01	1	0.446484504966065	1	120	NA	533.346426322008	0	0.75	4.8	1	515.794775280985	516.241259785951	"15"	966976.085633015	966968.325994509	1.5	0.1
0.01	1	0.44967339897994	1	120	NA	533.346426322008	0	0.75	4.8	1	516.463442316046	516.913115715026	"15"	966976.085633015	966968.325994509	1.5	0.1
0.01	1	0.324983620084822	1	120	NA	533.346426322008	0	0.75	4.8	1	517.148823529948	517.473807150032	"15"	966976.085633015	966968.325994509	1.5	0.1
0.01	1	0.516197675955482	1	120	NA	533.346426322008	0	0.75	4.8	1	517.700490718009	518.216688393964	"15"	966976.085633015	966968.325994509	1.5	0.1
0.01	1	0.467669610981829	1	120	NA	533.346426322008	0	0.75	4.8	1	518.452806898043	518.920476509025	"15"	966976.085633015	966968.325994509	1.5	0.1
0.01	1	0.415365534950979	1	120	NA	533.346426322008	0	0.75	4.8	1	519.154838367016	519.570203901967	"15"	966976.085633015	966968.325994509	1.5	0.1
0.01	1	0.531805875012651	1	120	NA	533.346426322008	0	0.75	4.8	1	519.790106802015	520.321912677027	"15"	966976.085633015	966968.325994509	1.5	0.1
0.01	1	0.467333274078555	1	120	NA	533.346426322008	0	0.75	4.8	1	520.542351244949	521.009684519027	"15"	966976.085633015	966968.325994509	1.5	0.1
0.01	1	0.412220382946543	1	120	NA	533.346426322008	0	0.75	4.8	1	521.244400109048	521.656620491995	"15"	966976.085633015	966968.325994509	1.5	0.1
0.01	1	0.513331713038497	1	120	NA	533.346426322008	0	0.75	4.8	1	521.880009763991	522.393341477029	"15"	966976.085633015	966968.325994509	1.5	0.1
