"payoff.level"	"balloon"	"rt"	"resp"	"explode.trial"	"explode.time"	"finish.time"	"exploded"	"trial.total"	"cumulative.total"	"finished"	"trial.start"	"trial.end"	"trial.num"	"secs"	"start.time"	"iti"	"isi"
0.01	1	1.60536548700111	1	64	53.7853148039994	NA	1	0	0	1	0.0239863219994731	1.62935180900058	"1"	12546.189654667	12543.307392331	1.5	0.1
0.01	1	0.565248445000179	1	64	53.7853148039994	NA	1	0	0	1	1.97713883799952	2.5423872829997	"1"	12546.189654667	12543.307392331	1.5	0.1
0.01	1	0.899434638000457	1	64	53.7853148039994	NA	1	0	0	1	2.7785843519996	3.67801899000006	"1"	12546.189654667	12543.307392331	1.5	0.1
0.01	1	0.964135254998837	1	64	53.7853148039994	NA	1	0	0	1	3.91385262900076	4.87798788399959	"1"	12546.189654667	12543.307392331	1.5	0.1
0.01	1	0.681599911000376	1	64	53.7853148039994	NA	1	0	0	1	5.11581349900007	5.79741341000044	"1"	12546.189654667	12543.307392331	1.5	0.1
0.01	1	0.611701177000214	1	64	53.7853148039994	NA	1	0	0	1	6.03399280200028	6.6456939790005	"1"	12546.189654667	12543.307392331	1.5	0.1
0.01	1	0.49661681500038	1	64	53.7853148039994	NA	1	0	0	1	6.86879302200032	7.3654098370007	"1"	12546.189654667	12543.307392331	1.5	0.1
0.01	1	0.683910058000038	1	64	53.7853148039994	NA	1	0	0	1	7.60329395900044	8.28720401700048	"1"	12546.189654667	12543.307392331	1.5	0.1
0.01	1	0.685467535999123	1	64	53.7853148039994	NA	1	0	0	1	8.5215647240002	9.20703225999932	"1"	12546.189654667	12543.307392331	1.5	0.1
0.01	1	0.597869447999983	1	64	53.7853148039994	NA	1	0	0	1	9.43976687900067	10.0376363270007	"1"	12546.189654667	12543.307392331	1.5	0.1
0.01	1	0.61992436699984	1	64	53.7853148039994	NA	1	0	0	1	10.2744439319995	10.8943682989993	"1"	12546.189654667	12543.307392331	1.5	0.1
0.01	1	0.472688956000638	1	64	53.7853148039994	NA	1	0	0	1	11.1259701170002	11.5986590730008	"1"	12546.189654667	12543.307392331	1.5	0.1
0.01	1	0.48227987700011	1	64	53.7853148039994	NA	1	0	0	1	11.8272406569995	12.3095205339996	"1"	12546.189654667	12543.307392331	1.5	0.1
0.01	1	0.508348555000339	1	64	53.7853148039994	NA	1	0	0	1	12.5449909470008	13.0533395020011	"1"	12546.189654667	12543.307392331	1.5	0.1
0.01	1	0.566545060000863	1	64	53.7853148039994	NA	1	0	0	1	13.2796341489993	13.8461792090002	"1"	12546.189654667	12543.307392331	1.5	0.1
0.01	1	0.525774427000215	1	64	53.7853148039994	NA	1	0	0	1	14.0808651269999	14.6066395540001	"1"	12546.189654667	12543.307392331	1.5	0.1
0.01	1	0.534022903000732	1	64	53.7853148039994	NA	1	0	0	1	14.8321593620003	15.366182265001	"1"	12546.189654667	12543.307392331	1.5	0.1
0.01	1	0.606538054000339	1	64	53.7853148039994	NA	1	0	0	1	15.6000608569993	16.2065989109997	"1"	12546.189654667	12543.307392331	1.5	0.1
0.01	1	0.507260217998919	1	64	53.7853148039994	NA	1	0	0	1	16.4348259720009	16.9420861899998	"1"	12546.189654667	12543.307392331	1.5	0.1
0.01	1	0.476569989001291	1	64	53.7853148039994	NA	1	0	0	1	17.1695130669996	17.6460830560009	"1"	12546.189654667	12543.307392331	1.5	0.1
0.01	1	0.502830579998772	1	64	53.7853148039994	NA	1	0	0	1	17.8706292420011	18.3734598219999	"1"	12546.189654667	12543.307392331	1.5	0.1
0.01	1	0.585477578000791	1	64	53.7853148039994	NA	1	0	0	1	18.6051359390003	19.1906135170011	"1"	12546.189654667	12543.307392331	1.5	0.1
0.01	1	0.494391926999015	1	64	53.7853148039994	NA	1	0	0	1	19.4233420870005	19.9177340139995	"1"	12546.189654667	12543.307392331	1.5	0.1
0.01	1	0.496549430999949	1	64	53.7853148039994	NA	1	0	0	1	20.1411168119994	20.6376662429993	"1"	12546.189654667	12543.307392331	1.5	0.1
0.01	1	0.562787060000119	1	64	53.7853148039994	NA	1	0	0	1	20.8756144069994	21.4384014669995	"1"	12546.189654667	12543.307392331	1.5	0.1
0.01	1	0.52957828900071	1	64	53.7853148039994	NA	1	0	0	1	21.6769844589999	22.2065627480006	"1"	12546.189654667	12543.307392331	1.5	0.1
0.01	1	0.505379905000154	1	64	53.7853148039994	NA	1	0	0	1	22.4450042770004	22.9503841820006	"1"	12546.189654667	12543.307392331	1.5	0.1
0.01	1	0.562144511999577	1	64	53.7853148039994	NA	1	0	0	1	23.1794347140003	23.7415792259999	"1"	12546.189654667	12543.307392331	1.5	0.1
0.01	1	0.625265422999291	1	64	53.7853148039994	NA	1	0	0	1	23.9642761590003	24.5895415819996	"1"	12546.189654667	12543.307392331	1.5	0.1
0.01	1	0.565990924998914	1	64	53.7853148039994	NA	1	0	0	1	24.8156648590011	25.381655784	"1"	12546.189654667	12543.307392331	1.5	0.1
0.01	1	0.65243423100037	1	64	53.7853148039994	NA	1	0	0	1	25.6170483219994	26.2694825529998	"1"	12546.189654667	12543.307392331	1.5	0.1
0.01	1	0.632412539998768	1	64	53.7853148039994	NA	1	0	0	1	26.5018444920006	27.1342570319994	"1"	12546.189654667	12543.307392331	1.5	0.1
0.01	1	0.532367792000514	1	64	53.7853148039994	NA	1	0	0	1	27.3698416469997	27.9022094390002	"1"	12546.189654667	12543.307392331	1.5	0.1
0.01	1	0.589032011999734	1	64	53.7853148039994	NA	1	0	0	1	28.137879027001	28.7269110390007	"1"	12546.189654667	12543.307392331	1.5	0.1
0.01	1	0.634668656999565	1	64	53.7853148039994	NA	1	0	0	1	28.9559345790003	29.5906032359999	"1"	12546.189654667	12543.307392331	1.5	0.1
0.01	1	0.511138489000587	1	64	53.7853148039994	NA	1	0	0	1	29.8239677820002	30.3351062710008	"1"	12546.189654667	12543.307392331	1.5	0.1
0.01	1	0.767596272000446	1	64	53.7853148039994	NA	1	0	0	1	30.5586136719994	31.3262099439999	"1"	12546.189654667	12543.307392331	1.5	0.1
0.01	1	0.510801074000483	1	64	53.7853148039994	NA	1	0	0	1	31.5602116190003	32.0710126930007	"1"	12546.189654667	12543.307392331	1.5	0.1
0.01	1	0.59172058400145	1	64	53.7853148039994	NA	1	0	0	1	32.2949272389997	32.8866478230011	"1"	12546.189654667	12543.307392331	1.5	0.1
0.01	1	0.476824908999333	1	64	53.7853148039994	NA	1	0	0	1	33.112865037001	33.5896899460004	"1"	12546.189654667	12543.307392331	1.5	0.1
0.01	1	0.478916375999688	1	64	53.7853148039994	NA	1	0	0	1	33.8307807790006	34.3096971550003	"1"	12546.189654667	12543.307392331	1.5	0.1
0.01	1	0.441502953999588	1	64	53.7853148039994	NA	1	0	0	1	34.531982157001	34.9734851110006	"1"	12546.189654667	12543.307392331	1.5	0.1
0.01	1	0.622496095000315	1	64	53.7853148039994	NA	1	0	0	1	35.1998153139994	35.8223114089997	"1"	12546.189654667	12543.307392331	1.5	0.1
0.01	1	0.483011254000303	1	64	53.7853148039994	NA	1	0	0	1	36.0512444870001	36.5342557410004	"1"	12546.189654667	12543.307392331	1.5	0.1
0.01	1	0.429049802000009	1	64	53.7853148039994	NA	1	0	0	1	36.7689813739998	37.1980311759999	"1"	12546.189654667	12543.307392331	1.5	0.1
0.01	1	0.443041324999285	1	64	53.7853148039994	NA	1	0	0	1	37.4200794070002	37.8631207319995	"1"	12546.189654667	12543.307392331	1.5	0.1
0.01	1	0.502743757999269	1	64	53.7853148039994	NA	1	0	0	1	38.0880668940008	38.5908106520001	"1"	12546.189654667	12543.307392331	1.5	0.1
0.01	1	0.631689710000501	1	64	53.7853148039994	NA	1	0	0	1	38.8225556870002	39.4542453970007	"1"	12546.189654667	12543.307392331	1.5	0.1
0.01	1	0.690970979998383	1	64	53.7853148039994	NA	1	0	0	1	39.6906380880009	40.3816090679993	"1"	12546.189654667	12543.307392331	1.5	0.1
0.01	1	0.429380634999688	1	64	53.7853148039994	NA	1	0	0	1	40.6088909919999	41.0382716269996	"1"	12546.189654667	12543.307392331	1.5	0.1
0.01	1	0.658020049999323	1	64	53.7853148039994	NA	1	0	0	1	41.2766011370004	41.9346211869997	"1"	12546.189654667	12543.307392331	1.5	0.1
0.01	1	0.780510651000441	1	64	53.7853148039994	NA	1	0	0	1	42.1614974370004	42.9420080880009	"1"	12546.189654667	12543.307392331	1.5	0.1
0.01	1	0.386484054000903	1	64	53.7853148039994	NA	1	0	0	1	43.1798623939994	43.5663464480003	"1"	12546.189654667	12543.307392331	1.5	0.1
0.01	1	0.464232007001556	1	64	53.7853148039994	NA	1	0	0	1	43.7975352489993	44.2617672560009	"1"	12546.189654667	12543.307392331	1.5	0.1
0.01	1	0.52414166500057	1	64	53.7853148039994	NA	1	0	0	1	44.4986704820003	45.0228121470009	"1"	12546.189654667	12543.307392331	1.5	0.1
0.01	1	0.636269847000221	1	64	53.7853148039994	NA	1	0	0	1	45.2500046490004	45.8862744960006	"1"	12546.189654667	12543.307392331	1.5	0.1
0.01	1	0.45664002599915	1	64	53.7853148039994	NA	1	0	0	1	46.1180947240009	46.5747347500001	"1"	12546.189654667	12543.307392331	1.5	0.1
0.01	1	0.627399887000138	1	64	53.7853148039994	NA	1	0	0	1	46.8025983219995	47.4299982089997	"1"	12546.189654667	12543.307392331	1.5	0.1
0.01	1	0.712085189999925	1	64	53.7853148039994	NA	1	0	0	1	47.6540264569994	48.3661116469993	"1"	12546.189654667	12543.307392331	1.5	0.1
0.01	1	0.793645280000419	1	64	53.7853148039994	NA	1	0	0	1	48.5889999640003	49.3826452440007	"1"	12546.189654667	12543.307392331	1.5	0.1
0.01	1	1.4308482840006	1	64	53.7853148039994	NA	1	0	0	1	49.6240052619996	51.0548535460002	"1"	12546.189654667	12543.307392331	1.5	0.1
0.01	1	0.792284552999263	1	64	53.7853148039994	NA	1	0	0	1	51.2934175070004	52.0857020599997	"1"	12546.189654667	12543.307392331	1.5	0.1
0.01	1	0.479019450998749	1	64	53.7853148039994	NA	1	0	0	1	52.311929802001	52.7909492529998	"1"	12546.189654667	12543.307392331	1.5	0.1
0.01	1	0.640982893999535	1	64	53.7853148039994	NA	1	0	0	1	53.0297503170004	53.670733211	"1"	12546.189654667	12543.307392331	1.5	0.1
0.01	1	0.964862370999981	1	102	NA	63.7522583280006	0	0.18	0.18	1	55.8177964070001	56.782658778	"2"	12546.189654667	12543.307392331	1.5	0.1
0.01	1	0.00458329699904425	1	102	NA	63.7522583280006	0	0.18	0.18	1	57.0197328270006	57.0243161239996	"2"	12546.189654667	12543.307392331	1.5	0.1
0.01	1	0.00381314799960819	1	102	NA	63.7522583280006	0	0.18	0.18	1	57.2534844239999	57.2572975719995	"2"	12546.189654667	12543.307392331	1.5	0.1
0.01	1	0.00451728999905754	1	102	NA	63.7522583280006	0	0.18	0.18	1	57.4873777970006	57.4918950869996	"2"	12546.189654667	12543.307392331	1.5	0.1
0.01	1	0.00454568700115487	1	102	NA	63.7522583280006	0	0.18	0.18	1	57.7209721519994	57.7255178390005	"2"	12546.189654667	12543.307392331	1.5	0.1
0.01	1	0.00329869199958921	1	102	NA	63.7522583280006	0	0.18	0.18	1	57.9547601499999	57.9580588419994	"2"	12546.189654667	12543.307392331	1.5	0.1
0.01	1	0.00250460899951577	1	102	NA	63.7522583280006	0	0.18	0.18	1	58.1884470479999	58.1909516569995	"2"	12546.189654667	12543.307392331	1.5	0.1
0.01	1	0.120016822000252	1	102	NA	63.7522583280006	0	0.18	0.18	1	58.4221233839999	58.5421402060001	"2"	12546.189654667	12543.307392331	1.5	0.1
0.01	1	1.04967951800063	1	102	NA	63.7522583280006	0	0.18	0.18	1	58.7727101319997	59.8223896500003	"2"	12546.189654667	12543.307392331	1.5	0.1
0.01	1	0.00207816400143201	1	102	NA	63.7522583280006	0	0.18	0.18	1	60.0582755159994	60.0603536800008	"2"	12546.189654667	12543.307392331	1.5	0.1
0.01	1	0.00451089699890872	1	102	NA	63.7522583280006	0	0.18	0.18	1	60.2919090320011	60.296419929	"2"	12546.189654667	12543.307392331	1.5	0.1
0.01	1	0.00387877899993327	1	102	NA	63.7522583280006	0	0.18	0.18	1	60.5256331170003	60.5295118960003	"2"	12546.189654667	12543.307392331	1.5	0.1
0.01	1	0.366360890999204	1	102	NA	63.7522583280006	0	0.18	0.18	1	60.7595135820011	61.1258744730003	"2"	12546.189654667	12543.307392331	1.5	0.1
0.01	1	0.00212630399983027	1	102	NA	63.7522583280006	0	0.18	0.18	1	61.3604556080008	61.3625819120007	"2"	12546.189654667	12543.307392331	1.5	0.1
0.01	1	0.115871779000372	1	102	NA	63.7522583280006	0	0.18	0.18	1	61.5940828370003	61.7099546160007	"2"	12546.189654667	12543.307392331	1.5	0.1
0.01	1	0.00224712800081761	1	102	NA	63.7522583280006	0	0.18	0.18	1	61.9447713019999	61.9470184300008	"2"	12546.189654667	12543.307392331	1.5	0.1
0.01	1	0.00213697199978924	1	102	NA	63.7522583280006	0	0.18	0.18	1	62.1784371400008	62.1805741120006	"2"	12546.189654667	12543.307392331	1.5	0.1
0.01	1	0.851022184999238	1	102	NA	63.7522583280006	0	0.18	0.18	1	62.4122251520002	63.2632473369995	"2"	12546.189654667	12543.307392331	1.5	0.1
0.01	1	0.253326616000777	2	102	NA	63.7522583280006	0	0.18	0.18	1	63.4973801489996	63.7507067650004	"2"	12546.189654667	12543.307392331	1.5	0.1
0.01	1	1.34249329399972	1	97	NA	77.8726325690004	0	0.19	0.37	1	65.7845320870001	67.1270253809998	"3"	12546.189654667	12543.307392331	1.5	0.1
0.01	1	0.0771686620009859	1	97	NA	77.8726325690004	0	0.19	0.37	1	67.3538980869998	67.4310667490008	"3"	12546.189654667	12543.307392331	1.5	0.1
0.01	1	0.0470918379996874	1	97	NA	77.8726325690004	0	0.19	0.37	1	67.6711138120008	67.7182056500005	"3"	12546.189654667	12543.307392331	1.5	0.1
0.01	1	0.00202630400053749	1	97	NA	77.8726325690004	0	0.19	0.37	1	67.9548362469995	67.9568625510001	"3"	12546.189654667	12543.307392331	1.5	0.1
0.01	1	0.00207551600033185	1	97	NA	77.8726325690004	0	0.19	0.37	1	68.1886205999999	68.1906961160003	"3"	12546.189654667	12543.307392331	1.5	0.1
0.01	1	0.00373199299974658	1	97	NA	77.8726325690004	0	0.19	0.37	1	68.4221827069996	68.4259146999993	"3"	12546.189654667	12543.307392331	1.5	0.1
0.01	1	0.00331263400039461	1	97	NA	77.8726325690004	0	0.19	0.37	1	68.6560061399996	68.659318774	"3"	12546.189654667	12543.307392331	1.5	0.1
0.01	1	0.0356920779995562	1	97	NA	77.8726325690004	0	0.19	0.37	1	68.8898311020002	68.9255231799998	"3"	12546.189654667	12543.307392331	1.5	0.1
0.01	1	0.00955808199978492	1	97	NA	77.8726325690004	0	0.19	0.37	1	69.1569511119997	69.1665091939994	"3"	12546.189654667	12543.307392331	1.5	0.1
0.01	1	0.0241657049991773	1	97	NA	77.8726325690004	0	0.19	0.37	1	69.3905487470001	69.4147144519993	"3"	12546.189654667	12543.307392331	1.5	0.1
0.01	1	0.00234342600015225	1	97	NA	77.8726325690004	0	0.19	0.37	1	69.6410747040009	69.643418130001	"3"	12546.189654667	12543.307392331	1.5	0.1
0.01	1	0.00211653299993486	1	97	NA	77.8726325690004	0	0.19	0.37	1	69.8747489190009	69.8768654520009	"3"	12546.189654667	12543.307392331	1.5	0.1
0.01	1	0.00460661699980847	1	97	NA	77.8726325690004	0	0.19	0.37	1	70.1084901869999	70.1130968039997	"3"	12546.189654667	12543.307392331	1.5	0.1
0.01	1	0.576239772000918	1	97	NA	77.8726325690004	0	0.19	0.37	1	70.3422168319994	70.9184566040003	"3"	12546.189654667	12543.307392331	1.5	0.1
0.01	1	0.910696228000234	1	97	NA	77.8726325690004	0	0.19	0.37	1	71.1436081989996	72.0543044269998	"3"	12546.189654667	12543.307392331	1.5	0.1
0.01	1	1.0955425079992	1	97	NA	77.8726325690004	0	0.19	0.37	1	72.2954585290008	73.391001037	"3"	12546.189654667	12543.307392331	1.5	0.1
0.01	1	1.17559915800121	1	97	NA	77.8726325690004	0	0.19	0.37	1	73.6143689319997	74.7899680900009	"3"	12546.189654667	12543.307392331	1.5	0.1
0.01	1	1.1253355860008	1	97	NA	77.8726325690004	0	0.19	0.37	1	75.0166354840003	76.1419710700011	"3"	12546.189654667	12543.307392331	1.5	0.1
0.01	1	0.80446931500046	1	97	NA	77.8726325690004	0	0.19	0.37	1	76.3689988719998	77.1734681870003	"3"	12546.189654667	12543.307392331	1.5	0.1
0.01	1	0.466864789001193	2	97	NA	77.8726325690004	0	0.19	0.37	1	77.4042055989994	77.8710703880006	"3"	12546.189654667	12543.307392331	1.5	0.1
0.01	1	1.242631617999	1	51	NA	89.1921954610007	0	0.24	0.61	1	79.9082907520005	81.1509223699995	"4"	12546.189654667	12543.307392331	1.5	0.1
0.01	1	0.0691657879997365	1	51	NA	89.1921954610007	0	0.24	0.61	1	81.3773694190004	81.4465352070001	"4"	12546.189654667	12543.307392331	1.5	0.1
0.01	1	0.0871786550014804	1	51	NA	89.1921954610007	0	0.24	0.61	1	81.6780154789994	81.7651941340009	"4"	12546.189654667	12543.307392331	1.5	0.1
0.01	1	0.114550402000532	1	51	NA	89.1921954610007	0	0.24	0.61	1	81.9951626620004	82.109713064001	"4"	12546.189654667	12543.307392331	1.5	0.1
0.01	1	0.380695642999854	1	51	NA	89.1921954610007	0	0.24	0.61	1	82.3457288770005	82.7264245200004	"4"	12546.189654667	12543.307392331	1.5	0.1
0.01	1	0.267619779999222	1	51	NA	89.1921954610007	0	0.24	0.61	1	82.9634458100008	83.2310655900001	"4"	12546.189654667	12543.307392331	1.5	0.1
0.01	1	0.310062399999879	1	51	NA	89.1921954610007	0	0.24	0.61	1	83.4643051870007	83.7743675870006	"4"	12546.189654667	12543.307392331	1.5	0.1
0.01	1	0.095819821999612	1	51	NA	89.1921954610007	0	0.24	0.61	1	83.9985132239999	84.0943330459995	"4"	12546.189654667	12543.307392331	1.5	0.1
0.01	1	0.0897059379985876	1	51	NA	89.1921954610007	0	0.24	0.61	1	84.332353142001	84.4220590799996	"4"	12546.189654667	12543.307392331	1.5	0.1
0.01	1	0.0278801660006138	1	51	NA	89.1921954610007	0	0.24	0.61	1	84.6496062610004	84.677486427001	"4"	12546.189654667	12543.307392331	1.5	0.1
0.01	1	0.0343859029999294	1	51	NA	89.1921954610007	0	0.24	0.61	1	84.9167319890003	84.9511178920002	"4"	12546.189654667	12543.307392331	1.5	0.1
0.01	1	0.0019973239996034	1	51	NA	89.1921954610007	0	0.24	0.61	1	85.1838863970006	85.1858837210002	"4"	12546.189654667	12543.307392331	1.5	0.1
0.01	1	0.00386541100124305	1	51	NA	89.1921954610007	0	0.24	0.61	1	85.4175512069996	85.4214166180009	"4"	12546.189654667	12543.307392331	1.5	0.1
0.01	1	0.106672719999551	1	51	NA	89.1921954610007	0	0.24	0.61	1	85.6512817620005	85.7579544820001	"4"	12546.189654667	12543.307392331	1.5	0.1
0.01	1	0.00203059999876132	1	51	NA	89.1921954610007	0	0.24	0.61	1	85.985181080001	85.9872116799997	"4"	12546.189654667	12543.307392331	1.5	0.1
0.01	1	0.00243997400139051	1	51	NA	89.1921954610007	0	0.24	0.61	1	86.2189444239993	86.2213843980007	"4"	12546.189654667	12543.307392331	1.5	0.1
0.01	1	0.00464422999903036	1	51	NA	89.1921954610007	0	0.24	0.61	1	86.4526443070008	86.4572885369998	"4"	12546.189654667	12543.307392331	1.5	0.1
0.01	1	0.00201979200028291	1	51	NA	89.1921954610007	0	0.24	0.61	1	86.6863742780006	86.6883940700009	"4"	12546.189654667	12543.307392331	1.5	0.1
0.01	1	0.00202011399960611	1	51	NA	89.1921954610007	0	0.24	0.61	1	86.9200300419998	86.9220501559994	"4"	12546.189654667	12543.307392331	1.5	0.1
0.01	1	0.00453124700106855	1	51	NA	89.1921954610007	0	0.24	0.61	1	87.1538353569995	87.1583666040005	"4"	12546.189654667	12543.307392331	1.5	0.1
0.01	1	0.00440878100016562	1	51	NA	89.1921954610007	0	0.24	0.61	1	87.3876494510005	87.3920582320006	"4"	12546.189654667	12543.307392331	1.5	0.1
0.01	1	0.00395999300053518	1	51	NA	89.1921954610007	0	0.24	0.61	1	87.6213777869998	87.6253377800003	"4"	12546.189654667	12543.307392331	1.5	0.1
0.01	1	0.159964013000717	1	51	NA	89.1921954610007	0	0.24	0.61	1	87.855007917	88.0149719300007	"4"	12546.189654667	12543.307392331	1.5	0.1
0.01	1	0.0138205140010541	1	51	NA	89.1921954610007	0	0.24	0.61	1	88.2555992369998	88.2694197510009	"4"	12546.189654667	12543.307392331	1.5	0.1
0.01	1	0.684440544000608	2	51	NA	89.1921954610007	0	0.24	0.61	1	88.5060626140003	89.1905031580009	"4"	12546.189654667	12543.307392331	1.5	0.1
0.01	1	1.23467035600152	1	116	NA	99.4469331300006	0	0.22	0.83	1	91.2273357409995	92.462006097001	"5"	12546.189654667	12543.307392331	1.5	0.1
0.01	1	0.0701235270007601	1	116	NA	99.4469331300006	0	0.22	0.83	1	92.696560847	92.7666843740008	"5"	12546.189654667	12543.307392331	1.5	0.1
0.01	1	0.0736008300009416	1	116	NA	99.4469331300006	0	0.22	0.83	1	92.9970055169997	93.0706063470006	"5"	12546.189654667	12543.307392331	1.5	0.1
0.01	1	0.0772673739993479	1	116	NA	99.4469331300006	0	0.22	0.83	1	93.2974644820006	93.3747318559999	"5"	12546.189654667	12543.307392331	1.5	0.1
0.01	1	0.00454469000032987	1	116	NA	99.4469331300006	0	0.22	0.83	1	93.5980233320006	93.6025680220009	"5"	12546.189654667	12543.307392331	1.5	0.1
0.01	1	0.0387039380002534	1	116	NA	99.4469331300006	0	0.22	0.83	1	93.8317184389998	93.8704223770001	"5"	12546.189654667	12543.307392331	1.5	0.1
0.01	1	0.0761046180014091	1	116	NA	99.4469331300006	0	0.22	0.83	1	94.0988896519993	94.1749942700008	"5"	12546.189654667	12543.307392331	1.5	0.1
0.01	1	0.0709820079991914	1	116	NA	99.4469331300006	0	0.22	0.83	1	94.3993973270008	94.470379335	"5"	12546.189654667	12543.307392331	1.5	0.1
0.01	1	0.0737420810000913	1	116	NA	99.4469331300006	0	0.22	0.83	1	94.6998965670009	94.773638648001	"5"	12546.189654667	12543.307392331	1.5	0.1
0.01	1	0.0689216869996017	1	116	NA	99.4469331300006	0	0.22	0.83	1	95.0003346789999	95.0692563659995	"5"	12546.189654667	12543.307392331	1.5	0.1
0.01	1	0.0723959719998675	1	116	NA	99.4469331300006	0	0.22	0.83	1	95.3009450620011	95.373341034001	"5"	12546.189654667	12543.307392331	1.5	0.1
0.01	1	0.0841517389999353	1	116	NA	99.4469331300006	0	0.22	0.83	1	95.6013650210007	95.6855167600006	"5"	12546.189654667	12543.307392331	1.5	0.1
0.01	1	0.0723926240007131	1	116	NA	99.4469331300006	0	0.22	0.83	1	95.9186373089997	95.9910299330004	"5"	12546.189654667	12543.307392331	1.5	0.1
0.01	1	0.0837692169989168	1	116	NA	99.4469331300006	0	0.22	0.83	1	96.2190817120008	96.3028509289998	"5"	12546.189654667	12543.307392331	1.5	0.1
0.01	1	0.0850630830009322	1	116	NA	99.4469331300006	0	0.22	0.83	1	96.5362465239996	96.6213096070005	"5"	12546.189654667	12543.307392331	1.5	0.1
0.01	1	0.0882843459985452	1	116	NA	99.4469331300006	0	0.22	0.83	1	96.8534963140009	96.9417806599995	"5"	12546.189654667	12543.307392331	1.5	0.1
0.01	1	0.0686652469994442	1	116	NA	99.4469331300006	0	0.22	0.83	1	97.1707055170009	97.2393707640003	"5"	12546.189654667	12543.307392331	1.5	0.1
0.01	1	0.054797464999865	1	116	NA	99.4469331300006	0	0.22	0.83	1	97.4712132690001	97.526010734	"5"	12546.189654667	12543.307392331	1.5	0.1
0.01	1	0.00465418699968723	1	116	NA	99.4469331300006	0	0.22	0.83	1	97.7549613120009	97.7596154990006	"5"	12546.189654667	12543.307392331	1.5	0.1
0.01	1	0.0170203020006738	1	116	NA	99.4469331300006	0	0.22	0.83	1	97.9887591770002	98.0057794790009	"5"	12546.189654667	12543.307392331	1.5	0.1
0.01	1	0.0629334989989729	1	116	NA	99.4469331300006	0	0.22	0.83	1	98.2392184470009	98.3021519459999	"5"	12546.189654667	12543.307392331	1.5	0.1
0.01	1	0.0825938350008073	1	116	NA	99.4469331300006	0	0.22	0.83	1	98.5395461419994	98.6221399770002	"5"	12546.189654667	12543.307392331	1.5	0.1
0.01	1	0.588520874998721	2	116	NA	99.4469331300006	0	0.22	0.83	1	98.856884529001	99.4454054039998	"5"	12546.189654667	12543.307392331	1.5	0.1
0.01	1	0.727676908998546	1	118	NA	132.695404507	0	0.52	1.35	1	101.477852887001	102.205529796	"6"	12546.189654667	12543.307392331	1.5	0.1
0.01	1	0.271806467000715	1	118	NA	132.695404507	0	0.52	1.35	1	102.446249211	102.718055678	"6"	12546.189654667	12543.307392331	1.5	0.1
0.01	1	0.226830231000349	1	118	NA	132.695404507	0	0.52	1.35	1	102.947159099	103.17398933	"6"	12546.189654667	12543.307392331	1.5	0.1
0.01	1	0.193032296998354	1	118	NA	132.695404507	0	0.52	1.35	1	103.397776662001	103.590808958999	"6"	12546.189654667	12543.307392331	1.5	0.1
0.01	1	0.198955087000286	1	118	NA	132.695404507	0	0.52	1.35	1	103.815167344001	104.014122431001	"6"	12546.189654667	12543.307392331	1.5	0.1
0.01	1	0.189383382001324	1	118	NA	132.695404507	0	0.52	1.35	1	104.249275231999	104.438658614001	"6"	12546.189654667	12543.307392331	1.5	0.1
0.01	1	0.234775216000344	1	118	NA	132.695404507	0	0.52	1.35	1	104.666679829001	104.901455045001	"6"	12546.189654667	12543.307392331	1.5	0.1
0.01	1	0.216059865000716	1	118	NA	132.695404507	0	0.52	1.35	1	105.134130872	105.350190737001	"6"	12546.189654667	12543.307392331	1.5	0.1
0.01	1	0.213441290001356	1	118	NA	132.695404507	0	0.52	1.35	1	105.584906687	105.798347977001	"6"	12546.189654667	12543.307392331	1.5	0.1
0.01	1	0.235348022000835	1	118	NA	132.695404507	0	0.52	1.35	1	106.035608679	106.270956701001	"6"	12546.189654667	12543.307392331	1.5	0.1
0.01	1	0.222389376000137	1	118	NA	132.695404507	0	0.52	1.35	1	106.503117657001	106.725507033001	"6"	12546.189654667	12543.307392331	1.5	0.1
0.01	1	0.196470832001069	1	118	NA	132.695404507	0	0.52	1.35	1	106.953814873999	107.150285706	"6"	12546.189654667	12543.307392331	1.5	0.1
0.01	1	0.218470683001215	1	118	NA	132.695404507	0	0.52	1.35	1	107.387856984	107.606327667001	"6"	12546.189654667	12543.307392331	1.5	0.1
0.01	1	0.200528524999754	1	118	NA	132.695404507	0	0.52	1.35	1	107.838643587	108.039172112	"6"	12546.189654667	12543.307392331	1.5	0.1
0.01	1	0.230076186000588	1	118	NA	132.695404507	0	0.52	1.35	1	108.272712391999	108.502788578	"6"	12546.189654667	12543.307392331	1.5	0.1
0.01	1	0.106497680000757	1	118	NA	132.695404507	0	0.52	1.35	1	108.740126289	108.846623969001	"6"	12546.189654667	12543.307392331	1.5	0.1
0.01	1	0.0837071629994171	1	118	NA	132.695404507	0	0.52	1.35	1	109.074118597	109.157825759999	"6"	12546.189654667	12543.307392331	1.5	0.1
0.01	1	0.0462897679990419	1	118	NA	132.695404507	0	0.52	1.35	1	109.391307497001	109.437597265	"6"	12546.189654667	12543.307392331	1.5	0.1
0.01	1	1.27545291699971	1	118	NA	132.695404507	0	0.52	1.35	1	109.675073752	110.950526668999	"6"	12546.189654667	12543.307392331	1.5	0.1
0.01	1	0.00408776100084651	1	118	NA	132.695404507	0	0.52	1.35	1	111.177587108999	111.18167487	"6"	12546.189654667	12543.307392331	1.5	0.1
0.01	1	0.00384018799923069	1	118	NA	132.695404507	0	0.52	1.35	1	111.411328992001	111.41516918	"6"	12546.189654667	12543.307392331	1.5	0.1
0.01	1	0.289044944000125	1	118	NA	132.695404507	0	0.52	1.35	1	111.645046604001	111.934091548001	"6"	12546.189654667	12543.307392331	1.5	0.1
0.01	1	0.419314056998701	1	118	NA	132.695404507	0	0.52	1.35	1	112.162680704001	112.581994761	"6"	12546.189654667	12543.307392331	1.5	0.1
0.01	1	0.0248228670006938	1	118	NA	132.695404507	0	0.52	1.35	1	112.813711047	112.838533914	"6"	12546.189654667	12543.307392331	1.5	0.1
0.01	1	0.00346022899975651	1	118	NA	132.695404507	0	0.52	1.35	1	113.064026047001	113.067486276001	"6"	12546.189654667	12543.307392331	1.5	0.1
0.01	1	0.00308890400083328	1	118	NA	132.695404507	0	0.52	1.35	1	113.297711409999	113.300800314	"6"	12546.189654667	12543.307392331	1.5	0.1
0.01	1	0.0262004529995465	1	118	NA	132.695404507	0	0.52	1.35	1	113.531533462001	113.557733915	"6"	12546.189654667	12543.307392331	1.5	0.1
0.01	1	0.368781622000824	1	118	NA	132.695404507	0	0.52	1.35	1	113.782007029	114.150788651001	"6"	12546.189654667	12543.307392331	1.5	0.1
0.01	1	0.37624529400091	1	118	NA	132.695404507	0	0.52	1.35	1	114.382915302	114.759160596001	"6"	12546.189654667	12543.307392331	1.5	0.1
0.01	1	0.262901365998914	1	118	NA	132.695404507	0	0.52	1.35	1	114.983988079	115.246889444999	"6"	12546.189654667	12543.307392331	1.5	0.1
0.01	1	0.27247178899961	1	118	NA	132.695404507	0	0.52	1.35	1	115.484836361	115.75730815	"6"	12546.189654667	12543.307392331	1.5	0.1
0.01	1	0.245059777998904	1	118	NA	132.695404507	0	0.52	1.35	1	115.985662459001	116.230722237	"6"	12546.189654667	12543.307392331	1.5	0.1
0.01	1	0.184543526000198	1	118	NA	132.695404507	0	0.52	1.35	1	116.469805072	116.654348598	"6"	12546.189654667	12543.307392331	1.5	0.1
0.01	1	0.526395799999591	1	118	NA	132.695404507	0	0.52	1.35	1	116.887217887001	117.413613687	"6"	12546.189654667	12543.307392331	1.5	0.1
0.01	1	0.383967059999122	1	118	NA	132.695404507	0	0.52	1.35	1	117.638435487001	118.022402547	"6"	12546.189654667	12543.307392331	1.5	0.1
0.01	1	0.254488495998885	1	118	NA	132.695404507	0	0.52	1.35	1	118.256133692001	118.510622188	"6"	12546.189654667	12543.307392331	1.5	0.1
0.01	1	0.345555769999919	1	118	NA	132.695404507	0	0.52	1.35	1	118.740291571999	119.085847341999	"6"	12546.189654667	12543.307392331	1.5	0.1
0.01	1	0.314314077000745	1	118	NA	132.695404507	0	0.52	1.35	1	119.308018467	119.622332544001	"6"	12546.189654667	12543.307392331	1.5	0.1
0.01	1	0.332227459000933	1	118	NA	132.695404507	0	0.52	1.35	1	119.858926887	120.191154346001	"6"	12546.189654667	12543.307392331	1.5	0.1
0.01	1	0.316447476001485	1	118	NA	132.695404507	0	0.52	1.35	1	120.426497771999	120.742945248001	"6"	12546.189654667	12543.307392331	1.5	0.1
0.01	1	0.293775793999885	1	118	NA	132.695404507	0	0.52	1.35	1	120.977486559001	121.271262353001	"6"	12546.189654667	12543.307392331	1.5	0.1
0.01	1	1.58300786299878	1	118	NA	132.695404507	0	0.52	1.35	1	121.494960157001	123.077968019999	"6"	12546.189654667	12543.307392331	1.5	0.1
0.01	1	0.387471707001168	1	118	NA	132.695404507	0	0.52	1.35	1	123.314748471999	123.702220179001	"6"	12546.189654667	12543.307392331	1.5	0.1
0.01	1	0.298148641000807	1	118	NA	132.695404507	0	0.52	1.35	1	123.932400737	124.230549378	"6"	12546.189654667	12543.307392331	1.5	0.1
0.01	1	0.403729235000355	1	118	NA	132.695404507	0	0.52	1.35	1	124.466549117	124.870278352	"6"	12546.189654667	12543.307392331	1.5	0.1
0.01	1	0.657614435000141	1	118	NA	132.695404507	0	0.52	1.35	1	125.101069083999	125.758683519	"6"	12546.189654667	12543.307392331	1.5	0.1
0.01	1	0.620753668999896	1	118	NA	132.695404507	0	0.52	1.35	1	125.985761407001	126.606515076001	"6"	12546.189654667	12543.307392331	1.5	0.1
0.01	1	0.753421327999604	1	118	NA	132.695404507	0	0.52	1.35	1	126.837363032	127.59078436	"6"	12546.189654667	12543.307392331	1.5	0.1
0.01	1	0.680204301999765	1	118	NA	132.695404507	0	0.52	1.35	1	127.822312617	128.502516918999	"6"	12546.189654667	12543.307392331	1.5	0.1
0.01	1	1.56252009200034	1	118	NA	132.695404507	0	0.52	1.35	1	128.740414757	130.302934849	"6"	12546.189654667	12543.307392331	1.5	0.1
0.01	1	0.567424950000714	1	118	NA	132.695404507	0	0.52	1.35	1	130.543504137	131.110929087001	"6"	12546.189654667	12543.307392331	1.5	0.1
0.01	1	0.677596780000385	1	118	NA	132.695404507	0	0.52	1.35	1	131.344835677	132.022432457001	"6"	12546.189654667	12543.307392331	1.5	0.1
0.01	1	0.447379928000373	2	118	NA	132.695404507	0	0.52	1.35	1	132.246496369	132.693876297	"6"	12546.189654667	12543.307392331	1.5	0.1
0.01	1	1.00672851200034	1	87	NA	151.871548996	0	0.45	1.8	1	134.750593424	135.757321936	"7"	12546.189654667	12543.307392331	1.5	0.1
0.01	1	0.252427445000649	1	87	NA	151.871548996	0	0.45	1.8	1	135.985907597	136.238335042	"7"	12546.189654667	12543.307392331	1.5	0.1
0.01	1	0.392270934999033	1	87	NA	151.871548996	0	0.45	1.8	1	136.470179887001	136.862450822	"7"	12546.189654667	12543.307392331	1.5	0.1
0.01	1	0.254543932000161	1	87	NA	151.871548996	0	0.45	1.8	1	137.087839952001	137.342383884001	"7"	12546.189654667	12543.307392331	1.5	0.1
0.01	1	0.26717082399955	1	87	NA	151.871548996	0	0.45	1.8	1	137.571984082	137.839154906	"7"	12546.189654667	12543.307392331	1.5	0.1
0.01	1	0.246216595000078	1	87	NA	151.871548996	0	0.45	1.8	1	138.072851572	138.319068167	"7"	12546.189654667	12543.307392331	1.5	0.1
0.01	1	0.338232991000041	1	87	NA	151.871548996	0	0.45	1.8	1	138.556966472001	138.895199463001	"7"	12546.189654667	12543.307392331	1.5	0.1
0.01	1	0.289865798000392	1	87	NA	151.871548996	0	0.45	1.8	1	139.124595732001	139.414461530001	"7"	12546.189654667	12543.307392331	1.5	0.1
0.01	1	0.299553189999642	1	87	NA	151.871548996	0	0.45	1.8	1	139.642125057	139.941678247	"7"	12546.189654667	12543.307392331	1.5	0.1
0.01	1	0.33339516200067	1	87	NA	151.871548996	0	0.45	1.8	1	140.176322028999	140.509717191	"7"	12546.189654667	12543.307392331	1.5	0.1
0.01	1	0.255012093000914	1	87	NA	151.871548996	0	0.45	1.8	1	140.744016199	140.999028292001	"7"	12546.189654667	12543.307392331	1.5	0.1
0.01	1	0.225342207000722	1	87	NA	151.871548996	0	0.45	1.8	1	141.228038669	141.453380876001	"7"	12546.189654667	12543.307392331	1.5	0.1
0.01	1	0.248172654999507	1	87	NA	151.871548996	0	0.45	1.8	1	141.678956034	141.927128689	"7"	12546.189654667	12543.307392331	1.5	0.1
0.01	1	0.243665718000557	1	87	NA	151.871548996	0	0.45	1.8	1	142.163088349	142.406754067	"7"	12546.189654667	12543.307392331	1.5	0.1
0.01	1	0.256660936000117	1	87	NA	151.871548996	0	0.45	1.8	1	142.630519729	142.887180665	"7"	12546.189654667	12543.307392331	1.5	0.1
0.01	1	0.115293318000113	1	87	NA	151.871548996	0	0.45	1.8	1	143.114679049	143.229972367	"7"	12546.189654667	12543.307392331	1.5	0.1
0.01	1	0.0367206169994461	1	87	NA	151.871548996	0	0.45	1.8	1	143.465155722	143.501876339	"7"	12546.189654667	12543.307392331	1.5	0.1
0.01	1	0.073353383999347	1	87	NA	151.871548996	0	0.45	1.8	1	143.732341049001	143.805694433	"7"	12546.189654667	12543.307392331	1.5	0.1
0.01	1	0.0769278679999843	1	87	NA	151.871548996	0	0.45	1.8	1	144.032886059	144.109813927	"7"	12546.189654667	12543.307392331	1.5	0.1
0.01	1	0.0318970540010923	1	87	NA	151.871548996	0	0.45	1.8	1	144.333332198999	144.365229253001	"7"	12546.189654667	12543.307392331	1.5	0.1
0.01	1	0.0134250149985746	1	87	NA	151.871548996	0	0.45	1.8	1	144.600493072001	144.613918087	"7"	12546.189654667	12543.307392331	1.5	0.1
0.01	1	0.0505884480007808	1	87	NA	151.871548996	0	0.45	1.8	1	144.850905772	144.901494220001	"7"	12546.189654667	12543.307392331	1.5	0.1
0.01	1	0.00238479200015718	1	87	NA	151.871548996	0	0.45	1.8	1	145.134593328001	145.136978120001	"7"	12546.189654667	12543.307392331	1.5	0.1
0.01	1	0.00385346300026868	1	87	NA	151.871548996	0	0.45	1.8	1	145.368444559001	145.372298022001	"7"	12546.189654667	12543.307392331	1.5	0.1
0.01	1	0.00390610600152286	1	87	NA	151.871548996	0	0.45	1.8	1	145.602141851999	145.606047958001	"7"	12546.189654667	12543.307392331	1.5	0.1
0.01	1	0.17041097999936	1	87	NA	151.871548996	0	0.45	1.8	1	145.836028137001	146.006439117	"7"	12546.189654667	12543.307392331	1.5	0.1
0.01	1	0.00231386400082556	1	87	NA	151.871548996	0	0.45	1.8	1	146.236481918	146.238795782001	"7"	12546.189654667	12543.307392331	1.5	0.1
0.01	1	0.00458604999948875	1	87	NA	151.871548996	0	0.45	1.8	1	146.470203852001	146.474789902	"7"	12546.189654667	12543.307392331	1.5	0.1
0.01	1	0.174173779001649	1	87	NA	151.871548996	0	0.45	1.8	1	146.704031716999	146.878205496001	"7"	12546.189654667	12543.307392331	1.5	0.1
0.01	1	0.00200272599977325	1	87	NA	151.871548996	0	0.45	1.8	1	147.104669377	147.106672103	"7"	12546.189654667	12543.307392331	1.5	0.1
0.01	1	0.00428069899862749	1	87	NA	151.871548996	0	0.45	1.8	1	147.338393760001	147.342674459	"7"	12546.189654667	12543.307392331	1.5	0.1
0.01	1	0.16269887099952	1	87	NA	151.871548996	0	0.45	1.8	1	147.572183927001	147.734882798	"7"	12546.189654667	12543.307392331	1.5	0.1
0.01	1	0.00231695199909154	1	87	NA	151.871548996	0	0.45	1.8	1	147.956091858001	147.95840881	"7"	12546.189654667	12543.307392331	1.5	0.1
0.01	1	0.00304244200015091	1	87	NA	151.871548996	0	0.45	1.8	1	148.189748590001	148.192791032001	"7"	12546.189654667	12543.307392331	1.5	0.1
0.01	1	0.00372352599879378	1	87	NA	151.871548996	0	0.45	1.8	1	148.423554524001	148.42727805	"7"	12546.189654667	12543.307392331	1.5	0.1
0.01	1	0.156276098001399	1	87	NA	151.871548996	0	0.45	1.8	1	148.657283342	148.813559440001	"7"	12546.189654667	12543.307392331	1.5	0.1
0.01	1	0.0033917630007636	1	87	NA	151.871548996	0	0.45	1.8	1	149.041305219	149.044696982	"7"	12546.189654667	12543.307392331	1.5	0.1
0.01	1	0.00259839499994996	1	87	NA	151.871548996	0	0.45	1.8	1	149.275034564	149.277632959	"7"	12546.189654667	12543.307392331	1.5	0.1
0.01	1	0.00216034299955936	1	87	NA	151.871548996	0	0.45	1.8	1	149.508727008	149.510887351	"7"	12546.189654667	12543.307392331	1.5	0.1
0.01	1	0.00205304199880629	1	87	NA	151.871548996	0	0.45	1.8	1	149.742463902001	149.744516944	"7"	12546.189654667	12543.307392331	1.5	0.1
0.01	1	0.00205976799952623	1	87	NA	151.871548996	0	0.45	1.8	1	149.976229289001	149.978289057	"7"	12546.189654667	12543.307392331	1.5	0.1
0.01	1	0.00213615100074094	1	87	NA	151.871548996	0	0.45	1.8	1	150.20993053	150.212066681001	"7"	12546.189654667	12543.307392331	1.5	0.1
0.01	1	0.00409070199930284	1	87	NA	151.871548996	0	0.45	1.8	1	150.443632890001	150.447723592	"7"	12546.189654667	12543.307392331	1.5	0.1
0.01	1	0.00272113000028185	1	87	NA	151.871548996	0	0.45	1.8	1	150.677345554001	150.680066684001	"7"	12546.189654667	12543.307392331	1.5	0.1
0.01	1	0.0154950269989058	1	87	NA	151.871548996	0	0.45	1.8	1	150.911053567001	150.926548594	"7"	12546.189654667	12543.307392331	1.5	0.1
0.01	1	0.708584801999677	2	87	NA	151.871548996	0	0.45	1.8	1	151.161427319001	151.870012121	"7"	12546.189654667	12543.307392331	1.5	0.1
0.01	1	2.33720647200062	1	6	157.592016734001	NA	1	0	1.8	1	153.916062726999	156.253269199	"8"	12546.189654667	12543.307392331	1.5	0.1
0.01	1	0.0557806319993688	1	6	157.592016734001	NA	1	0	1.8	1	156.487149722001	156.542930354	"8"	12546.189654667	12543.307392331	1.5	0.1
0.01	1	0.00213662700116402	1	6	157.592016734001	NA	1	0	1.8	1	156.77096656	156.773103187001	"8"	12546.189654667	12543.307392331	1.5	0.1
0.01	1	0.00250702099947375	1	6	157.592016734001	NA	1	0	1.8	1	157.004697024	157.007204045	"8"	12546.189654667	12543.307392331	1.5	0.1
0.01	1	0.00233676800053217	1	6	157.592016734001	NA	1	0	1.8	1	157.238401533999	157.240738302	"8"	12546.189654667	12543.307392331	1.5	0.1
0.01	1	0.00381397599994671	1	6	157.592016734001	NA	1	0	1.8	1	157.472115672001	157.475929648001	"8"	12546.189654667	12543.307392331	1.5	0.1
0.01	1	0.803977923000275	1	106	NA	179.880430045001	0	0.42	2.22	1	159.625659437001	160.429637360001	"9"	12546.189654667	12543.307392331	1.5	0.1
0.01	1	0.00218131500150776	1	106	NA	179.880430045001	0	0.42	2.22	1	160.660833982	160.663015297001	"9"	12546.189654667	12543.307392331	1.5	0.1
0.01	1	0.00226417100020626	1	106	NA	179.880430045001	0	0.42	2.22	1	160.894499816	160.896763987001	"9"	12546.189654667	12543.307392331	1.5	0.1
0.01	1	0.00381233100051759	1	106	NA	179.880430045001	0	0.42	2.22	1	161.128219089	161.13203142	"9"	12546.189654667	12543.307392331	1.5	0.1
0.01	1	0.116413402000035	1	106	NA	179.880430045001	0	0.42	2.22	1	161.362064741999	161.478478143999	"9"	12546.189654667	12543.307392331	1.5	0.1
0.01	1	0.493697927000539	1	106	NA	179.880430045001	0	0.42	2.22	1	161.712576571999	162.206274499	"9"	12546.189654667	12543.307392331	1.5	0.1
0.01	1	0.00205293200087908	1	106	NA	179.880430045001	0	0.42	2.22	1	162.430465889	162.432518821	"9"	12546.189654667	12543.307392331	1.5	0.1
0.01	1	0.0690490050001245	1	106	NA	179.880430045001	0	0.42	2.22	1	162.664139949	162.733188954	"9"	12546.189654667	12543.307392331	1.5	0.1
0.01	1	0.113694314000895	1	106	NA	179.880430045001	0	0.42	2.22	1	162.964740632	163.078434946001	"9"	12546.189654667	12543.307392331	1.5	0.1
0.01	1	0.330477772000449	1	106	NA	179.880430045001	0	0.42	2.22	1	163.315209816999	163.645687589	"9"	12546.189654667	12543.307392331	1.5	0.1
0.01	1	0.0994187489995966	1	106	NA	179.880430045001	0	0.42	2.22	1	163.882958477001	163.982377226001	"9"	12546.189654667	12543.307392331	1.5	0.1
0.01	1	0.0939293739993445	1	106	NA	179.880430045001	0	0.42	2.22	1	164.216828467001	164.310757841	"9"	12546.189654667	12543.307392331	1.5	0.1
0.01	1	0.0963456629997381	1	106	NA	179.880430045001	0	0.42	2.22	1	164.533969207001	164.630314870001	"9"	12546.189654667	12543.307392331	1.5	0.1
0.01	1	0.0331862870007171	1	106	NA	179.880430045001	0	0.42	2.22	1	164.867987672	164.901173959001	"9"	12546.189654667	12543.307392331	1.5	0.1
0.01	1	0.10215246000007	1	106	NA	179.880430045001	0	0.42	2.22	1	165.135066417	165.237218877	"9"	12546.189654667	12543.307392331	1.5	0.1
0.01	1	0.272916592999536	1	106	NA	179.880430045001	0	0.42	2.22	1	165.468825567001	165.74174216	"9"	12546.189654667	12543.307392331	1.5	0.1
0.01	1	0.213318762998824	1	106	NA	179.880430045001	0	0.42	2.22	1	165.969780487001	166.18309925	"9"	12546.189654667	12543.307392331	1.5	0.1
0.01	1	0.145534477998808	1	106	NA	179.880430045001	0	0.42	2.22	1	166.420490672001	166.566025149999	"9"	12546.189654667	12543.307392331	1.5	0.1
0.01	1	0.210309594000137	1	106	NA	179.880430045001	0	0.42	2.22	1	166.804397301999	167.014706896	"9"	12546.189654667	12543.307392331	1.5	0.1
0.01	1	0.207844839000245	1	106	NA	179.880430045001	0	0.42	2.22	1	167.238485178999	167.446330018	"9"	12546.189654667	12543.307392331	1.5	0.1
0.01	1	0.294027383000866	1	106	NA	179.880430045001	0	0.42	2.22	1	167.672597195	167.966624578001	"9"	12546.189654667	12543.307392331	1.5	0.1
0.01	1	0.583745407000606	1	106	NA	179.880430045001	0	0.42	2.22	1	168.190216342	168.773961749001	"9"	12546.189654667	12543.307392331	1.5	0.1
0.01	1	0.261819004999779	1	106	NA	179.880430045001	0	0.42	2.22	1	169.008167092001	169.269986097001	"9"	12546.189654667	12543.307392331	1.5	0.1
0.01	1	0.209567934000006	1	106	NA	179.880430045001	0	0.42	2.22	1	169.492334894001	169.701902828001	"9"	12546.189654667	12543.307392331	1.5	0.1
0.01	1	0.2393322049993	1	106	NA	179.880430045001	0	0.42	2.22	1	169.926366924001	170.165699129	"9"	12546.189654667	12543.307392331	1.5	0.1
0.01	1	0.229094087000703	1	106	NA	179.880430045001	0	0.42	2.22	1	170.393865742	170.622959829001	"9"	12546.189654667	12543.307392331	1.5	0.1
0.01	1	0.224083078999683	1	106	NA	179.880430045001	0	0.42	2.22	1	170.861338369001	171.085421448	"9"	12546.189654667	12543.307392331	1.5	0.1
0.01	1	0.223081297001045	1	106	NA	179.880430045001	0	0.42	2.22	1	171.312085099	171.535166396001	"9"	12546.189654667	12543.307392331	1.5	0.1
0.01	1	0.258441142001175	1	106	NA	179.880430045001	0	0.42	2.22	1	171.762840421999	172.021281564001	"9"	12546.189654667	12543.307392331	1.5	0.1
0.01	1	0.231302173000586	1	106	NA	179.880430045001	0	0.42	2.22	1	172.246950494	172.478252667001	"9"	12546.189654667	12543.307392331	1.5	0.1
0.01	1	0.62020955799926	1	106	NA	179.880430045001	0	0.42	2.22	1	172.714368789	173.334578346999	"9"	12546.189654667	12543.307392331	1.5	0.1
0.01	1	0.304347156999938	1	106	NA	179.880430045001	0	0.42	2.22	1	173.565848052	173.870195209	"9"	12546.189654667	12543.307392331	1.5	0.1
0.01	1	0.306078670000716	1	106	NA	179.880430045001	0	0.42	2.22	1	174.100068416999	174.406147087	"9"	12546.189654667	12543.307392331	1.5	0.1
0.01	1	0.260717282999394	1	106	NA	179.880430045001	0	0.42	2.22	1	174.634272814001	174.894990097	"9"	12546.189654667	12543.307392331	1.5	0.1
0.01	1	0.255467671999213	1	106	NA	179.880430045001	0	0.42	2.22	1	175.135193334001	175.390661006	"9"	12546.189654667	12543.307392331	1.5	0.1
0.01	1	0.323403278000114	1	106	NA	179.880430045001	0	0.42	2.22	1	175.619294063999	175.942697342	"9"	12546.189654667	12543.307392331	1.5	0.1
0.01	1	0.307942034000007	1	106	NA	179.880430045001	0	0.42	2.22	1	176.170224048999	176.478166082999	"9"	12546.189654667	12543.307392331	1.5	0.1
0.01	1	0.349008905999654	1	106	NA	179.880430045001	0	0.42	2.22	1	176.704460750001	177.053469656001	"9"	12546.189654667	12543.307392331	1.5	0.1
0.01	1	0.300509659000454	1	106	NA	179.880430045001	0	0.42	2.22	1	177.288746153999	177.589255813	"9"	12546.189654667	12543.307392331	1.5	0.1
0.01	1	0.303991239999959	1	106	NA	179.880430045001	0	0.42	2.22	1	177.822997609001	178.126988849001	"9"	12546.189654667	12543.307392331	1.5	0.1
0.01	1	0.280711240999153	1	106	NA	179.880430045001	0	0.42	2.22	1	178.357349567001	178.638060808	"9"	12546.189654667	12543.307392331	1.5	0.1
0.01	1	0.32432270100071	1	106	NA	179.880430045001	0	0.42	2.22	1	178.874864826999	179.199187528	"9"	12546.189654667	12543.307392331	1.5	0.1
0.01	1	0.453070473999105	2	106	NA	179.880430045001	0	0.42	2.22	1	179.425742342	179.878812815999	"9"	12546.189654667	12543.307392331	1.5	0.1
0.01	1	3.17051246600022	1	21	190.430554449	NA	1	0	2.22	1	181.913302741999	185.083815208	"10"	12546.189654667	12543.307392331	1.5	0.1
0.01	1	0.00323798599856673	1	21	190.430554449	NA	1	0	2.22	1	185.318972442001	185.322210427999	"10"	12546.189654667	12543.307392331	1.5	0.1
0.01	1	0.00400566099960997	1	21	190.430554449	NA	1	0	2.22	1	185.552618177	185.556623838	"10"	12546.189654667	12543.307392331	1.5	0.1
0.01	1	0.00929870500112884	1	21	190.430554449	NA	1	0	2.22	1	185.786423748999	185.795722454	"10"	12546.189654667	12543.307392331	1.5	0.1
0.01	1	0.00259704100062663	1	21	190.430554449	NA	1	0	2.22	1	186.020199388	186.022796429001	"10"	12546.189654667	12543.307392331	1.5	0.1
0.01	1	0.00248893900061375	1	21	190.430554449	NA	1	0	2.22	1	186.253862726	186.256351665001	"10"	12546.189654667	12543.307392331	1.5	0.1
0.01	1	0.00198384299983445	1	21	190.430554449	NA	1	0	2.22	1	186.487605456001	186.489589299001	"10"	12546.189654667	12543.307392331	1.5	0.1
0.01	1	0.00455223000062688	1	21	190.430554449	NA	1	0	2.22	1	186.721334017	186.725886247001	"10"	12546.189654667	12543.307392331	1.5	0.1
0.01	1	0.00446081100017182	1	21	190.430554449	NA	1	0	2.22	1	186.955003641	186.959464452	"10"	12546.189654667	12543.307392331	1.5	0.1
0.01	1	0.00483499700021639	1	21	190.430554449	NA	1	0	2.22	1	187.188716487	187.193551484001	"10"	12546.189654667	12543.307392331	1.5	0.1
0.01	1	0.00248288600050728	1	21	190.430554449	NA	1	0	2.22	1	187.422541304	187.425024190001	"10"	12546.189654667	12543.307392331	1.5	0.1
0.01	1	0.00250947400127188	1	21	190.430554449	NA	1	0	2.22	1	187.656217371999	187.658726846001	"10"	12546.189654667	12543.307392331	1.5	0.1
0.01	1	0.00230396100050712	1	21	190.430554449	NA	1	0	2.22	1	187.889982948	187.892286909	"10"	12546.189654667	12543.307392331	1.5	0.1
0.01	1	0.0316406900001311	1	21	190.430554449	NA	1	0	2.22	1	188.123710238	188.155350928	"10"	12546.189654667	12543.307392331	1.5	0.1
0.01	1	0.0757139020006434	1	21	190.430554449	NA	1	0	2.22	1	188.390786947	188.466500849001	"10"	12546.189654667	12543.307392331	1.5	0.1
0.01	1	0.0796421600007307	1	21	190.430554449	NA	1	0	2.22	1	188.691270329	188.770912489001	"10"	12546.189654667	12543.307392331	1.5	0.1
0.01	1	0.106383999998798	1	21	190.430554449	NA	1	0	2.22	1	189.008540307001	189.114924306999	"10"	12546.189654667	12543.307392331	1.5	0.1
0.01	1	0.029093727000145	1	21	190.430554449	NA	1	0	2.22	1	189.342401577	189.371495304	"10"	12546.189654667	12543.307392331	1.5	0.1
0.01	1	0.154469011999026	1	21	190.430554449	NA	1	0	2.22	1	189.609508432	189.763977443999	"10"	12546.189654667	12543.307392331	1.5	0.1
0.01	1	0.0504926329995214	1	21	190.430554449	NA	1	0	2.22	1	189.993515307	190.04400794	"10"	12546.189654667	12543.307392331	1.5	0.1
0.01	1	0.0450878720002947	1	21	190.430554449	NA	1	0	2.22	1	190.277425582	190.322513454001	"10"	12546.189654667	12543.307392331	1.5	0.1
0.01	1	6.38128266700005	1	19	206.707831404001	NA	1	0	2.22	1	192.481033096999	198.862315764	"11"	12546.189654667	12543.307392331	1.5	0.1
0.01	1	0.0350872010003513	1	19	206.707831404001	NA	1	0	2.22	1	199.092072199001	199.127159400001	"11"	12546.189654667	12543.307392331	1.5	0.1
0.01	1	0.143707508001171	1	19	206.707831404001	NA	1	0	2.22	1	199.359250402	199.502957910001	"11"	12546.189654667	12543.307392331	1.5	0.1
0.01	1	0.120394843001122	1	19	206.707831404001	NA	1	0	2.22	1	199.726524225	199.846919068001	"11"	12546.189654667	12543.307392331	1.5	0.1
0.01	1	0.177157419999276	1	19	206.707831404001	NA	1	0	2.22	1	200.077190467	200.254347886999	"11"	12546.189654667	12543.307392331	1.5	0.1
0.01	1	0.241060940001262	1	19	206.707831404001	NA	1	0	2.22	1	200.477759556999	200.718820497001	"11"	12546.189654667	12543.307392331	1.5	0.1
0.01	1	0.206434832000014	1	19	206.707831404001	NA	1	0	2.22	1	200.945353272	201.151788104	"11"	12546.189654667	12543.307392331	1.5	0.1
0.01	1	0.194848903000093	1	19	206.707831404001	NA	1	0	2.22	1	201.379373551999	201.574222454999	"11"	12546.189654667	12543.307392331	1.5	0.1
0.01	1	0.2497866169997	1	19	206.707831404001	NA	1	0	2.22	1	201.796740872	202.046527488999	"11"	12546.189654667	12543.307392331	1.5	0.1
0.01	1	0.222482068000318	1	19	206.707831404001	NA	1	0	2.22	1	202.280902712	202.50338478	"11"	12546.189654667	12543.307392331	1.5	0.1
0.01	1	0.24242132100153	1	19	206.707831404001	NA	1	0	2.22	1	202.731684289	202.974105610001	"11"	12546.189654667	12543.307392331	1.5	0.1
0.01	1	0.207775770000808	1	19	206.707831404001	NA	1	0	2.22	1	203.199104747	203.406880517001	"11"	12546.189654667	12543.307392331	1.5	0.1
0.01	1	0.229052949998731	1	19	206.707831404001	NA	1	0	2.22	1	203.633110524001	203.862163473999	"11"	12546.189654667	12543.307392331	1.5	0.1
0.01	1	0.211289187998773	1	19	206.707831404001	NA	1	0	2.22	1	204.100501799001	204.311790987	"11"	12546.189654667	12543.307392331	1.5	0.1
0.01	1	0.216887530999884	1	19	206.707831404001	NA	1	0	2.22	1	204.534633497	204.751521028	"11"	12546.189654667	12543.307392331	1.5	0.1
0.01	1	0.221192697999868	1	19	206.707831404001	NA	1	0	2.22	1	204.985413262	205.20660596	"11"	12546.189654667	12543.307392331	1.5	0.1
0.01	1	0.227353255000708	1	19	206.707831404001	NA	1	0	2.22	1	205.436273556999	205.663626812	"11"	12546.189654667	12543.307392331	1.5	0.1
0.01	1	0.223096399000497	1	19	206.707831404001	NA	1	0	2.22	1	205.903552292	206.126648691001	"11"	12546.189654667	12543.307392331	1.5	0.1
0.01	1	0.244611098998575	1	19	206.707831404001	NA	1	0	2.22	1	206.354378047001	206.598989145999	"11"	12546.189654667	12543.307392331	1.5	0.1
0.01	1	0.297419966000234	1	63	NA	218.985098499999	0	0.27	2.49	1	208.741783717	209.039203683	"12"	12546.189654667	12543.307392331	1.5	0.1
0.01	1	0.211371655999756	1	63	NA	218.985098499999	0	0.27	2.49	1	209.275871312	209.487242968	"12"	12546.189654667	12543.307392331	1.5	0.1
0.01	1	0.536843263000264	1	63	NA	218.985098499999	0	0.27	2.49	1	209.709928814	210.246772077	"12"	12546.189654667	12543.307392331	1.5	0.1
0.01	1	0.392273796000154	1	63	NA	218.985098499999	0	0.27	2.49	1	210.477861372001	210.870135168001	"12"	12546.189654667	12543.307392331	1.5	0.1
0.01	1	0.390599597998516	1	63	NA	218.985098499999	0	0.27	2.49	1	211.095672589001	211.486272186999	"12"	12546.189654667	12543.307392331	1.5	0.1
0.01	1	0.26873039900056	1	63	NA	218.985098499999	0	0.27	2.49	1	211.713307492	211.982037891001	"12"	12546.189654667	12543.307392331	1.5	0.1
0.01	1	0.288875713999005	1	63	NA	218.985098499999	0	0.27	2.49	1	212.214291562001	212.503167276	"12"	12546.189654667	12543.307392331	1.5	0.1
0.01	1	0.0916877589988871	1	63	NA	218.985098499999	0	0.27	2.49	1	212.731799577001	212.823487336	"12"	12546.189654667	12543.307392331	1.5	0.1
0.01	1	0.101290627000708	1	63	NA	218.985098499999	0	0.27	2.49	1	213.049040942	213.150331569001	"12"	12546.189654667	12543.307392331	1.5	0.1
0.01	1	0.0552454970002145	1	63	NA	218.985098499999	0	0.27	2.49	1	213.382886837	213.438132334	"12"	12546.189654667	12543.307392331	1.5	0.1
0.01	1	0.0521433200010506	1	63	NA	218.985098499999	0	0.27	2.49	1	213.666697924	213.718841244001	"12"	12546.189654667	12543.307392331	1.5	0.1
0.01	1	0.207280026999797	1	63	NA	218.985098499999	0	0.27	2.49	1	213.950492512	214.157772539	"12"	12546.189654667	12543.307392331	1.5	0.1
0.01	1	0.00227466100113816	1	63	NA	218.985098499999	0	0.27	2.49	1	214.384591317999	214.386865979001	"12"	12546.189654667	12543.307392331	1.5	0.1
0.01	1	0.00367962300151703	1	63	NA	218.985098499999	0	0.27	2.49	1	214.618326088999	214.622005712001	"12"	12546.189654667	12543.307392331	1.5	0.1
0.01	1	0.0045547820009233	1	63	NA	218.985098499999	0	0.27	2.49	1	214.852074577	214.856629359001	"12"	12546.189654667	12543.307392331	1.5	0.1
0.01	1	0.00377147099970898	1	63	NA	218.985098499999	0	0.27	2.49	1	215.085671949	215.08944342	"12"	12546.189654667	12543.307392331	1.5	0.1
0.01	1	0.00451871499899426	1	63	NA	218.985098499999	0	0.27	2.49	1	215.319427587001	215.323946302	"12"	12546.189654667	12543.307392331	1.5	0.1
0.01	1	0.00383748499916692	1	63	NA	218.985098499999	0	0.27	2.49	1	215.553127639001	215.556965124	"12"	12546.189654667	12543.307392331	1.5	0.1
0.01	1	0.179121209999721	1	63	NA	218.985098499999	0	0.27	2.49	1	215.786922239	215.966043449	"12"	12546.189654667	12543.307392331	1.5	0.1
0.01	1	0.035155126999598	1	63	NA	218.985098499999	0	0.27	2.49	1	216.187505644	216.222660771	"12"	12546.189654667	12543.307392331	1.5	0.1
0.01	1	0.0568882610004948	1	63	NA	218.985098499999	0	0.27	2.49	1	216.454602402	216.511490663001	"12"	12546.189654667	12543.307392331	1.5	0.1
0.01	1	0.0530534640001861	1	63	NA	218.985098499999	0	0.27	2.49	1	216.738489477	216.791542941	"12"	12546.189654667	12543.307392331	1.5	0.1
0.01	1	0.00380586000028416	1	63	NA	218.985098499999	0	0.27	2.49	1	217.022248494	217.026054354001	"12"	12546.189654667	12543.307392331	1.5	0.1
0.01	1	0.00210864199834759	1	63	NA	218.985098499999	0	0.27	2.49	1	217.256072080001	217.258180721999	"12"	12546.189654667	12543.307392331	1.5	0.1
0.01	1	0.00371693300076004	1	63	NA	218.985098499999	0	0.27	2.49	1	217.489655259	217.493372192001	"12"	12546.189654667	12543.307392331	1.5	0.1
0.01	1	0.298979917999532	1	63	NA	218.985098499999	0	0.27	2.49	1	217.723516567001	218.022496485	"12"	12546.189654667	12543.307392331	1.5	0.1
0.01	1	0.00390758400135383	1	63	NA	218.985098499999	0	0.27	2.49	1	218.257715383999	218.261622968001	"12"	12546.189654667	12543.307392331	1.5	0.1
0.01	1	0.492011128999366	3	63	NA	218.985098499999	0	0.27	2.49	1	218.491527832	218.983538961	"12"	12546.189654667	12543.307392331	1.5	0.1
0.01	1	1.80184014600127	1	54	NA	235.711887900999	0	0.38	2.87	1	221.029033407	222.830873553001	"13"	12546.189654667	12543.307392331	1.5	0.1
0.01	1	0.0140275949997886	1	54	NA	235.711887900999	0	0.38	2.87	1	223.065842682001	223.079870277001	"13"	12546.189654667	12543.307392331	1.5	0.1
0.01	1	0.129588125000737	1	54	NA	235.711887900999	0	0.38	2.87	1	223.316213962	223.445802087001	"13"	12546.189654667	12543.307392331	1.5	0.1
0.01	1	0.0113063779990625	1	54	NA	235.711887900999	0	0.38	2.87	1	223.683487829001	223.694794207	"13"	12546.189654667	12543.307392331	1.5	0.1
0.01	1	0.0340992189994722	1	54	NA	235.711887900999	0	0.38	2.87	1	223.917247358	223.951346577	"13"	12546.189654667	12543.307392331	1.5	0.1
0.01	1	0.0376364579988149	1	54	NA	235.711887900999	0	0.38	2.87	1	224.184255149001	224.221891607	"13"	12546.189654667	12543.307392331	1.5	0.1
0.01	1	0.219609870999193	1	54	NA	235.711887900999	0	0.38	2.87	1	224.451498012	224.671107882999	"13"	12546.189654667	12543.307392331	1.5	0.1
0.01	1	0.010394257000371	1	54	NA	235.711887900999	0	0.38	2.87	1	224.902171727001	224.912565984001	"13"	12546.189654667	12543.307392331	1.5	0.1
0.01	1	0.00704772700009926	1	54	NA	235.711887900999	0	0.38	2.87	1	225.135853957001	225.142901684001	"13"	12546.189654667	12543.307392331	1.5	0.1
0.01	1	0.00455991699891456	1	54	NA	235.711887900999	0	0.38	2.87	1	225.369601882001	225.374161799	"13"	12546.189654667	12543.307392331	1.5	0.1
0.01	1	0.155248510000092	1	54	NA	235.711887900999	0	0.38	2.87	1	225.603375164001	225.758623674001	"13"	12546.189654667	12543.307392331	1.5	0.1
0.01	1	0.1395897600014	1	54	NA	235.711887900999	0	0.38	2.87	1	225.987366189	226.126955949001	"13"	12546.189654667	12543.307392331	1.5	0.1
0.01	1	0.00213075600004231	1	54	NA	235.711887900999	0	0.38	2.87	1	226.354655131001	226.356785887001	"13"	12546.189654667	12543.307392331	1.5	0.1
0.01	1	0.131380454999089	1	54	NA	235.711887900999	0	0.38	2.87	1	226.588489362	226.719869817	"13"	12546.189654667	12543.307392331	1.5	0.1
0.01	1	0.00304394200065872	1	54	NA	235.711887900999	0	0.38	2.87	1	226.95562785	226.958671792001	"13"	12546.189654667	12543.307392331	1.5	0.1
0.01	1	0.0095632940010546	1	54	NA	235.711887900999	0	0.38	2.87	1	227.189343102	227.198906396001	"13"	12546.189654667	12543.307392331	1.5	0.1
0.01	1	0.246618314000443	1	54	NA	235.711887900999	0	0.38	2.87	1	227.423142979	227.669761293	"13"	12546.189654667	12543.307392331	1.5	0.1
0.01	1	0.0520082499988348	1	54	NA	235.711887900999	0	0.38	2.87	1	227.907377887001	227.959386136999	"13"	12546.189654667	12543.307392331	1.5	0.1
0.01	1	0.00458455199986929	1	54	NA	235.711887900999	0	0.38	2.87	1	228.191123917	228.195708469	"13"	12546.189654667	12543.307392331	1.5	0.1
0.01	1	0.0850560599992605	1	54	NA	235.711887900999	0	0.38	2.87	1	228.424869204	228.509925263999	"13"	12546.189654667	12543.307392331	1.5	0.1
0.01	1	0.0965910710001481	1	54	NA	235.711887900999	0	0.38	2.87	1	228.741938462001	228.838529533001	"13"	12546.189654667	12543.307392331	1.5	0.1
0.01	1	0.218799213000239	1	54	NA	235.711887900999	0	0.38	2.87	1	229.075939917	229.29473913	"13"	12546.189654667	12543.307392331	1.5	0.1
0.01	1	0.199356983001053	1	54	NA	235.711887900999	0	0.38	2.87	1	229.526680407	229.726037390001	"13"	12546.189654667	12543.307392331	1.5	0.1
0.01	1	0.325233457999275	1	54	NA	235.711887900999	0	0.38	2.87	1	229.960663399001	230.285896857	"13"	12546.189654667	12543.307392331	1.5	0.1
0.01	1	0.318854421999276	1	54	NA	235.711887900999	0	0.38	2.87	1	230.511605248001	230.83045967	"13"	12546.189654667	12543.307392331	1.5	0.1
0.01	1	0.311823913001717	1	54	NA	235.711887900999	0	0.38	2.87	1	231.062587996999	231.374411910001	"13"	12546.189654667	12543.307392331	1.5	0.1
0.01	1	0.00384907099942211	1	54	NA	235.711887900999	0	0.38	2.87	1	231.596748689	231.60059776	"13"	12546.189654667	12543.307392331	1.5	0.1
0.01	1	0.0808036250000441	1	54	NA	235.711887900999	0	0.38	2.87	1	231.830464777	231.911268402	"13"	12546.189654667	12543.307392331	1.5	0.1
0.01	1	0.274818367000989	1	54	NA	235.711887900999	0	0.38	2.87	1	232.147629472	232.422447839001	"13"	12546.189654667	12543.307392331	1.5	0.1
0.01	1	0.00391161000152351	1	54	NA	235.711887900999	0	0.38	2.87	1	232.648552971999	232.652464582001	"13"	12546.189654667	12543.307392331	1.5	0.1
0.01	1	0.115731337000398	1	54	NA	235.711887900999	0	0.38	2.87	1	232.882330307	232.998061644001	"13"	12546.189654667	12543.307392331	1.5	0.1
0.01	1	0.00398228599988215	1	54	NA	235.711887900999	0	0.38	2.87	1	233.232912842001	233.236895128	"13"	12546.189654667	12543.307392331	1.5	0.1
0.01	1	0.108048928999779	1	54	NA	235.711887900999	0	0.38	2.87	1	233.466684812	233.574733740999	"13"	12546.189654667	12543.307392331	1.5	0.1
0.01	1	0.00351718300044013	1	54	NA	235.711887900999	0	0.38	2.87	1	233.800493339	233.804010522001	"13"	12546.189654667	12543.307392331	1.5	0.1
0.01	1	0.140111987999262	1	54	NA	235.711887900999	0	0.38	2.87	1	234.034250394001	234.174362382	"13"	12546.189654667	12543.307392331	1.5	0.1
0.01	1	0.00455786999918928	1	54	NA	235.711887900999	0	0.38	2.87	1	234.401546057001	234.406103927	"13"	12546.189654667	12543.307392331	1.5	0.1
0.01	1	0.162543877000644	1	54	NA	235.711887900999	0	0.38	2.87	1	234.635230602	234.797774479001	"13"	12546.189654667	12543.307392331	1.5	0.1
0.01	1	0.00366953800039482	1	54	NA	235.711887900999	0	0.38	2.87	1	235.035929492	235.03959903	"13"	12546.189654667	12543.307392331	1.5	0.1
0.01	1	0.440656457998557	2	54	NA	235.711887900999	0	0.38	2.87	1	235.269705562001	235.71036202	"13"	12546.189654667	12543.307392331	1.5	0.1
0.01	1	0.122206344998631	1	103	NA	259.960568999	0	0.65	3.52	1	237.757130932001	237.879337277	"14"	12546.189654667	12543.307392331	1.5	0.1
0.01	1	0.0117688090012962	1	103	NA	259.960568999	0	0.65	3.52	1	238.107683468999	238.119452278001	"14"	12546.189654667	12543.307392331	1.5	0.1
0.01	1	0.00409276099890121	1	103	NA	259.960568999	0	0.65	3.52	1	238.358120545001	238.362213306	"14"	12546.189654667	12543.307392331	1.5	0.1
0.01	1	0.0939519000003202	1	103	NA	259.960568999	0	0.65	3.52	1	238.592040337	238.685992237	"14"	12546.189654667	12543.307392331	1.5	0.1
0.01	1	0.00259235900011845	1	103	NA	259.960568999	0	0.65	3.52	1	238.909168800001	238.911761159001	"14"	12546.189654667	12543.307392331	1.5	0.1
0.01	1	0.103135192999616	1	103	NA	259.960568999	0	0.65	3.52	1	239.142830117	239.24596531	"14"	12546.189654667	12543.307392331	1.5	0.1
0.01	1	0.137024360999931	1	103	NA	259.960568999	0	0.65	3.52	1	239.476668711	239.613693072	"14"	12546.189654667	12543.307392331	1.5	0.1
0.01	1	0.00210185600008117	1	103	NA	259.960568999	0	0.65	3.52	1	239.844008438	239.846110294	"14"	12546.189654667	12543.307392331	1.5	0.1
0.01	1	0.0894527810014552	1	103	NA	259.960568999	0	0.65	3.52	1	240.077690732	240.167143513001	"14"	12546.189654667	12543.307392331	1.5	0.1
0.01	1	0.00391185199987376	1	103	NA	259.960568999	0	0.65	3.52	1	240.394890093999	240.398801945999	"14"	12546.189654667	12543.307392331	1.5	0.1
0.01	1	0.113098361000084	1	103	NA	259.960568999	0	0.65	3.52	1	240.628686959	240.74178532	"14"	12546.189654667	12543.307392331	1.5	0.1
0.01	1	0.124434551000377	1	103	NA	259.960568999	0	0.65	3.52	1	240.97928496	241.103719511	"14"	12546.189654667	12543.307392331	1.5	0.1
0.01	1	0.00369530500029214	1	103	NA	259.960568999	0	0.65	3.52	1	241.329783517	241.333478822	"14"	12546.189654667	12543.307392331	1.5	0.1
0.01	1	0.00385537300098804	1	103	NA	259.960568999	0	0.65	3.52	1	241.563596119	241.567451492001	"14"	12546.189654667	12543.307392331	1.5	0.1
0.01	1	0.121280267001566	1	103	NA	259.960568999	0	0.65	3.52	1	241.797261416999	241.918541684001	"14"	12546.189654667	12543.307392331	1.5	0.1
0.01	1	0.00200509699971008	1	103	NA	259.960568999	0	0.65	3.52	1	242.1478687	242.149873797	"14"	12546.189654667	12543.307392331	1.5	0.1
0.01	1	0.00199854699894786	1	103	NA	259.960568999	0	0.65	3.52	1	242.381655601001	242.383654148	"14"	12546.189654667	12543.307392331	1.5	0.1
0.01	1	0.103994764000163	1	103	NA	259.960568999	0	0.65	3.52	1	242.615310962001	242.719305726001	"14"	12546.189654667	12543.307392331	1.5	0.1
0.01	1	0.00243576499997289	1	103	NA	259.960568999	0	0.65	3.52	1	242.949261562	242.951697327	"14"	12546.189654667	12543.307392331	1.5	0.1
0.01	1	0.00208502299938118	1	103	NA	259.960568999	0	0.65	3.52	1	243.182956974	243.185041997	"14"	12546.189654667	12543.307392331	1.5	0.1
0.01	1	0.00459566000063205	1	103	NA	259.960568999	0	0.65	3.52	1	243.416685116999	243.421280777	"14"	12546.189654667	12543.307392331	1.5	0.1
0.01	1	0.123890757000481	1	103	NA	259.960568999	0	0.65	3.52	1	243.650408694	243.774299451001	"14"	12546.189654667	12543.307392331	1.5	0.1
0.01	1	0.205850415000896	1	103	NA	259.960568999	0	0.65	3.52	1	244.001033091999	244.206883507	"14"	12546.189654667	12543.307392331	1.5	0.1
0.01	1	0.531135242999881	1	103	NA	259.960568999	0	0.65	3.52	1	244.435122679	244.966257922	"14"	12546.189654667	12543.307392331	1.5	0.1
0.01	1	0.0191823000004661	1	103	NA	259.960568999	0	0.65	3.52	1	245.203105977	245.222288277	"14"	12546.189654667	12543.307392331	1.5	0.1
0.01	1	0.00427042699993763	1	103	NA	259.960568999	0	0.65	3.52	1	245.453429595	245.457700022	"14"	12546.189654667	12543.307392331	1.5	0.1
0.01	1	0.00247694999961823	1	103	NA	259.960568999	0	0.65	3.52	1	245.687161530001	245.68963848	"14"	12546.189654667	12543.307392331	1.5	0.1
0.01	1	0.00341192300038529	1	103	NA	259.960568999	0	0.65	3.52	1	245.920865757	245.92427768	"14"	12546.189654667	12543.307392331	1.5	0.1
0.01	1	0.0283566550006071	1	103	NA	259.960568999	0	0.65	3.52	1	246.154642877	246.182999532	"14"	12546.189654667	12543.307392331	1.5	0.1
0.01	1	0.034314518001338	1	103	NA	259.960568999	0	0.65	3.52	1	246.405042842	246.439357360001	"14"	12546.189654667	12543.307392331	1.5	0.1
0.01	1	0.0303171340001427	1	103	NA	259.960568999	0	0.65	3.52	1	246.672248131999	246.702565266	"14"	12546.189654667	12543.307392331	1.5	0.1
0.01	1	0.00450689999888709	1	103	NA	259.960568999	0	0.65	3.52	1	246.939275197001	246.943782097	"14"	12546.189654667	12543.307392331	1.5	0.1
0.01	1	0.0575984699989931	1	103	NA	259.960568999	0	0.65	3.52	1	247.17295772	247.230556189999	"14"	12546.189654667	12543.307392331	1.5	0.1
0.01	1	0.0542633170007321	1	103	NA	259.960568999	0	0.65	3.52	1	247.456758116999	247.511021434	"14"	12546.189654667	12543.307392331	1.5	0.1
0.01	1	0.370060072998967	1	103	NA	259.960568999	0	0.65	3.52	1	247.740697409001	248.110757482	"14"	12546.189654667	12543.307392331	1.5	0.1
0.01	1	0.761379454999769	1	103	NA	259.960568999	0	0.65	3.52	1	248.341622397	249.103001852	"14"	12546.189654667	12543.307392331	1.5	0.1
0.01	1	0.00250955500087002	1	103	NA	259.960568999	0	0.65	3.52	1	249.326540724	249.329050279001	"14"	12546.189654667	12543.307392331	1.5	0.1
0.01	1	0.00270176699996227	1	103	NA	259.960568999	0	0.65	3.52	1	249.560323956001	249.563025723	"14"	12546.189654667	12543.307392331	1.5	0.1
0.01	1	0.0124527560001297	1	103	NA	259.960568999	0	0.65	3.52	1	249.794036507001	249.806489263001	"14"	12546.189654667	12543.307392331	1.5	0.1
0.01	1	0.0817427040001348	1	103	NA	259.960568999	0	0.65	3.52	1	250.044417397001	250.126160101001	"14"	12546.189654667	12543.307392331	1.5	0.1
0.01	1	0.0020894010012853	1	103	NA	259.960568999	0	0.65	3.52	1	250.361671825	250.363761226001	"14"	12546.189654667	12543.307392331	1.5	0.1
0.01	1	0.00386547600101039	1	103	NA	259.960568999	0	0.65	3.52	1	250.595518474	250.599383950001	"14"	12546.189654667	12543.307392331	1.5	0.1
0.01	1	0.00416690299971378	1	103	NA	259.960568999	0	0.65	3.52	1	250.829155617001	250.83332252	"14"	12546.189654667	12543.307392331	1.5	0.1
0.01	1	0.00371913900016807	1	103	NA	259.960568999	0	0.65	3.52	1	251.062845209	251.066564348001	"14"	12546.189654667	12543.307392331	1.5	0.1
0.01	1	0.0934435670005769	1	103	NA	259.960568999	0	0.65	3.52	1	251.296572617	251.390016184001	"14"	12546.189654667	12543.307392331	1.5	0.1
0.01	1	0.240179684000395	1	103	NA	259.960568999	0	0.65	3.52	1	251.630485838999	251.870665523	"14"	12546.189654667	12543.307392331	1.5	0.1
0.01	1	0.00203656299891009	1	103	NA	259.960568999	0	0.65	3.52	1	252.098028202001	252.100064765	"14"	12546.189654667	12543.307392331	1.5	0.1
0.01	1	0.0191874269985419	1	103	NA	259.960568999	0	0.65	3.52	1	252.331679197001	252.350866624	"14"	12546.189654667	12543.307392331	1.5	0.1
0.01	1	0.0804579590003414	1	103	NA	259.960568999	0	0.65	3.52	1	252.582077657	252.662535616	"14"	12546.189654667	12543.307392331	1.5	0.1
0.01	1	0.0194981889999326	1	103	NA	259.960568999	0	0.65	3.52	1	252.899323977001	252.918822166001	"14"	12546.189654667	12543.307392331	1.5	0.1
0.01	1	0.0576998979995551	1	103	NA	259.960568999	0	0.65	3.52	1	253.14977437	253.207474268	"14"	12546.189654667	12543.307392331	1.5	0.1
0.01	1	0.00705339099840785	1	103	NA	259.960568999	0	0.65	3.52	1	253.433577109001	253.440630499999	"14"	12546.189654667	12543.307392331	1.5	0.1
0.01	1	0.0835017869994772	1	103	NA	259.960568999	0	0.65	3.52	1	253.667294937	253.750796724	"14"	12546.189654667	12543.307392331	1.5	0.1
0.01	1	0.0460607130007702	1	103	NA	259.960568999	0	0.65	3.52	1	253.984450704	254.030511417001	"14"	12546.189654667	12543.307392331	1.5	0.1
0.01	1	0.362455403999775	1	103	NA	259.960568999	0	0.65	3.52	1	254.251503189	254.613958593	"14"	12546.189654667	12543.307392331	1.5	0.1
0.01	1	0.0578847929991753	1	103	NA	259.960568999	0	0.65	3.52	1	254.852624577001	254.91050937	"14"	12546.189654667	12543.307392331	1.5	0.1
0.01	1	0.310649349999949	1	103	NA	259.960568999	0	0.65	3.52	1	255.136318899	255.446968249	"14"	12546.189654667	12543.307392331	1.5	0.1
0.01	1	0.0555734909994499	1	103	NA	259.960568999	0	0.65	3.52	1	255.670624742001	255.726198233	"14"	12546.189654667	12543.307392331	1.5	0.1
0.01	1	0.795368195000265	1	103	NA	259.960568999	0	0.65	3.52	1	255.954433327001	256.749801522001	"14"	12546.189654667	12543.307392331	1.5	0.1
0.01	1	0.0265080240005773	1	103	NA	259.960568999	0	0.65	3.52	1	256.972784972	256.999292996001	"14"	12546.189654667	12543.307392331	1.5	0.1
0.01	1	0.351732959999936	1	103	NA	259.960568999	0	0.65	3.52	1	257.223205679	257.574938639	"14"	12546.189654667	12543.307392331	1.5	0.1
0.01	1	0.00462034699921787	1	103	NA	259.960568999	0	0.65	3.52	1	257.807602877001	257.812223224	"14"	12546.189654667	12543.307392331	1.5	0.1
0.01	1	0.326224176000323	1	103	NA	259.960568999	0	0.65	3.52	1	258.041332782001	258.367556958001	"14"	12546.189654667	12543.307392331	1.5	0.1
0.01	1	0.318481216998407	1	103	NA	259.960568999	0	0.65	3.52	1	258.592364862001	258.910846078999	"14"	12546.189654667	12543.307392331	1.5	0.1
0.01	1	0.015921296999295	1	103	NA	259.960568999	0	0.65	3.52	1	259.143121515001	259.159042812	"14"	12546.189654667	12543.307392331	1.5	0.1
0.01	1	0.565488205998918	2	103	NA	259.960568999	0	0.65	3.52	1	259.393543062	259.959031267999	"14"	12546.189654667	12543.307392331	1.5	0.1
0.01	1	0.863572467998893	1	120	NA	283.056276182	0	0.67	4.19	1	262.014603342001	262.878175809999	"15"	12546.189654667	12543.307392331	1.5	0.1
0.01	1	0.00201089000074717	1	120	NA	283.056276182	0	0.67	4.19	1	263.116504639	263.118515529	"15"	12546.189654667	12543.307392331	1.5	0.1
0.01	1	0.00452228500034835	1	120	NA	283.056276182	0	0.67	4.19	1	263.350266897	263.354789182	"15"	12546.189654667	12543.307392331	1.5	0.1
0.01	1	0.00462513999991643	1	120	NA	283.056276182	0	0.67	4.19	1	263.584061157	263.588686297	"15"	12546.189654667	12543.307392331	1.5	0.1
0.01	1	0.00384078299975954	1	120	NA	283.056276182	0	0.67	4.19	1	263.817592267	263.82143305	"15"	12546.189654667	12543.307392331	1.5	0.1
0.01	1	0.147746324000764	1	120	NA	283.056276182	0	0.67	4.19	1	264.051384384	264.199130708001	"15"	12546.189654667	12543.307392331	1.5	0.1
0.01	1	0.00267233700105862	1	120	NA	283.056276182	0	0.67	4.19	1	264.435368814	264.438041151001	"15"	12546.189654667	12543.307392331	1.5	0.1
0.01	1	0.00461443200038048	1	120	NA	283.056276182	0	0.67	4.19	1	264.669104137	264.673718569	"15"	12546.189654667	12543.307392331	1.5	0.1
0.01	1	0.00221144700117293	1	120	NA	283.056276182	0	0.67	4.19	1	264.902815269999	264.905026717001	"15"	12546.189654667	12543.307392331	1.5	0.1
0.01	1	0.0020147260001977	1	120	NA	283.056276182	0	0.67	4.19	1	265.136558677001	265.138573403001	"15"	12546.189654667	12543.307392331	1.5	0.1
0.01	1	0.00388503900103387	1	120	NA	283.056276182	0	0.67	4.19	1	265.370185799	265.374070838001	"15"	12546.189654667	12543.307392331	1.5	0.1
0.01	1	0.0983711059998313	1	120	NA	283.056276182	0	0.67	4.19	1	265.604054784	265.70242589	"15"	12546.189654667	12543.307392331	1.5	0.1
0.01	1	0.00667937399884977	1	120	NA	283.056276182	0	0.67	4.19	1	265.937903592001	265.944582966	"15"	12546.189654667	12543.307392331	1.5	0.1
0.01	1	0.00239739999960875	1	120	NA	283.056276182	0	0.67	4.19	1	266.171617316	266.174014716	"15"	12546.189654667	12543.307392331	1.5	0.1
0.01	1	0.00223660099982226	1	120	NA	283.056276182	0	0.67	4.19	1	266.40535386	266.407590461	"15"	12546.189654667	12543.307392331	1.5	0.1
0.01	1	0.00250852500175824	1	120	NA	283.056276182	0	0.67	4.19	1	266.639018133999	266.641526659001	"15"	12546.189654667	12543.307392331	1.5	0.1
0.01	1	0.00202805099979741	1	120	NA	283.056276182	0	0.67	4.19	1	266.872759406	266.874787457	"15"	12546.189654667	12543.307392331	1.5	0.1
0.01	1	0.00461411700052849	1	120	NA	283.056276182	0	0.67	4.19	1	267.106530302	267.111144419001	"15"	12546.189654667	12543.307392331	1.5	0.1
0.01	1	0.00200907900034508	1	120	NA	283.056276182	0	0.67	4.19	1	267.340320198	267.342329277	"15"	12546.189654667	12543.307392331	1.5	0.1
0.01	1	0.00232699800108094	1	120	NA	283.056276182	0	0.67	4.19	1	267.573957334	267.576284332001	"15"	12546.189654667	12543.307392331	1.5	0.1
0.01	1	0.00457983000160311	1	120	NA	283.056276182	0	0.67	4.19	1	267.807716376999	267.812296207001	"15"	12546.189654667	12543.307392331	1.5	0.1
0.01	1	0.00462772199898609	1	120	NA	283.056276182	0	0.67	4.19	1	268.041481247001	268.046108969	"15"	12546.189654667	12543.307392331	1.5	0.1
0.01	1	0.00364664100015943	1	120	NA	283.056276182	0	0.67	4.19	1	268.275182478999	268.27882912	"15"	12546.189654667	12543.307392331	1.5	0.1
0.01	1	0.138825643000018	1	120	NA	283.056276182	0	0.67	4.19	1	268.508808757	268.6476344	"15"	12546.189654667	12543.307392331	1.5	0.1
0.01	1	0.00258946499889134	1	120	NA	283.056276182	0	0.67	4.19	1	268.876159314001	268.878748779	"15"	12546.189654667	12543.307392331	1.5	0.1
0.01	1	0.00384152100014035	1	120	NA	283.056276182	0	0.67	4.19	1	269.109795937	269.113637458	"15"	12546.189654667	12543.307392331	1.5	0.1
0.01	1	0.00202244499996596	1	120	NA	283.056276182	0	0.67	4.19	1	269.343589948001	269.345612393001	"15"	12546.189654667	12543.307392331	1.5	0.1
0.01	1	0.00395089900121093	1	120	NA	283.056276182	0	0.67	4.19	1	269.577383499	269.581334398001	"15"	12546.189654667	12543.307392331	1.5	0.1
0.01	1	0.00375673600137816	1	120	NA	283.056276182	0	0.67	4.19	1	269.811074312	269.814831048001	"15"	12546.189654667	12543.307392331	1.5	0.1
0.01	1	0.00388022200058913	1	120	NA	283.056276182	0	0.67	4.19	1	270.044808702	270.048688924	"15"	12546.189654667	12543.307392331	1.5	0.1
0.01	1	0.00390148900078202	1	120	NA	283.056276182	0	0.67	4.19	1	270.278474359	270.282375848001	"15"	12546.189654667	12543.307392331	1.5	0.1
0.01	1	0.00451461199918413	1	120	NA	283.056276182	0	0.67	4.19	1	270.512224907001	270.516739519	"15"	12546.189654667	12543.307392331	1.5	0.1
0.01	1	0.00373391099856235	1	120	NA	283.056276182	0	0.67	4.19	1	270.745932457001	270.749666367999	"15"	12546.189654667	12543.307392331	1.5	0.1
0.01	1	0.00423933699858026	1	120	NA	283.056276182	0	0.67	4.19	1	270.979710912001	270.983950248999	"15"	12546.189654667	12543.307392331	1.5	0.1
0.01	1	0.00212054400071793	1	120	NA	283.056276182	0	0.67	4.19	1	271.213355417	271.215475961	"15"	12546.189654667	12543.307392331	1.5	0.1
0.01	1	0.00224273499952687	1	120	NA	283.056276182	0	0.67	4.19	1	271.447129251001	271.449371986	"15"	12546.189654667	12543.307392331	1.5	0.1
0.01	1	0.00212352899870893	1	120	NA	283.056276182	0	0.67	4.19	1	271.680919198001	271.683042727	"15"	12546.189654667	12543.307392331	1.5	0.1
0.01	1	0.00265055700037919	1	120	NA	283.056276182	0	0.67	4.19	1	271.914687904	271.917338461	"15"	12546.189654667	12543.307392331	1.5	0.1
0.01	1	0.00384344400117698	1	120	NA	283.056276182	0	0.67	4.19	1	272.148371683999	272.152215128001	"15"	12546.189654667	12543.307392331	1.5	0.1
0.01	1	0.00203925200003141	1	120	NA	283.056276182	0	0.67	4.19	1	272.382100071	272.384139323	"15"	12546.189654667	12543.307392331	1.5	0.1
0.01	1	0.00395558799937135	1	120	NA	283.056276182	0	0.67	4.19	1	272.615809212	272.6197648	"15"	12546.189654667	12543.307392331	1.5	0.1
0.01	1	0.00416134999977658	1	120	NA	283.056276182	0	0.67	4.19	1	272.849584742	272.853746092	"15"	12546.189654667	12543.307392331	1.5	0.1
0.01	1	0.00392526100040413	1	120	NA	283.056276182	0	0.67	4.19	1	273.083222449	273.087147710001	"15"	12546.189654667	12543.307392331	1.5	0.1
0.01	1	0.0037511300015467	1	120	NA	283.056276182	0	0.67	4.19	1	273.316942011999	273.320693142001	"15"	12546.189654667	12543.307392331	1.5	0.1
0.01	1	0.00389840900061245	1	120	NA	283.056276182	0	0.67	4.19	1	273.550743549	273.554641958001	"15"	12546.189654667	12543.307392331	1.5	0.1
0.01	1	0.00386515500031237	1	120	NA	283.056276182	0	0.67	4.19	1	273.784426069	273.788291224	"15"	12546.189654667	12543.307392331	1.5	0.1
0.01	1	0.0038151819990162	1	120	NA	283.056276182	0	0.67	4.19	1	274.018199452001	274.022014634	"15"	12546.189654667	12543.307392331	1.5	0.1
0.01	1	0.00390695700116339	1	120	NA	283.056276182	0	0.67	4.19	1	274.251940269	274.255847226001	"15"	12546.189654667	12543.307392331	1.5	0.1
0.01	1	0.00454582199927245	1	120	NA	283.056276182	0	0.67	4.19	1	274.485640082001	274.490185904	"15"	12546.189654667	12543.307392331	1.5	0.1
0.01	1	0.00374104100046679	1	120	NA	283.056276182	0	0.67	4.19	1	274.719309839	274.72305088	"15"	12546.189654667	12543.307392331	1.5	0.1
0.01	1	0.00220473500121443	1	120	NA	283.056276182	0	0.67	4.19	1	274.953017938	274.955222673001	"15"	12546.189654667	12543.307392331	1.5	0.1
0.01	1	0.00447953699949721	1	120	NA	283.056276182	0	0.67	4.19	1	275.186792032	275.191271569	"15"	12546.189654667	12543.307392331	1.5	0.1
0.01	1	0.0264588600002753	1	120	NA	283.056276182	0	0.67	4.19	1	275.420552887001	275.447011747001	"15"	12546.189654667	12543.307392331	1.5	0.1
0.01	1	0.00397405900002923	1	120	NA	283.056276182	0	0.67	4.19	1	275.670855749	275.674829808	"15"	12546.189654667	12543.307392331	1.5	0.1
0.01	1	0.00342622499920253	1	120	NA	283.056276182	0	0.67	4.19	1	275.904608327	275.908034552	"15"	12546.189654667	12543.307392331	1.5	0.1
0.01	1	0.00224735499978124	1	120	NA	283.056276182	0	0.67	4.19	1	276.138416794	276.140664148999	"15"	12546.189654667	12543.307392331	1.5	0.1
0.01	1	0.00463241200122866	1	120	NA	283.056276182	0	0.67	4.19	1	276.372246837	276.376879249001	"15"	12546.189654667	12543.307392331	1.5	0.1
0.01	1	0.0247214850005548	1	120	NA	283.056276182	0	0.67	4.19	1	276.605773107	276.630494592	"15"	12546.189654667	12543.307392331	1.5	0.1
0.01	1	0.0155358600004547	1	120	NA	283.056276182	0	0.67	4.19	1	276.856284887001	276.871820747001	"15"	12546.189654667	12543.307392331	1.5	0.1
0.01	1	0.00404084299952956	1	120	NA	283.056276182	0	0.67	4.19	1	277.106695857001	277.1107367	"15"	12546.189654667	12543.307392331	1.5	0.1
0.01	1	0.513805877999403	1	120	NA	283.056276182	0	0.67	4.19	1	277.340458262001	277.85426414	"15"	12546.189654667	12543.307392331	1.5	0.1
0.01	1	0.33830322599897	1	120	NA	283.056276182	0	0.67	4.19	1	278.091659732001	278.429962958	"15"	12546.189654667	12543.307392331	1.5	0.1
0.01	1	0.283339998999509	1	120	NA	283.056276182	0	0.67	4.19	1	278.659255627001	278.942595626	"15"	12546.189654667	12543.307392331	1.5	0.1
0.01	1	0.27038398500008	1	120	NA	283.056276182	0	0.67	4.19	1	279.176888669001	279.447272654001	"15"	12546.189654667	12543.307392331	1.5	0.1
0.01	1	0.265237003999573	1	120	NA	283.056276182	0	0.67	4.19	1	279.677582767001	279.942819771	"15"	12546.189654667	12543.307392331	1.5	0.1
0.01	1	1.05944755900055	1	120	NA	283.056276182	0	0.67	4.19	1	280.178551257	281.237998816001	"15"	12546.189654667	12543.307392331	1.5	0.1
0.01	1	0.646890673999224	1	120	NA	283.056276182	0	0.67	4.19	1	281.464008922001	282.110899596	"15"	12546.189654667	12543.307392331	1.5	0.1
0.01	1	0.705868737999481	2	120	NA	283.056276182	0	0.67	4.19	1	282.348878339	283.054747077	"15"	12546.189654667	12543.307392331	1.5	0.1
0.01	1	1.12834527000086	1	109	NA	307.184362161001	0	0.78	4.97	1	285.08680313	286.215148400001	"16"	12546.189654667	12543.307392331	1.5	0.1
0.01	1	0.00234158299826959	1	109	NA	307.184362161001	0	0.78	4.97	1	286.455775968001	286.458117550999	"16"	12546.189654667	12543.307392331	1.5	0.1
0.01	1	0.0019829220000247	1	109	NA	307.184362161001	0	0.78	4.97	1	286.689374367001	286.691357289001	"16"	12546.189654667	12543.307392331	1.5	0.1
0.01	1	0.068289332999484	1	109	NA	307.184362161001	0	0.78	4.97	1	286.923268357001	286.99155769	"16"	12546.189654667	12543.307392331	1.5	0.1
0.01	1	0.00697826299983717	1	109	NA	307.184362161001	0	0.78	4.97	1	287.223732379	287.230710641999	"16"	12546.189654667	12543.307392331	1.5	0.1
0.01	1	0.0381451299999753	1	109	NA	307.184362161001	0	0.78	4.97	1	287.457489566999	287.495634696999	"16"	12546.189654667	12543.307392331	1.5	0.1
0.01	1	0.0657517109993933	1	109	NA	307.184362161001	0	0.78	4.97	1	287.724543029	287.79029474	"16"	12546.189654667	12543.307392331	1.5	0.1
0.01	1	0.0616990130001795	1	109	NA	307.184362161001	0	0.78	4.97	1	288.025076702001	288.086775715001	"16"	12546.189654667	12543.307392331	1.5	0.1
0.01	1	0.0426075350005704	1	109	NA	307.184362161001	0	0.78	4.97	1	288.308880002	288.351487537	"16"	12546.189654667	12543.307392331	1.5	0.1
0.01	1	0.0869667719998688	1	109	NA	307.184362161001	0	0.78	4.97	1	288.575925747	288.662892519	"16"	12546.189654667	12543.307392331	1.5	0.1
0.01	1	0.0343486010006018	1	109	NA	307.184362161001	0	0.78	4.97	1	288.893154062	288.927502663	"16"	12546.189654667	12543.307392331	1.5	0.1
0.01	1	0.0374049949987239	1	109	NA	307.184362161001	0	0.78	4.97	1	289.160300887001	289.197705881999	"16"	12546.189654667	12543.307392331	1.5	0.1
0.01	1	0.0915403609997156	1	109	NA	307.184362161001	0	0.78	4.97	1	289.427424989	289.51896535	"16"	12546.189654667	12543.307392331	1.5	0.1
0.01	1	0.0298981140003889	1	109	NA	307.184362161001	0	0.78	4.97	1	289.744509524	289.774407638	"16"	12546.189654667	12543.307392331	1.5	0.1
0.01	1	0.0679296450016409	1	109	NA	307.184362161001	0	0.78	4.97	1	290.011717941999	290.079647587001	"16"	12546.189654667	12543.307392331	1.5	0.1
0.01	1	0.00705248000122083	1	109	NA	307.184362161001	0	0.78	4.97	1	290.312171883999	290.319224364001	"16"	12546.189654667	12543.307392331	1.5	0.1
0.01	1	0.0537270589993568	1	109	NA	307.184362161001	0	0.78	4.97	1	290.545940857	290.599667916	"16"	12546.189654667	12543.307392331	1.5	0.1
0.01	1	0.00993090200063307	1	109	NA	307.184362161001	0	0.78	4.97	1	290.829795242	290.839726144	"16"	12546.189654667	12543.307392331	1.5	0.1
0.01	1	0.0392480810005509	1	109	NA	307.184362161001	0	0.78	4.97	1	291.063706097	291.102954178001	"16"	12546.189654667	12543.307392331	1.5	0.1
0.01	1	0.00757519400031015	1	109	NA	307.184362161001	0	0.78	4.97	1	291.330557148	291.338132342	"16"	12546.189654667	12543.307392331	1.5	0.1
0.01	1	0.00399326200022188	1	109	NA	307.184362161001	0	0.78	4.97	1	291.564487762	291.568481024	"16"	12546.189654667	12543.307392331	1.5	0.1
0.01	1	0.136402000000089	1	109	NA	307.184362161001	0	0.78	4.97	1	291.798154987	291.934556987	"16"	12546.189654667	12543.307392331	1.5	0.1
0.01	1	0.00378167599956214	1	109	NA	307.184362161001	0	0.78	4.97	1	292.165342902001	292.169124578	"16"	12546.189654667	12543.307392331	1.5	0.1
0.01	1	0.0026685560005717	1	109	NA	307.184362161001	0	0.78	4.97	1	292.399007317999	292.401675874	"16"	12546.189654667	12543.307392331	1.5	0.1
0.01	1	0.0209941230004915	1	109	NA	307.184362161001	0	0.78	4.97	1	292.632807754	292.653801877001	"16"	12546.189654667	12543.307392331	1.5	0.1
0.01	1	0.00204305500119517	1	109	NA	307.184362161001	0	0.78	4.97	1	292.883186657	292.885229712001	"16"	12546.189654667	12543.307392331	1.5	0.1
0.01	1	0.0904508200001146	1	109	NA	307.184362161001	0	0.78	4.97	1	293.116950247	293.207401067	"16"	12546.189654667	12543.307392331	1.5	0.1
0.01	1	0.00372939999942901	1	109	NA	307.184362161001	0	0.78	4.97	1	293.434242362	293.437971762	"16"	12546.189654667	12543.307392331	1.5	0.1
0.01	1	0.106765230000747	1	109	NA	307.184362161001	0	0.78	4.97	1	293.667916726999	293.774681957	"16"	12546.189654667	12543.307392331	1.5	0.1
0.01	1	0.0045512119995692	1	109	NA	307.184362161001	0	0.78	4.97	1	294.001784727001	294.006335939001	"16"	12546.189654667	12543.307392331	1.5	0.1
0.01	1	0.0982528650001768	1	109	NA	307.184362161001	0	0.78	4.97	1	294.235522264	294.333775129	"16"	12546.189654667	12543.307392331	1.5	0.1
0.01	1	0.00380923699958657	1	109	NA	307.184362161001	0	0.78	4.97	1	294.569334447	294.573143684	"16"	12546.189654667	12543.307392331	1.5	0.1
0.01	1	0.0440871760001755	1	109	NA	307.184362161001	0	0.78	4.97	1	294.803101367001	294.847188543001	"16"	12546.189654667	12543.307392331	1.5	0.1
0.01	1	0.0246121390009648	1	109	NA	307.184362161001	0	0.78	4.97	1	295.070308427999	295.094920567	"16"	12546.189654667	12543.307392331	1.5	0.1
0.01	1	0.00458713500120211	1	109	NA	307.184362161001	0	0.78	4.97	1	295.320583457	295.325170592001	"16"	12546.189654667	12543.307392331	1.5	0.1
0.01	1	0.00370636300067417	1	109	NA	307.184362161001	0	0.78	4.97	1	295.554400407	295.55810677	"16"	12546.189654667	12543.307392331	1.5	0.1
0.01	1	0.0897282790010649	1	109	NA	307.184362161001	0	0.78	4.97	1	295.788127307	295.877855586001	"16"	12546.189654667	12543.307392331	1.5	0.1
0.01	1	0.0212259939999058	1	109	NA	307.184362161001	0	0.78	4.97	1	296.105320912	296.126546906	"16"	12546.189654667	12543.307392331	1.5	0.1
0.01	1	0.00288395799907448	1	109	NA	307.184362161001	0	0.78	4.97	1	296.355739332001	296.35862329	"16"	12546.189654667	12543.307392331	1.5	0.1
0.01	1	0.00368553200132737	1	109	NA	307.184362161001	0	0.78	4.97	1	296.589494633999	296.593180166001	"16"	12546.189654667	12543.307392331	1.5	0.1
0.01	1	0.0879941719995259	1	109	NA	307.184362161001	0	0.78	4.97	1	296.823253418001	296.91124759	"16"	12546.189654667	12543.307392331	1.5	0.1
0.01	1	0.0045837620000384	1	109	NA	307.184362161001	0	0.78	4.97	1	297.140530887	297.145114649	"16"	12546.189654667	12543.307392331	1.5	0.1
0.01	1	0.00416206900081306	1	109	NA	307.184362161001	0	0.78	4.97	1	297.374129885	297.378291954001	"16"	12546.189654667	12543.307392331	1.5	0.1
0.01	1	0.111418956001216	1	109	NA	307.184362161001	0	0.78	4.97	1	297.607872969	297.719291925001	"16"	12546.189654667	12543.307392331	1.5	0.1
0.01	1	0.00216493600055401	1	109	NA	307.184362161001	0	0.78	4.97	1	297.941700656	297.943865592	"16"	12546.189654667	12543.307392331	1.5	0.1
0.01	1	0.00206448800054204	1	109	NA	307.184362161001	0	0.78	4.97	1	298.175517547999	298.177582036	"16"	12546.189654667	12543.307392331	1.5	0.1
0.01	1	0.00458820500170987	1	109	NA	307.184362161001	0	0.78	4.97	1	298.409112941999	298.413701147001	"16"	12546.189654667	12543.307392331	1.5	0.1
0.01	1	0.132253789999595	1	109	NA	307.184362161001	0	0.78	4.97	1	298.642823407001	298.775077197	"16"	12546.189654667	12543.307392331	1.5	0.1
0.01	1	0.00211149899951124	1	109	NA	307.184362161001	0	0.78	4.97	1	299.010180814001	299.012292313	"16"	12546.189654667	12543.307392331	1.5	0.1
0.01	1	0.00386787500065111	1	109	NA	307.184362161001	0	0.78	4.97	1	299.243852357	299.247720232001	"16"	12546.189654667	12543.307392331	1.5	0.1
0.01	1	0.00225529300041671	1	109	NA	307.184362161001	0	0.78	4.97	1	299.477604476	299.479859769001	"16"	12546.189654667	12543.307392331	1.5	0.1
0.01	1	0.00269559199841751	1	109	NA	307.184362161001	0	0.78	4.97	1	299.711282010001	299.713977601999	"16"	12546.189654667	12543.307392331	1.5	0.1
0.01	1	0.00206321500081685	1	109	NA	307.184362161001	0	0.78	4.97	1	299.945100655999	299.947163871	"16"	12546.189654667	12543.307392331	1.5	0.1
0.01	1	0.00201848199867527	1	109	NA	307.184362161001	0	0.78	4.97	1	300.178919207001	300.180937689	"16"	12546.189654667	12543.307392331	1.5	0.1
0.01	1	0.00198438799998257	1	109	NA	307.184362161001	0	0.78	4.97	1	300.412535796	300.414520184	"16"	12546.189654667	12543.307392331	1.5	0.1
0.01	1	0.00393194500065874	1	109	NA	307.184362161001	0	0.78	4.97	1	300.646227072	300.650159017001	"16"	12546.189654667	12543.307392331	1.5	0.1
0.01	1	0.00378595499932999	1	109	NA	307.184362161001	0	0.78	4.97	1	300.879919899	300.883705853999	"16"	12546.189654667	12543.307392331	1.5	0.1
0.01	1	0.00450678500055801	1	109	NA	307.184362161001	0	0.78	4.97	1	301.113764127	301.118270912	"16"	12546.189654667	12543.307392331	1.5	0.1
0.01	1	0.00383670900009747	1	109	NA	307.184362161001	0	0.78	4.97	1	301.347445869	301.351282578	"16"	12546.189654667	12543.307392331	1.5	0.1
0.01	1	0.121482091999496	1	109	NA	307.184362161001	0	0.78	4.97	1	301.581198382	301.702680474	"16"	12546.189654667	12543.307392331	1.5	0.1
0.01	1	0.00216573800025799	1	109	NA	307.184362161001	0	0.78	4.97	1	301.931799690001	301.933965428001	"16"	12546.189654667	12543.307392331	1.5	0.1
0.01	1	0.00257341799988353	1	109	NA	307.184362161001	0	0.78	4.97	1	302.165448080001	302.168021498001	"16"	12546.189654667	12543.307392331	1.5	0.1
0.01	1	0.003580246000638	1	109	NA	307.184362161001	0	0.78	4.97	1	302.399299712	302.402879958001	"16"	12546.189654667	12543.307392331	1.5	0.1
0.01	1	0.00376579099975061	1	109	NA	307.184362161001	0	0.78	4.97	1	302.633045139	302.63681093	"16"	12546.189654667	12543.307392331	1.5	0.1
0.01	1	0.140664483000364	1	109	NA	307.184362161001	0	0.78	4.97	1	302.866633157	303.007297640001	"16"	12546.189654667	12543.307392331	1.5	0.1
0.01	1	0.0019718820003618	1	109	NA	307.184362161001	0	0.78	4.97	1	303.233941434	303.235913316001	"16"	12546.189654667	12543.307392331	1.5	0.1
0.01	1	0.00273962699975527	1	109	NA	307.184362161001	0	0.78	4.97	1	303.467666728	303.470406355	"16"	12546.189654667	12543.307392331	1.5	0.1
0.01	1	0.00433189099931042	1	109	NA	307.184362161001	0	0.78	4.97	1	303.701379651	303.705711541999	"16"	12546.189654667	12543.307392331	1.5	0.1
0.01	1	0.00392562500019267	1	109	NA	307.184362161001	0	0.78	4.97	1	303.935136667	303.939062292	"16"	12546.189654667	12543.307392331	1.5	0.1
0.01	1	0.00448905499979446	1	109	NA	307.184362161001	0	0.78	4.97	1	304.168962447	304.173451502	"16"	12546.189654667	12543.307392331	1.5	0.1
0.01	1	0.00375694400099746	1	109	NA	307.184362161001	0	0.78	4.97	1	304.402574281999	304.406331226	"16"	12546.189654667	12543.307392331	1.5	0.1
0.01	1	0.099127055000281	1	109	NA	307.184362161001	0	0.78	4.97	1	304.636311254	304.735438309001	"16"	12546.189654667	12543.307392331	1.5	0.1
0.01	1	0.00254360899998574	1	109	NA	307.184362161001	0	0.78	4.97	1	304.970215904001	304.972759513001	"16"	12546.189654667	12543.307392331	1.5	0.1
0.01	1	0.004647974999898	1	109	NA	307.184362161001	0	0.78	4.97	1	305.204003552	305.208651527	"16"	12546.189654667	12543.307392331	1.5	0.1
0.01	1	0.104332087999865	1	109	NA	307.184362161001	0	0.78	4.97	1	305.437677239001	305.542009327	"16"	12546.189654667	12543.307392331	1.5	0.1
0.01	1	0.00240147600015916	1	109	NA	307.184362161001	0	0.78	4.97	1	305.771585955999	305.773987432	"16"	12546.189654667	12543.307392331	1.5	0.1
0.01	1	0.00202156699924672	1	109	NA	307.184362161001	0	0.78	4.97	1	306.005235872	306.007257439	"16"	12546.189654667	12543.307392331	1.5	0.1
0.01	1	0.00454031200024474	1	109	NA	307.184362161001	0	0.78	4.97	1	306.239066857001	306.243607169001	"16"	12546.189654667	12543.307392331	1.5	0.1
0.01	1	0.710148205998848	2	109	NA	307.184362161001	0	0.78	4.97	1	306.472689182001	307.182837388	"16"	12546.189654667	12543.307392331	1.5	0.1
0.01	1	1.18694078899898	1	71	NA	322.271577684	0	0.39	5.36	1	309.227272047001	310.414212836	"17"	12546.189654667	12543.307392331	1.5	0.1
0.01	1	0.00206058500043582	1	71	NA	322.271577684	0	0.39	5.36	1	310.646444901	310.648505486	"17"	12546.189654667	12543.307392331	1.5	0.1
0.01	1	0.0045442370010278	1	71	NA	322.271577684	0	0.39	5.36	1	310.880116032	310.884660269001	"17"	12546.189654667	12543.307392331	1.5	0.1
0.01	1	0.0918982229995891	1	71	NA	322.271577684	0	0.39	5.36	1	311.113892589001	311.205790812	"17"	12546.189654667	12543.307392331	1.5	0.1
0.01	1	0.00204393999956665	1	71	NA	322.271577684	0	0.39	5.36	1	311.43111336	311.4331573	"17"	12546.189654667	12543.307392331	1.5	0.1
0.01	1	0.00398193399996671	1	71	NA	322.271577684	0	0.39	5.36	1	311.664713022001	311.668694956001	"17"	12546.189654667	12543.307392331	1.5	0.1
0.01	1	0.00387702199986961	1	71	NA	322.271577684	0	0.39	5.36	1	311.898493352001	311.902370374	"17"	12546.189654667	12543.307392331	1.5	0.1
0.01	1	0.106010448000234	1	71	NA	322.271577684	0	0.39	5.36	1	312.132247502001	312.238257950001	"17"	12546.189654667	12543.307392331	1.5	0.1
0.01	1	0.00203464699916367	1	71	NA	322.271577684	0	0.39	5.36	1	312.466140974	312.468175620999	"17"	12546.189654667	12543.307392331	1.5	0.1
0.01	1	0.00392667899905064	1	71	NA	322.271577684	0	0.39	5.36	1	312.699882037001	312.703808716	"17"	12546.189654667	12543.307392331	1.5	0.1
0.01	1	0.113538989000517	1	71	NA	322.271577684	0	0.39	5.36	1	312.933681432	313.047220421	"17"	12546.189654667	12543.307392331	1.5	0.1
0.01	1	0.00450960000125633	1	71	NA	322.271577684	0	0.39	5.36	1	313.284270257	313.288779857001	"17"	12546.189654667	12543.307392331	1.5	0.1
0.01	1	0.00396191599975282	1	71	NA	322.271577684	0	0.39	5.36	1	313.517905412	313.521867328	"17"	12546.189654667	12543.307392331	1.5	0.1
0.01	1	0.103060127001299	1	71	NA	322.271577684	0	0.39	5.36	1	313.751669601999	313.854729729001	"17"	12546.189654667	12543.307392331	1.5	0.1
0.01	1	0.00438513199878798	1	71	NA	322.271577684	0	0.39	5.36	1	314.085623520001	314.090008652	"17"	12546.189654667	12543.307392331	1.5	0.1
0.01	1	0.102846548999878	1	71	NA	322.271577684	0	0.39	5.36	1	314.319257708999	314.422104257999	"17"	12546.189654667	12543.307392331	1.5	0.1
0.01	1	0.00199635500030126	1	71	NA	322.271577684	0	0.39	5.36	1	314.653177148	314.655173503001	"17"	12546.189654667	12543.307392331	1.5	0.1
0.01	1	0.00374191999981122	1	71	NA	322.271577684	0	0.39	5.36	1	314.886932202	314.890674122	"17"	12546.189654667	12543.307392331	1.5	0.1
0.01	1	0.102131657000427	1	71	NA	322.271577684	0	0.39	5.36	1	315.120584762	315.222716419001	"17"	12546.189654667	12543.307392331	1.5	0.1
0.01	1	0.0312278870005684	1	71	NA	322.271577684	0	0.39	5.36	1	315.454525752	315.485753639001	"17"	12546.189654667	12543.307392331	1.5	0.1
0.01	1	0.0605519459986681	1	71	NA	322.271577684	0	0.39	5.36	1	315.721585499001	315.782137445	"17"	12546.189654667	12543.307392331	1.5	0.1
0.01	1	0.00452225400113093	1	71	NA	322.271577684	0	0.39	5.36	1	316.005421045	316.009943299001	"17"	12546.189654667	12543.307392331	1.5	0.1
0.01	1	0.015487385000597	1	71	NA	322.271577684	0	0.39	5.36	1	316.239212712	316.254700097001	"17"	12546.189654667	12543.307392331	1.5	0.1
0.01	1	0.0541313819994684	1	71	NA	322.271577684	0	0.39	5.36	1	316.489536507001	316.543667889	"17"	12546.189654667	12543.307392331	1.5	0.1
0.01	1	0.0338903789997858	1	71	NA	322.271577684	0	0.39	5.36	1	316.773466812001	316.807357191001	"17"	12546.189654667	12543.307392331	1.5	0.1
0.01	1	0.0303076500003954	1	71	NA	322.271577684	0	0.39	5.36	1	317.040555363999	317.070863014	"17"	12546.189654667	12543.307392331	1.5	0.1
0.01	1	0.0270933020001394	1	71	NA	322.271577684	0	0.39	5.36	1	317.307629109	317.334722411	"17"	12546.189654667	12543.307392331	1.5	0.1
0.01	1	0.00439777599967783	1	71	NA	322.271577684	0	0.39	5.36	1	317.558041241	317.562439017	"17"	12546.189654667	12543.307392331	1.5	0.1
0.01	1	0.00374670299970603	1	71	NA	322.271577684	0	0.39	5.36	1	317.791726257001	317.795472960001	"17"	12546.189654667	12543.307392331	1.5	0.1
0.01	1	0.0036650579986599	1	71	NA	322.271577684	0	0.39	5.36	1	318.025506174001	318.029171231999	"17"	12546.189654667	12543.307392331	1.5	0.1
0.01	1	0.0030283900014183	1	71	NA	322.271577684	0	0.39	5.36	1	318.259143652	318.262172042001	"17"	12546.189654667	12543.307392331	1.5	0.1
0.01	1	0.001987638999708	1	71	NA	322.271577684	0	0.39	5.36	1	318.493021426	318.495009065	"17"	12546.189654667	12543.307392331	1.5	0.1
0.01	1	0.00388966200080176	1	71	NA	322.271577684	0	0.39	5.36	1	318.726624822	318.730514484001	"17"	12546.189654667	12543.307392331	1.5	0.1
0.01	1	0.215047867000976	1	71	NA	322.271577684	0	0.39	5.36	1	318.960365764	319.175413631001	"17"	12546.189654667	12543.307392331	1.5	0.1
0.01	1	0.284136596999815	1	71	NA	322.271577684	0	0.39	5.36	1	319.411166202	319.695302799	"17"	12546.189654667	12543.307392331	1.5	0.1
0.01	1	0.2295174030005	1	71	NA	322.271577684	0	0.39	5.36	1	319.928660756999	320.15817816	"17"	12546.189654667	12543.307392331	1.5	0.1
0.01	1	0.554780454000138	1	71	NA	322.271577684	0	0.39	5.36	1	320.396253522	320.951033976	"17"	12546.189654667	12543.307392331	1.5	0.1
0.01	1	0.137692059999608	1	71	NA	322.271577684	0	0.39	5.36	1	321.180798102001	321.318490162001	"17"	12546.189654667	12543.307392331	1.5	0.1
0.01	1	0.225677751999683	1	71	NA	322.271577684	0	0.39	5.36	1	321.548092264	321.773770016	"17"	12546.189654667	12543.307392331	1.5	0.1
0.01	1	0.271098323000842	2	71	NA	322.271577684	0	0.39	5.36	1	321.998937187	322.270035510001	"17"	12546.189654667	12543.307392331	1.5	0.1
0.01	1	0.887978987000679	1	96	NA	346.865132404	0	0.75	6.11	1	324.319438881999	325.207417869	"18"	12546.189654667	12543.307392331	1.5	0.1
0.01	1	0.024774294000963	1	96	NA	346.865132404	0	0.75	6.11	1	325.438086071999	325.462860366	"18"	12546.189654667	12543.307392331	1.5	0.1
0.01	1	0.1183679450005	1	96	NA	346.865132404	0	0.75	6.11	1	325.688438607	325.806806552	"18"	12546.189654667	12543.307392331	1.5	0.1
0.01	1	0.0321301389994915	1	96	NA	346.865132404	0	0.75	6.11	1	326.039031751001	326.07116189	"18"	12546.189654667	12543.307392331	1.5	0.1
0.01	1	0.0849460320005164	1	96	NA	346.865132404	0	0.75	6.11	1	326.306086949	326.391032981001	"18"	12546.189654667	12543.307392331	1.5	0.1
0.01	1	0.158750710999811	1	96	NA	346.865132404	0	0.75	6.11	1	326.623275879001	326.782026590001	"18"	12546.189654667	12543.307392331	1.5	0.1
0.01	1	0.015101261999007	1	96	NA	346.865132404	0	0.75	6.11	1	327.007159242001	327.022260504	"18"	12546.189654667	12543.307392331	1.5	0.1
0.01	1	0.00753692599937494	1	96	NA	346.865132404	0	0.75	6.11	1	327.257685340001	327.265222266	"18"	12546.189654667	12543.307392331	1.5	0.1
0.01	1	0.0265850319992751	1	96	NA	346.865132404	0	0.75	6.11	1	327.491385642001	327.517970674	"18"	12546.189654667	12543.307392331	1.5	0.1
0.01	1	0.010289632000422	1	96	NA	346.865132404	0	0.75	6.11	1	327.741782178	327.75207181	"18"	12546.189654667	12543.307392331	1.5	0.1
0.01	1	0.00255425899922557	1	96	NA	346.865132404	0	0.75	6.11	1	327.975626768	327.978181027	"18"	12546.189654667	12543.307392331	1.5	0.1
0.01	1	0.00196862800112285	1	96	NA	346.865132404	0	0.75	6.11	1	328.209308697	328.211277325001	"18"	12546.189654667	12543.307392331	1.5	0.1
0.01	1	0.00202398600049492	1	96	NA	346.865132404	0	0.75	6.11	1	328.443004892	328.445028878001	"18"	12546.189654667	12543.307392331	1.5	0.1
0.01	1	0.00392925000051036	1	96	NA	346.865132404	0	0.75	6.11	1	328.676671124	328.680600374	"18"	12546.189654667	12543.307392331	1.5	0.1
0.01	1	0.112156475999655	1	96	NA	346.865132404	0	0.75	6.11	1	328.910496982	329.022653458	"18"	12546.189654667	12543.307392331	1.5	0.1
0.01	1	0.00244814200050314	1	96	NA	346.865132404	0	0.75	6.11	1	329.244346961999	329.246795104	"18"	12546.189654667	12543.307392331	1.5	0.1
0.01	1	0.00392130900036136	1	96	NA	346.865132404	0	0.75	6.11	1	329.478054989	329.481976298001	"18"	12546.189654667	12543.307392331	1.5	0.1
0.01	1	0.151573614999506	1	96	NA	346.865132404	0	0.75	6.11	1	329.711777099001	329.863350714	"18"	12546.189654667	12543.307392331	1.5	0.1
0.01	1	0.00361746100134042	1	96	NA	346.865132404	0	0.75	6.11	1	330.095836398999	330.099453860001	"18"	12546.189654667	12543.307392331	1.5	0.1
0.01	1	0.00385429800007842	1	96	NA	346.865132404	0	0.75	6.11	1	330.329686112	330.33354041	"18"	12546.189654667	12543.307392331	1.5	0.1
0.01	1	0.00387929399948916	1	96	NA	346.865132404	0	0.75	6.11	1	330.563311022001	330.567190316	"18"	12546.189654667	12543.307392331	1.5	0.1
0.01	1	0.10603059999994	1	96	NA	346.865132404	0	0.75	6.11	1	330.797012889001	330.903043489001	"18"	12546.189654667	12543.307392331	1.5	0.1
0.01	1	0.00266912799997954	1	96	NA	346.865132404	0	0.75	6.11	1	331.130985964001	331.133655092	"18"	12546.189654667	12543.307392331	1.5	0.1
0.01	1	0.00207991200113611	1	96	NA	346.865132404	0	0.75	6.11	1	331.364656338999	331.366736251	"18"	12546.189654667	12543.307392331	1.5	0.1
0.01	1	0.121122874999855	1	96	NA	346.865132404	0	0.75	6.11	1	331.598377044	331.719499919	"18"	12546.189654667	12543.307392331	1.5	0.1
0.01	1	0.00389795399860304	1	96	NA	346.865132404	0	0.75	6.11	1	331.948925332001	331.952823285999	"18"	12546.189654667	12543.307392331	1.5	0.1
0.01	1	0.216594194998834	1	96	NA	346.865132404	0	0.75	6.11	1	332.182598932	332.399193126999	"18"	12546.189654667	12543.307392331	1.5	0.1
0.01	1	0.061500325000452	1	96	NA	346.865132404	0	0.75	6.11	1	332.633438102001	332.694938427001	"18"	12546.189654667	12543.307392331	1.5	0.1
0.01	1	0.00433688600060123	1	96	NA	346.865132404	0	0.75	6.11	1	332.917218750999	332.921555637	"18"	12546.189654667	12543.307392331	1.5	0.1
0.01	1	0.0714589359995443	1	96	NA	346.865132404	0	0.75	6.11	1	333.150974684	333.22243362	"18"	12546.189654667	12543.307392331	1.5	0.1
0.01	1	0.107602333000614	1	96	NA	346.865132404	0	0.75	6.11	1	333.451369909	333.558972242001	"18"	12546.189654667	12543.307392331	1.5	0.1
0.01	1	0.0045542400002887	1	96	NA	346.865132404	0	0.75	6.11	1	333.785350112001	333.789904352001	"18"	12546.189654667	12543.307392331	1.5	0.1
0.01	1	0.251308191000135	1	96	NA	346.865132404	0	0.75	6.11	1	334.019133367001	334.270441558001	"18"	12546.189654667	12543.307392331	1.5	0.1
0.01	1	0.103377459001422	1	96	NA	346.865132404	0	0.75	6.11	1	334.503214977	334.606592436001	"18"	12546.189654667	12543.307392331	1.5	0.1
0.01	1	0.0732629270005418	1	96	NA	346.865132404	0	0.75	6.11	1	334.837072591999	334.910335519	"18"	12546.189654667	12543.307392331	1.5	0.1
0.01	1	0.00453286999982083	1	96	NA	346.865132404	0	0.75	6.11	1	335.137715502	335.142248372	"18"	12546.189654667	12543.307392331	1.5	0.1
0.01	1	0.0429337650002708	1	96	NA	346.865132404	0	0.75	6.11	1	335.371420562	335.414354327	"18"	12546.189654667	12543.307392331	1.5	0.1
0.01	1	0.00450808200002939	1	96	NA	346.865132404	0	0.75	6.11	1	335.638465706999	335.642973788999	"18"	12546.189654667	12543.307392331	1.5	0.1
0.01	1	0.0553239719993144	1	96	NA	346.865132404	0	0.75	6.11	1	335.872169624001	335.927493596	"18"	12546.189654667	12543.307392331	1.5	0.1
0.01	1	0.0038458939998236	1	96	NA	346.865132404	0	0.75	6.11	1	336.155917104001	336.159762998001	"18"	12546.189654667	12543.307392331	1.5	0.1
0.01	1	0.0406014979998872	1	96	NA	346.865132404	0	0.75	6.11	1	336.389769959	336.430371457	"18"	12546.189654667	12543.307392331	1.5	0.1
0.01	1	0.00449960700098018	1	96	NA	346.865132404	0	0.75	6.11	1	336.656881092	336.661380699001	"18"	12546.189654667	12543.307392331	1.5	0.1
0.01	1	0.0370063650007069	1	96	NA	346.865132404	0	0.75	6.11	1	336.890554972	336.927561337001	"18"	12546.189654667	12543.307392331	1.5	0.1
0.01	1	0.00197962400125107	1	96	NA	346.865132404	0	0.75	6.11	1	337.157658669999	337.159638294001	"18"	12546.189654667	12543.307392331	1.5	0.1
0.01	1	0.0642542590012454	1	96	NA	346.865132404	0	0.75	6.11	1	337.391403029	337.455657288001	"18"	12546.189654667	12543.307392331	1.5	0.1
0.01	1	0.00375209300000279	1	96	NA	346.865132404	0	0.75	6.11	1	337.691888279	337.695640372	"18"	12546.189654667	12543.307392331	1.5	0.1
0.01	1	0.0499532049998379	1	96	NA	346.865132404	0	0.75	6.11	1	337.925626032	337.975579237	"18"	12546.189654667	12543.307392331	1.5	0.1
0.01	1	0.00457233499946597	1	96	NA	346.865132404	0	0.75	6.11	1	338.209511942001	338.214084277	"18"	12546.189654667	12543.307392331	1.5	0.1
0.01	1	0.0600765969993518	1	96	NA	346.865132404	0	0.75	6.11	1	338.443127081	338.503203677999	"18"	12546.189654667	12543.307392331	1.5	0.1
0.01	1	0.00391591599873209	1	96	NA	346.865132404	0	0.75	6.11	1	338.727092122001	338.731008037999	"18"	12546.189654667	12543.307392331	1.5	0.1
0.01	1	0.0541619250016083	1	96	NA	346.865132404	0	0.75	6.11	1	338.960645028999	339.014806954001	"18"	12546.189654667	12543.307392331	1.5	0.1
0.01	1	0.00464864700006729	1	96	NA	346.865132404	0	0.75	6.11	1	339.244563897	339.249212544	"18"	12546.189654667	12543.307392331	1.5	0.1
0.01	1	0.0490298210006586	1	96	NA	346.865132404	0	0.75	6.11	1	339.478227557	339.527257378	"18"	12546.189654667	12543.307392331	1.5	0.1
0.01	1	0.00459505000071658	1	96	NA	346.865132404	0	0.75	6.11	1	339.762099607	339.766694657001	"18"	12546.189654667	12543.307392331	1.5	0.1
0.01	1	0.0502710019991355	1	96	NA	346.865132404	0	0.75	6.11	1	339.995758712001	340.046029714	"18"	12546.189654667	12543.307392331	1.5	0.1
0.01	1	0.00217728099960368	1	96	NA	346.865132404	0	0.75	6.11	1	340.279560236	340.281737517	"18"	12546.189654667	12543.307392331	1.5	0.1
0.01	1	0.0863926629990601	1	96	NA	346.865132404	0	0.75	6.11	1	340.513237557001	340.59963022	"18"	12546.189654667	12543.307392331	1.5	0.1
0.01	1	0.00206120599978021	1	96	NA	346.865132404	0	0.75	6.11	1	340.830544281	340.832605486999	"18"	12546.189654667	12543.307392331	1.5	0.1
0.01	1	0.0786432570002944	1	96	NA	346.865132404	0	0.75	6.11	1	341.064248137	341.142891394	"18"	12546.189654667	12543.307392331	1.5	0.1
