"payoff.level"	"balloon"	"rt"	"resp"	"explode.trial"	"explode.time"	"finish.time"	"exploded"	"trial.total"	"cumulative.total"	"finished"	"trial.start"	"trial.end"	"trial.num"	"secs"	"start.time"	"iti"	"isi"
0.01	1	2.00767826999981	1	64	NA	31.7907853930001	0	0.5	0.5	1	0.0134398139998666	2.02111808399968	"1"	5457.329671739	5452.204085011	1.5	0.1
0.01	1	0.639894789999744	1	64	NA	31.7907853930001	0	0.5	0.5	1	2.31742632199985	2.95732111199959	"1"	5457.329671739	5452.204085011	1.5	0.1
0.01	1	0.307980571999906	1	64	NA	31.7907853930001	0	0.5	0.5	1	3.18553316999987	3.49351374199978	"1"	5457.329671739	5452.204085011	1.5	0.1
0.01	1	0.253989648999777	1	64	NA	31.7907853930001	0	0.5	0.5	1	3.71982246500011	3.97381211399988	"1"	5457.329671739	5452.204085011	1.5	0.1
0.01	1	0.297463001999859	1	64	NA	31.7907853930001	0	0.5	0.5	1	4.20392056499986	4.50138356699972	"1"	5457.329671739	5452.204085011	1.5	0.1
0.01	1	0.244511383999452	1	64	NA	31.7907853930001	0	0.5	0.5	1	4.73807151500023	4.98258289899968	"1"	5457.329671739	5452.204085011	1.5	0.1
0.01	1	0.344100430000253	1	64	NA	31.7907853930001	0	0.5	0.5	1	5.20548534499994	5.5495857750002	"1"	5457.329671739	5452.204085011	1.5	0.1
0.01	1	0.239800887000456	1	64	NA	31.7907853930001	0	0.5	0.5	1	5.7731490569995	6.01294994399996	"1"	5457.329671739	5452.204085011	1.5	0.1
0.01	1	0.236572773999796	1	64	NA	31.7907853930001	0	0.5	0.5	1	6.24059767499966	6.47717044899946	"1"	5457.329671739	5452.204085011	1.5	0.1
0.01	1	0.20130612399953	1	64	NA	31.7907853930001	0	0.5	0.5	1	6.70811266500004	6.90941878899957	"1"	5457.329671739	5452.204085011	1.5	0.1
0.01	1	0.159213803000057	1	64	NA	31.7907853930001	0	0.5	0.5	1	7.1422379149999	7.30145171799995	"1"	5457.329671739	5452.204085011	1.5	0.1
0.01	1	0.200333988000239	1	64	NA	31.7907853930001	0	0.5	0.5	1	7.52618527699997	7.72651926500021	"1"	5457.329671739	5452.204085011	1.5	0.1
0.01	1	0.244795352000438	1	64	NA	31.7907853930001	0	0.5	0.5	1	7.96018096999978	8.20497632200022	"1"	5457.329671739	5452.204085011	1.5	0.1
0.01	1	0.218231040000319	1	64	NA	31.7907853930001	0	0.5	0.5	1	8.42771572499987	8.64594676500019	"1"	5457.329671739	5452.204085011	1.5	0.1
0.01	1	0.208408222999424	1	64	NA	31.7907853930001	0	0.5	0.5	1	8.87838888500028	9.0867971079997	"1"	5457.329671739	5452.204085011	1.5	0.1
0.01	1	0.220551536999665	1	64	NA	31.7907853930001	0	0.5	0.5	1	9.31249834000027	9.53304987699994	"1"	5457.329671739	5452.204085011	1.5	0.1
0.01	1	0.851021600000422	1	64	NA	31.7907853930001	0	0.5	0.5	1	9.76330334999966	10.6143249500001	"1"	5457.329671739	5452.204085011	1.5	0.1
0.01	1	0.269719685000382	1	64	NA	31.7907853930001	0	0.5	0.5	1	10.8483469169996	11.118066602	"1"	5457.329671739	5452.204085011	1.5	0.1
0.01	1	0.408046321000256	1	64	NA	31.7907853930001	0	0.5	0.5	1	11.3492192849999	11.7572656060001	"1"	5457.329671739	5452.204085011	1.5	0.1
0.01	1	0.606835190999846	1	64	NA	31.7907853930001	0	0.5	0.5	1	11.983639475	12.5904746659999	"1"	5457.329671739	5452.204085011	1.5	0.1
0.01	1	3.05951398199977	1	64	NA	31.7907853930001	0	0.5	0.5	1	12.8184071180003	15.8779211000001	"1"	5457.329671739	5452.204085011	1.5	0.1
0.01	1	0.362964263000322	1	64	NA	31.7907853930001	0	0.5	0.5	1	16.1072735019998	16.4702377650001	"1"	5457.329671739	5452.204085011	1.5	0.1
0.01	1	0.345183940000425	1	64	NA	31.7907853930001	0	0.5	0.5	1	16.7083580769995	17.0535420169999	"1"	5457.329671739	5452.204085011	1.5	0.1
0.01	1	0.258140158999595	1	64	NA	31.7907853930001	0	0.5	0.5	1	17.2759538600003	17.5340940189999	"1"	5457.329671739	5452.204085011	1.5	0.1
0.01	1	0.229306982999333	1	64	NA	31.7907853930001	0	0.5	0.5	1	17.7600894070001	17.9893963899995	"1"	5457.329671739	5452.204085011	1.5	0.1
0.01	1	0.322992460999558	1	64	NA	31.7907853930001	0	0.5	0.5	1	18.227432267	18.5504247279996	"1"	5457.329671739	5452.204085011	1.5	0.1
0.01	1	0.0512372929997582	1	64	NA	31.7907853930001	0	0.5	0.5	1	18.7784015950001	18.8296388879999	"1"	5457.329671739	5452.204085011	1.5	0.1
0.01	1	0.0243951960001141	1	64	NA	31.7907853930001	0	0.5	0.5	1	19.0622504319999	19.086645628	"1"	5457.329671739	5452.204085011	1.5	0.1
0.01	1	0.756400690999726	1	64	NA	31.7907853930001	0	0.5	0.5	1	19.3126481549998	20.0690488459995	"1"	5457.329671739	5452.204085011	1.5	0.1
0.01	1	0.0595451330000287	1	64	NA	31.7907853930001	0	0.5	0.5	1	20.2976189849996	20.3571641179997	"1"	5457.329671739	5452.204085011	1.5	0.1
0.01	1	0.0872197369999412	1	64	NA	31.7907853930001	0	0.5	0.5	1	20.5982033199998	20.6854230569998	"1"	5457.329671739	5452.204085011	1.5	0.1
0.01	1	0.0586832929993761	1	64	NA	31.7907853930001	0	0.5	0.5	1	20.9152572900002	20.9739405829996	"1"	5457.329671739	5452.204085011	1.5	0.1
0.01	1	0.406794964000255	1	64	NA	31.7907853930001	0	0.5	0.5	1	21.1992558749998	21.6060508390001	"1"	5457.329671739	5452.204085011	1.5	0.1
0.01	1	0.0688799179997659	1	64	NA	31.7907853930001	0	0.5	0.5	1	21.8336062620001	21.9024861799999	"1"	5457.329671739	5452.204085011	1.5	0.1
0.01	1	0.320449140000164	1	64	NA	31.7907853930001	0	0.5	0.5	1	22.1340789469996	22.4545280869997	"1"	5457.329671739	5452.204085011	1.5	0.1
0.01	1	0.216038606999973	1	64	NA	31.7907853930001	0	0.5	0.5	1	22.6850354669996	22.9010740739996	"1"	5457.329671739	5452.204085011	1.5	0.1
0.01	1	0.222080548999656	1	64	NA	31.7907853930001	0	0.5	0.5	1	23.1357824349998	23.3578629839994	"1"	5457.329671739	5452.204085011	1.5	0.1
0.01	1	0.2104217720007	1	64	NA	31.7907853930001	0	0.5	0.5	1	23.5864639499996	23.7968857220003	"1"	5457.329671739	5452.204085011	1.5	0.1
0.01	1	0.169539172999976	1	64	NA	31.7907853930001	0	0.5	0.5	1	24.037312505	24.206851678	"1"	5457.329671739	5452.204085011	1.5	0.1
0.01	1	0.191151914999864	1	64	NA	31.7907853930001	0	0.5	0.5	1	24.4379942019996	24.6291461169994	"1"	5457.329671739	5452.204085011	1.5	0.1
0.01	1	0.446716622000167	1	64	NA	31.7907853930001	0	0.5	0.5	1	24.8553322569996	25.3020488789998	"1"	5457.329671739	5452.204085011	1.5	0.1
0.01	1	0.353876050999133	1	64	NA	31.7907853930001	0	0.5	0.5	1	25.5398388880003	25.8937149389994	"1"	5457.329671739	5452.204085011	1.5	0.1
0.01	1	0.369363439000153	1	64	NA	31.7907853930001	0	0.5	0.5	1	26.1240553070002	26.4934187460003	"1"	5457.329671739	5452.204085011	1.5	0.1
0.01	1	0.424005851999937	1	64	NA	31.7907853930001	0	0.5	0.5	1	26.7250721700002	27.1490780220001	"1"	5457.329671739	5452.204085011	1.5	0.1
0.01	1	0.381397486999958	1	64	NA	31.7907853930001	0	0.5	0.5	1	27.3761585269995	27.7575560139994	"1"	5457.329671739	5452.204085011	1.5	0.1
0.01	1	0.340319732999887	1	64	NA	31.7907853930001	0	0.5	0.5	1	27.9939928470003	28.3343125800002	"1"	5457.329671739	5452.204085011	1.5	0.1
0.01	1	0.507789397000124	1	64	NA	31.7907853930001	0	0.5	0.5	1	28.5614827859999	29.0692721830001	"1"	5457.329671739	5452.204085011	1.5	0.1
0.01	1	0.357975918999728	1	64	NA	31.7907853930001	0	0.5	0.5	1	29.2961259599997	29.6541018789994	"1"	5457.329671739	5452.204085011	1.5	0.1
0.01	1	0.404744687000857	1	64	NA	31.7907853930001	0	0.5	0.5	1	29.8804272749994	30.2851719620003	"1"	5457.329671739	5452.204085011	1.5	0.1
0.01	1	0.314720462999503	1	64	NA	31.7907853930001	0	0.5	0.5	1	30.514799945	30.8295204079996	"1"	5457.329671739	5452.204085011	1.5	0.1
0.01	1	0.723236853000344	2	64	NA	31.7907853930001	0	0.5	0.5	1	31.0657966369999	31.7890334900003	"1"	5457.329671739	5452.204085011	1.5	0.1
0.01	1	2.77869844799989	1	102	NA	49.0088047889994	0	0.27	0.77	1	33.8203745499995	36.5990729979994	"2"	5457.329671739	5452.204085011	1.5	0.1
0.01	1	0.100509567000699	1	102	NA	49.0088047889994	0	0.27	0.77	1	36.8254957749996	36.9260053420003	"2"	5457.329671739	5452.204085011	1.5	0.1
0.01	1	0.0954202450002413	1	102	NA	49.0088047889994	0	0.27	0.77	1	37.159338212	37.2547584570002	"2"	5457.329671739	5452.204085011	1.5	0.1
0.01	1	0.305722756999785	1	102	NA	49.0088047889994	0	0.27	0.77	1	37.4932425070001	37.7989652639999	"2"	5457.329671739	5452.204085011	1.5	0.1
0.01	1	0.130391435999627	1	102	NA	49.0088047889994	0	0.27	0.77	1	38.027493482	38.1578849179996	"2"	5457.329671739	5452.204085011	1.5	0.1
0.01	1	0.163132753999889	1	102	NA	49.0088047889994	0	0.27	0.77	1	38.39477584	38.5579085939999	"2"	5457.329671739	5452.204085011	1.5	0.1
0.01	1	0.130126250000103	1	102	NA	49.0088047889994	0	0.27	0.77	1	38.7954737419996	38.9255999919997	"2"	5457.329671739	5452.204085011	1.5	0.1
0.01	1	0.19567845399979	1	102	NA	49.0088047889994	0	0.27	0.77	1	39.1627526849998	39.3584311389995	"2"	5457.329671739	5452.204085011	1.5	0.1
0.01	1	0.192856863999623	1	102	NA	49.0088047889994	0	0.27	0.77	1	39.5967641050001	39.7896209689998	"2"	5457.329671739	5452.204085011	1.5	0.1
0.01	1	0.183887271999993	1	102	NA	49.0088047889994	0	0.27	0.77	1	40.030812987	40.214700259	"2"	5457.329671739	5452.204085011	1.5	0.1
0.01	1	0.086980408999807	1	102	NA	49.0088047889994	0	0.27	0.77	1	40.4481942900002	40.535174699	"2"	5457.329671739	5452.204085011	1.5	0.1
0.01	1	0.120268243999817	1	102	NA	49.0088047889994	0	0.27	0.77	1	40.7654046099997	40.8856728539995	"2"	5457.329671739	5452.204085011	1.5	0.1
0.01	1	0.170472212999812	1	102	NA	49.0088047889994	0	0.27	0.77	1	41.1159651850003	41.2864373980001	"2"	5457.329671739	5452.204085011	1.5	0.1
0.01	1	0.184957263999422	1	102	NA	49.0088047889994	0	0.27	0.77	1	41.5166663760001	41.7016236399995	"2"	5457.329671739	5452.204085011	1.5	0.1
0.01	1	0.319843143000071	1	102	NA	49.0088047889994	0	0.27	0.77	1	41.934055445	42.2538985880001	"2"	5457.329671739	5452.204085011	1.5	0.1
0.01	1	0.0651295170000594	1	102	NA	49.0088047889994	0	0.27	0.77	1	42.4849439549998	42.5500734719999	"2"	5457.329671739	5452.204085011	1.5	0.1
0.01	1	0.387872488999164	1	102	NA	49.0088047889994	0	0.27	0.77	1	42.7855069320003	43.1733794209995	"2"	5457.329671739	5452.204085011	1.5	0.1
0.01	1	0.194531275000372	1	102	NA	49.0088047889994	0	0.27	0.77	1	43.4031425499998	43.5976738250001	"2"	5457.329671739	5452.204085011	1.5	0.1
0.01	1	0.240576760999829	1	102	NA	49.0088047889994	0	0.27	0.77	1	43.8371670850001	44.077743846	"2"	5457.329671739	5452.204085011	1.5	0.1
0.01	1	1.19000259399945	1	102	NA	49.0088047889994	0	0.27	0.77	1	44.3047770900002	45.4947796839997	"2"	5457.329671739	5452.204085011	1.5	0.1
0.01	1	0.0900911700000506	1	102	NA	49.0088047889994	0	0.27	0.77	1	45.7237515819997	45.8138427519998	"2"	5457.329671739	5452.204085011	1.5	0.1
0.01	1	0.0780716629997187	1	102	NA	49.0088047889994	0	0.27	0.77	1	46.0410117769998	46.1190834399995	"2"	5457.329671739	5452.204085011	1.5	0.1
0.01	1	0.0329390449996936	1	102	NA	49.0088047889994	0	0.27	0.77	1	46.3413838500001	46.3743228949998	"2"	5457.329671739	5452.204085011	1.5	0.1
0.01	1	0.365355576999718	1	102	NA	49.0088047889994	0	0.27	0.77	1	46.6085196060003	46.973875183	"2"	5457.329671739	5452.204085011	1.5	0.1
0.01	1	0.180348565999338	1	102	NA	49.0088047889994	0	0.27	0.77	1	47.2096266170001	47.3899751829995	"2"	5457.329671739	5452.204085011	1.5	0.1
0.01	1	0.0750319270000546	1	102	NA	49.0088047889994	0	0.27	0.77	1	47.6270057350002	47.7020376620003	"2"	5457.329671739	5452.204085011	1.5	0.1
0.01	1	0.14388284800043	1	102	NA	49.0088047889994	0	0.27	0.77	1	47.9274058649999	48.0712887130003	"2"	5457.329671739	5452.204085011	1.5	0.1
0.01	1	0.712426713000241	2	102	NA	49.0088047889994	0	0.27	0.77	1	48.2947678219998	49.0071945350001	"2"	5457.329671739	5452.204085011	1.5	0.1
0.01	1	1.31770041199979	1	97	NA	71.3762805609995	0	0.44	1.21	1	51.0493350699999	52.3670354819997	"3"	5457.329671739	5452.204085011	1.5	0.1
0.01	1	0.092121460999806	1	97	NA	71.3762805609995	0	0.44	1.21	1	52.6019565469996	52.6940780079995	"3"	5457.329671739	5452.204085011	1.5	0.1
0.01	1	0.134440934999475	1	97	NA	71.3762805609995	0	0.44	1.21	1	52.9192297449999	53.0536706799994	"3"	5457.329671739	5452.204085011	1.5	0.1
0.01	1	0.151012323000032	1	97	NA	71.3762805609995	0	0.44	1.21	1	53.286487585	53.4374999080001	"3"	5457.329671739	5452.204085011	1.5	0.1
0.01	1	0.144282037999801	1	97	NA	71.3762805609995	0	0.44	1.21	1	53.6704086700001	53.8146907079999	"3"	5457.329671739	5452.204085011	1.5	0.1
0.01	1	0.145032581999658	1	97	NA	71.3762805609995	0	0.44	1.21	1	54.0377408849999	54.1827734669996	"3"	5457.329671739	5452.204085011	1.5	0.1
0.01	1	0.105653070000699	1	97	NA	71.3762805609995	0	0.44	1.21	1	54.4050304579996	54.5106835280003	"3"	5457.329671739	5452.204085011	1.5	0.1
0.01	1	0.13096111699997	1	97	NA	71.3762805609995	0	0.44	1.21	1	54.7389705269998	54.8699316439997	"3"	5457.329671739	5452.204085011	1.5	0.1
0.01	1	0.0917337560003944	1	97	NA	71.3762805609995	0	0.44	1.21	1	55.1062934149995	55.1980271709999	"3"	5457.329671739	5452.204085011	1.5	0.1
0.01	1	0.12660717000017	1	97	NA	71.3762805609995	0	0.44	1.21	1	55.4233474619996	55.5499546319998	"3"	5457.329671739	5452.204085011	1.5	0.1
0.01	1	0.0879120909994526	1	97	NA	71.3762805609995	0	0.44	1.21	1	55.7739624770002	55.8618745679996	"3"	5457.329671739	5452.204085011	1.5	0.1
0.01	1	0.0755927830005021	1	97	NA	71.3762805609995	0	0.44	1.21	1	56.0911013169998	56.1666941000003	"3"	5457.329671739	5452.204085011	1.5	0.1
0.01	1	0.126763640000718	1	97	NA	71.3762805609995	0	0.44	1.21	1	56.3916782569995	56.5184418970002	"3"	5457.329671739	5452.204085011	1.5	0.1
0.01	1	0.0874244780006848	1	97	NA	71.3762805609995	0	0.44	1.21	1	56.7422714799995	56.8296959580002	"3"	5457.329671739	5452.204085011	1.5	0.1
0.01	1	0.0750688889993398	1	97	NA	71.3762805609995	0	0.44	1.21	1	57.0595297150003	57.1345986039996	"3"	5457.329671739	5452.204085011	1.5	0.1
0.01	1	0.374517604000175	1	97	NA	71.3762805609995	0	0.44	1.21	1	57.360073545	57.7345911490002	"3"	5457.329671739	5452.204085011	1.5	0.1
0.01	1	0.0605496669995773	1	97	NA	71.3762805609995	0	0.44	1.21	1	57.9610348050001	58.0215844719996	"3"	5457.329671739	5452.204085011	1.5	0.1
0.01	1	0.0825072880006701	1	97	NA	71.3762805609995	0	0.44	1.21	1	58.2447690399995	58.3272763280002	"3"	5457.329671739	5452.204085011	1.5	0.1
0.01	1	0.0834906150003007	1	97	NA	71.3762805609995	0	0.44	1.21	1	58.5620240399994	58.6455146549997	"3"	5457.329671739	5452.204085011	1.5	0.1
0.01	1	0.103876109999874	1	97	NA	71.3762805609995	0	0.44	1.21	1	58.8792482600002	58.98312437	"3"	5457.329671739	5452.204085011	1.5	0.1
0.01	1	0.0722450889998072	1	97	NA	71.3762805609995	0	0.44	1.21	1	59.2131813449996	59.2854264339994	"3"	5457.329671739	5452.204085011	1.5	0.1
0.01	1	0.205236670999511	1	97	NA	71.3762805609995	0	0.44	1.21	1	59.5135936870001	59.7188303579997	"3"	5457.329671739	5452.204085011	1.5	0.1
0.01	1	0.243751819999488	1	97	NA	71.3762805609995	0	0.44	1.21	1	59.9476374750002	60.1913892949997	"3"	5457.329671739	5452.204085011	1.5	0.1
0.01	1	0.0958886389998952	1	97	NA	71.3762805609995	0	0.44	1.21	1	60.4151696150002	60.5110582540001	"3"	5457.329671739	5452.204085011	1.5	0.1
0.01	1	0.929479273000652	1	97	NA	71.3762805609995	0	0.44	1.21	1	60.7490239849994	61.6785032580001	"3"	5457.329671739	5452.204085011	1.5	0.1
0.01	1	0.143631912000274	1	97	NA	71.3762805609995	0	0.44	1.21	1	61.9177136349999	62.0613455470002	"3"	5457.329671739	5452.204085011	1.5	0.1
0.01	1	0.458389501000056	1	97	NA	71.3762805609995	0	0.44	1.21	1	62.2849793899995	62.7433688909996	"3"	5457.329671739	5452.204085011	1.5	0.1
0.01	1	0.244217925000157	1	97	NA	71.3762805609995	0	0.44	1.21	1	62.9693466489998	63.213564574	"3"	5457.329671739	5452.204085011	1.5	0.1
0.01	1	0.233966972999951	1	97	NA	71.3762805609995	0	0.44	1.21	1	63.4368298600002	63.6707968330002	"3"	5457.329671739	5452.204085011	1.5	0.1
0.01	1	0.349189482999464	1	97	NA	71.3762805609995	0	0.44	1.21	1	63.90437587	64.2535653529994	"3"	5457.329671739	5452.204085011	1.5	0.1
0.01	1	0.341476104000321	1	97	NA	71.3762805609995	0	0.44	1.21	1	64.4885908649994	64.8300669689997	"3"	5457.329671739	5452.204085011	1.5	0.1
0.01	1	0.310976205999395	1	97	NA	71.3762805609995	0	0.44	1.21	1	65.0562304570003	65.3672066629997	"3"	5457.329671739	5452.204085011	1.5	0.1
0.01	1	0.215529664999849	1	97	NA	71.3762805609995	0	0.44	1.21	1	65.6072030670002	65.8227327320001	"3"	5457.329671739	5452.204085011	1.5	0.1
0.01	1	0.196534462999807	1	97	NA	71.3762805609995	0	0.44	1.21	1	66.0579940070002	66.25452847	"3"	5457.329671739	5452.204085011	1.5	0.1
0.01	1	0.0665664380003363	1	97	NA	71.3762805609995	0	0.44	1.21	1	66.4919439449995	66.5585103829999	"3"	5457.329671739	5452.204085011	1.5	0.1
0.01	1	0.589167789999919	1	97	NA	71.3762805609995	0	0.44	1.21	1	66.7925799650002	67.3817477550001	"3"	5457.329671739	5452.204085011	1.5	0.1
0.01	1	0.234709184000167	1	97	NA	71.3762805609995	0	0.44	1.21	1	67.6105663099997	67.8452754939999	"3"	5457.329671739	5452.204085011	1.5	0.1
0.01	1	0.0727181160000328	1	97	NA	71.3762805609995	0	0.44	1.21	1	68.0781026349996	68.1508207509996	"3"	5457.329671739	5452.204085011	1.5	0.1
0.01	1	0.123639825999817	1	97	NA	71.3762805609995	0	0.44	1.21	1	68.3787106700001	68.502350496	"3"	5457.329671739	5452.204085011	1.5	0.1
0.01	1	0.093578785000318	1	97	NA	71.3762805609995	0	0.44	1.21	1	68.7291892799994	68.8227680649998	"3"	5457.329671739	5452.204085011	1.5	0.1
0.01	1	0.110752024000249	1	97	NA	71.3762805609995	0	0.44	1.21	1	69.0630250499999	69.1737770740001	"3"	5457.329671739	5452.204085011	1.5	0.1
0.01	1	0.106246706000093	1	97	NA	71.3762805609995	0	0.44	1.21	1	69.3969427699994	69.5031894759995	"3"	5457.329671739	5452.204085011	1.5	0.1
0.01	1	0.194879352000498	1	97	NA	71.3762805609995	0	0.44	1.21	1	69.7308292449998	69.9257085970003	"3"	5457.329671739	5452.204085011	1.5	0.1
0.01	1	0.322500949999267	1	97	NA	71.3762805609995	0	0.44	1.21	1	70.1481897550002	70.4706907049995	"3"	5457.329671739	5452.204085011	1.5	0.1
0.01	1	0.675567776000207	2	97	NA	71.3762805609995	0	0.44	1.21	1	70.6991372419998	71.374705018	"3"	5457.329671739	5452.204085011	1.5	0.1
0.01	1	0.73787515999993	1	51	88.8670077669994	NA	1	0	1.21	1	73.4203444519999	74.1582196119998	"4"	5457.329671739	5452.204085011	1.5	0.1
0.01	1	0.1381525350007	1	51	88.8670077669994	NA	1	0	1.21	1	74.3886362699996	74.5267888050003	"4"	5457.329671739	5452.204085011	1.5	0.1
0.01	1	0.06544365299942	1	51	88.8670077669994	NA	1	0	1.21	1	74.7559256670002	74.8213693199996	"4"	5457.329671739	5452.204085011	1.5	0.1
0.01	1	0.00725323499955266	1	51	88.8670077669994	NA	1	0	1.21	1	75.0563803750001	75.0636336099997	"4"	5457.329671739	5452.204085011	1.5	0.1
0.01	1	0.02841535799962	1	51	88.8670077669994	NA	1	0	1.21	1	75.290131707	75.3185470649996	"4"	5457.329671739	5452.204085011	1.5	0.1
0.01	1	0.0490178909994938	1	51	88.8670077669994	NA	1	0	1.21	1	75.5405316320002	75.5895495229997	"4"	5457.329671739	5452.204085011	1.5	0.1
0.01	1	0.00388256299993373	1	51	88.8670077669994	NA	1	0	1.21	1	75.8243180649997	75.8282006279996	"4"	5457.329671739	5452.204085011	1.5	0.1
0.01	1	0.00395262699930754	1	51	88.8670077669994	NA	1	0	1.21	1	76.0580798350002	76.0620324619995	"4"	5457.329671739	5452.204085011	1.5	0.1
0.01	1	0.00393024599998171	1	51	88.8670077669994	NA	1	0	1.21	1	76.2918545800003	76.2957848260003	"4"	5457.329671739	5452.204085011	1.5	0.1
0.01	1	0.104918095999892	1	51	88.8670077669994	NA	1	0	1.21	1	76.5255579819996	76.6304760779994	"4"	5457.329671739	5452.204085011	1.5	0.1
0.01	1	0.00345973999992566	1	51	88.8670077669994	NA	1	0	1.21	1	76.8595315599996	76.8629912999995	"4"	5457.329671739	5452.204085011	1.5	0.1
0.01	1	0.105786580999848	1	51	88.8670077669994	NA	1	0	1.21	1	77.0931979469997	77.1989845279995	"4"	5457.329671739	5452.204085011	1.5	0.1
0.01	1	0.00216340800034232	1	51	88.8670077669994	NA	1	0	1.21	1	77.4269854989998	77.4291489070001	"4"	5457.329671739	5452.204085011	1.5	0.1
0.01	1	0.129071346999808	1	51	88.8670077669994	NA	1	0	1.21	1	77.660812262	77.7898836089998	"4"	5457.329671739	5452.204085011	1.5	0.1
0.01	1	0.00208830199971999	1	51	88.8670077669994	NA	1	0	1.21	1	78.0280841539998	78.0301724559995	"4"	5457.329671739	5452.204085011	1.5	0.1
0.01	1	0.103632592999929	1	51	88.8670077669994	NA	1	0	1.21	1	78.2618583020003	78.3654908950002	"4"	5457.329671739	5452.204085011	1.5	0.1
0.01	1	0.00407369799995649	1	51	88.8670077669994	NA	1	0	1.21	1	78.5957376899996	78.5998113879996	"4"	5457.329671739	5452.204085011	1.5	0.1
0.01	1	0.0729219009999724	1	51	88.8670077669994	NA	1	0	1.21	1	78.829514557	78.902436458	"4"	5457.329671739	5452.204085011	1.5	0.1
0.01	1	0.00207448299988755	1	51	88.8670077669994	NA	1	0	1.21	1	79.1300125019998	79.1320869849997	"4"	5457.329671739	5452.204085011	1.5	0.1
0.01	1	0.00468301000000793	1	51	88.8670077669994	NA	1	0	1.21	1	79.3636928999995	79.3683759099995	"4"	5457.329671739	5452.204085011	1.5	0.1
0.01	1	0.0807488829996146	1	51	88.8670077669994	NA	1	0	1.21	1	79.5973832600002	79.6781321429999	"4"	5457.329671739	5452.204085011	1.5	0.1
0.01	1	0.00225196199971833	1	51	88.8670077669994	NA	1	0	1.21	1	79.9145462690003	79.916798231	"4"	5457.329671739	5452.204085011	1.5	0.1
0.01	1	0.00222893499994825	1	51	88.8670077669994	NA	1	0	1.21	1	80.1483407850001	80.15056972	"4"	5457.329671739	5452.204085011	1.5	0.1
0.01	1	0.103791655999885	1	51	88.8670077669994	NA	1	0	1.21	1	80.382088026	80.4858796819999	"4"	5457.329671739	5452.204085011	1.5	0.1
0.01	1	0.00206462499954796	1	51	88.8670077669994	NA	1	0	1.21	1	80.7159720039999	80.7180366289995	"4"	5457.329671739	5452.204085011	1.5	0.1
0.01	1	0.00407106199963891	1	51	88.8670077669994	NA	1	0	1.21	1	80.9496372399999	80.9537083019995	"4"	5457.329671739	5452.204085011	1.5	0.1
0.01	1	0.0779284339996593	1	51	88.8670077669994	NA	1	0	1.21	1	81.1833160149999	81.2612444489996	"4"	5457.329671739	5452.204085011	1.5	0.1
0.01	1	0.00309148399992409	1	51	88.8670077669994	NA	1	0	1.21	1	81.4838707939998	81.4869622779997	"4"	5457.329671739	5452.204085011	1.5	0.1
0.01	1	0.00209771000027104	1	51	88.8670077669994	NA	1	0	1.21	1	81.7177013299997	81.71979904	"4"	5457.329671739	5452.204085011	1.5	0.1
0.01	1	0.00473646000045846	1	51	88.8670077669994	NA	1	0	1.21	1	81.9513373849995	81.956073845	"4"	5457.329671739	5452.204085011	1.5	0.1
0.01	1	0.00211332500020944	1	51	88.8670077669994	NA	1	0	1.21	1	82.1851322550001	82.1872455800003	"4"	5457.329671739	5452.204085011	1.5	0.1
0.01	1	0.0040174420000767	1	51	88.8670077669994	NA	1	0	1.21	1	82.4187845420001	82.4228019840002	"4"	5457.329671739	5452.204085011	1.5	0.1
0.01	1	0.00205537799956801	1	51	88.8670077669994	NA	1	0	1.21	1	82.6524932880002	82.6545486659998	"4"	5457.329671739	5452.204085011	1.5	0.1
0.01	1	0.0106693959996846	1	51	88.8670077669994	NA	1	0	1.21	1	82.8862598559999	82.8969292519996	"4"	5457.329671739	5452.204085011	1.5	0.1
0.01	1	0.110680535000029	1	51	88.8670077669994	NA	1	0	1.21	1	83.1199666249995	83.2306471599995	"4"	5457.329671739	5452.204085011	1.5	0.1
0.01	1	0.088429301999895	1	51	88.8670077669994	NA	1	0	1.21	1	83.4538785770001	83.542307879	"4"	5457.329671739	5452.204085011	1.5	0.1
0.01	1	0.00349183599973912	1	51	88.8670077669994	NA	1	0	1.21	1	83.771027406	83.7745192419998	"4"	5457.329671739	5452.204085011	1.5	0.1
0.01	1	0.0651214129993605	1	51	88.8670077669994	NA	1	0	1.21	1	84.0048891850001	84.0700105979995	"4"	5457.329671739	5452.204085011	1.5	0.1
0.01	1	0.0767697600003885	1	51	88.8670077669994	NA	1	0	1.21	1	84.3054339999999	84.3822037600003	"4"	5457.329671739	5452.204085011	1.5	0.1
0.01	1	0.415737239000009	1	51	88.8670077669994	NA	1	0	1.21	1	84.6057852369995	85.0215224759995	"4"	5457.329671739	5452.204085011	1.5	0.1
0.01	1	0.0779741229998763	1	51	88.8670077669994	NA	1	0	1.21	1	85.25693606	85.3349101829999	"4"	5457.329671739	5452.204085011	1.5	0.1
0.01	1	0.089155939000193	1	51	88.8670077669994	NA	1	0	1.21	1	85.5574465179998	85.646602457	"4"	5457.329671739	5452.204085011	1.5	0.1
0.01	1	0.23591921499974	1	51	88.8670077669994	NA	1	0	1.21	1	85.87466219	86.1105814049997	"4"	5457.329671739	5452.204085011	1.5	0.1
0.01	1	0.19281402300021	1	51	88.8670077669994	NA	1	0	1.21	1	86.3421968749999	86.5350108980001	"4"	5457.329671739	5452.204085011	1.5	0.1
0.01	1	0.0939198870000837	1	51	88.8670077669994	NA	1	0	1.21	1	86.7594476249997	86.8533675119997	"4"	5457.329671739	5452.204085011	1.5	0.1
0.01	1	0.112578061999557	1	51	88.8670077669994	NA	1	0	1.21	1	87.0934234300003	87.2060014919998	"4"	5457.329671739	5452.204085011	1.5	0.1
0.01	1	0.0737235249998776	1	51	88.8670077669994	NA	1	0	1.21	1	87.4439730599997	87.5176965849996	"4"	5457.329671739	5452.204085011	1.5	0.1
0.01	1	0.0535824420003337	1	51	88.8670077669994	NA	1	0	1.21	1	87.7444326059995	87.7980150479998	"4"	5457.329671739	5452.204085011	1.5	0.1
0.01	1	0.129327071000262	1	51	88.8670077669994	NA	1	0	1.21	1	88.02826155	88.1575886210003	"4"	5457.329671739	5452.204085011	1.5	0.1
0.01	1	0.0177988100003859	1	51	88.8670077669994	NA	1	0	1.21	1	88.3956018919998	88.4134007020002	"4"	5457.329671739	5452.204085011	1.5	0.1
0.01	1	0.105081376000271	1	51	88.8670077669994	NA	1	0	1.21	1	88.6459618819999	88.7510432580002	"4"	5457.329671739	5452.204085011	1.5	0.1
0.01	1	1.34636219899949	1	116	NA	110.384127442	0	0.6	1.81	1	90.9164700350002	92.2628322339997	"5"	5457.329671739	5452.204085011	1.5	0.1
0.01	1	0.0637597960003404	1	116	NA	110.384127442	0	0.6	1.81	1	92.5023795699999	92.5661393660002	"5"	5457.329671739	5452.204085011	1.5	0.1
0.01	1	0.0599537589996544	1	116	NA	110.384127442	0	0.6	1.81	1	92.8029606600003	92.8629144189999	"5"	5457.329671739	5452.204085011	1.5	0.1
0.01	1	0.0563860510001177	1	116	NA	110.384127442	0	0.6	1.81	1	93.0866608870001	93.1430469380002	"5"	5457.329671739	5452.204085011	1.5	0.1
0.01	1	0.0932981989999462	1	116	NA	110.384127442	0	0.6	1.81	1	93.3705386399997	93.4638368389997	"5"	5457.329671739	5452.204085011	1.5	0.1
0.01	1	0.0540838819997589	1	116	NA	110.384127442	0	0.6	1.81	1	93.6878102270002	93.741894109	"5"	5457.329671739	5452.204085011	1.5	0.1
0.01	1	0.0499099380003827	1	116	NA	110.384127442	0	0.6	1.81	1	93.9716727599998	94.0215826980002	"5"	5457.329671739	5452.204085011	1.5	0.1
0.01	1	0.0708713940002781	1	116	NA	110.384127442	0	0.6	1.81	1	94.2555390799998	94.3264104740001	"5"	5457.329671739	5452.204085011	1.5	0.1
0.01	1	0.0274876869998479	1	116	NA	110.384127442	0	0.6	1.81	1	94.5559170699999	94.5834047569997	"5"	5457.329671739	5452.204085011	1.5	0.1
0.01	1	0.0159221849999085	1	116	NA	110.384127442	0	0.6	1.81	1	94.80645379	94.8223759749999	"5"	5457.329671739	5452.204085011	1.5	0.1
0.01	1	0.0466563710006085	1	116	NA	110.384127442	0	0.6	1.81	1	95.0566833149996	95.1033396860003	"5"	5457.329671739	5452.204085011	1.5	0.1
0.01	1	0.0339733709997745	1	116	NA	110.384127442	0	0.6	1.81	1	95.3405536549999	95.3745270259997	"5"	5457.329671739	5452.204085011	1.5	0.1
0.01	1	0.0142819290003899	1	116	NA	110.384127442	0	0.6	1.81	1	95.6076165019995	95.6218984309999	"5"	5457.329671739	5452.204085011	1.5	0.1
0.01	1	0.0194973199995729	1	116	NA	110.384127442	0	0.6	1.81	1	95.8580769350001	95.8775742549997	"5"	5457.329671739	5452.204085011	1.5	0.1
0.01	1	0.00988032699933683	1	116	NA	110.384127442	0	0.6	1.81	1	96.1085026370001	96.1183829639995	"5"	5457.329671739	5452.204085011	1.5	0.1
0.01	1	0.0233151470001758	1	116	NA	110.384127442	0	0.6	1.81	1	96.3422158369995	96.3655309839996	"5"	5457.329671739	5452.204085011	1.5	0.1
0.01	1	0.00717389599958551	1	116	NA	110.384127442	0	0.6	1.81	1	96.5926595820001	96.5998334779997	"5"	5457.329671739	5452.204085011	1.5	0.1
0.01	1	0.0439793839996128	1	116	NA	110.384127442	0	0.6	1.81	1	96.8264977500003	96.8704771339999	"5"	5457.329671739	5452.204085011	1.5	0.1
0.01	1	0.0319844590003413	1	116	NA	110.384127442	0	0.6	1.81	1	97.0935276159998	97.1255120750002	"5"	5457.329671739	5452.204085011	1.5	0.1
0.01	1	0.0141208090008149	1	116	NA	110.384127442	0	0.6	1.81	1	97.3605853399995	97.3747061490003	"5"	5457.329671739	5452.204085011	1.5	0.1
0.01	1	0.0509886809995805	1	116	NA	110.384127442	0	0.6	1.81	1	97.6111291360003	97.6621178169999	"5"	5457.329671739	5452.204085011	1.5	0.1
0.01	1	0.0557226749997426	1	116	NA	110.384127442	0	0.6	1.81	1	97.89486063	97.9505833049998	"5"	5457.329671739	5452.204085011	1.5	0.1
0.01	1	0.0605683029998545	1	116	NA	110.384127442	0	0.6	1.81	1	98.1786347569996	98.2392030599995	"5"	5457.329671739	5452.204085011	1.5	0.1
0.01	1	0.0141956389998086	1	116	NA	110.384127442	0	0.6	1.81	1	98.4791412699997	98.4933369089995	"5"	5457.329671739	5452.204085011	1.5	0.1
0.01	1	0.0295633719997568	1	116	NA	110.384127442	0	0.6	1.81	1	98.7295692070002	98.7591325789999	"5"	5457.329671739	5452.204085011	1.5	0.1
0.01	1	0.00959241700002167	1	116	NA	110.384127442	0	0.6	1.81	1	98.9967323049996	99.0063247219996	"5"	5457.329671739	5452.204085011	1.5	0.1
0.01	1	0.00813785500031372	1	116	NA	110.384127442	0	0.6	1.81	1	99.230476275	99.2386141300003	"5"	5457.329671739	5452.204085011	1.5	0.1
0.01	1	0.0142402660003427	1	116	NA	110.384127442	0	0.6	1.81	1	99.464210227	99.4784504930003	"5"	5457.329671739	5452.204085011	1.5	0.1
0.01	1	0.00206135999997059	1	116	NA	110.384127442	0	0.6	1.81	1	99.7146528550002	99.7167142150001	"5"	5457.329671739	5452.204085011	1.5	0.1
0.01	1	0.00210409899955266	1	116	NA	110.384127442	0	0.6	1.81	1	99.9483179050003	99.9504220039998	"5"	5457.329671739	5452.204085011	1.5	0.1
0.01	1	0.112993871000072	1	116	NA	110.384127442	0	0.6	1.81	1	100.182088595	100.295082466	"5"	5457.329671739	5452.204085011	1.5	0.1
0.01	1	0.0414213329995619	1	116	NA	110.384127442	0	0.6	1.81	1	100.532647227	100.574068559999	"5"	5457.329671739	5452.204085011	1.5	0.1
0.01	1	0.0308276679998016	1	116	NA	110.384127442	0	0.6	1.81	1	100.79966129	100.830488957999	"5"	5457.329671739	5452.204085011	1.5	0.1
0.01	1	0.0124387779997051	1	116	NA	110.384127442	0	0.6	1.81	1	101.06684385	101.079282627999	"5"	5457.329671739	5452.204085011	1.5	0.1
0.01	1	0.0179842739999003	1	116	NA	110.384127442	0	0.6	1.81	1	101.317204105	101.335188379	"5"	5457.329671739	5452.204085011	1.5	0.1
0.01	1	0.00271648899979482	1	116	NA	110.384127442	0	0.6	1.81	1	101.567642288	101.570358776999	"5"	5457.329671739	5452.204085011	1.5	0.1
0.01	1	0.0121458419998817	1	116	NA	110.384127442	0	0.6	1.81	1	101.80135822	101.813504062	"5"	5457.329671739	5452.204085011	1.5	0.1
0.01	1	0.00318589199923736	1	116	NA	110.384127442	0	0.6	1.81	1	102.051848932	102.055034823999	"5"	5457.329671739	5452.204085011	1.5	0.1
0.01	1	0.00226033800026926	1	116	NA	110.384127442	0	0.6	1.81	1	102.285578477	102.287838815	"5"	5457.329671739	5452.204085011	1.5	0.1
0.01	1	0.00402680900060659	1	116	NA	110.384127442	0	0.6	1.81	1	102.519322876999	102.523349686	"5"	5457.329671739	5452.204085011	1.5	0.1
0.01	1	0.39648545	1	116	NA	110.384127442	0	0.6	1.81	1	102.75311207	103.14959752	"5"	5457.329671739	5452.204085011	1.5	0.1
0.01	1	0.00461978499970428	1	116	NA	110.384127442	0	0.6	1.81	1	103.387474115	103.3920939	"5"	5457.329671739	5452.204085011	1.5	0.1
0.01	1	0.00219510399983847	1	116	NA	110.384127442	0	0.6	1.81	1	103.621226466	103.62342157	"5"	5457.329671739	5452.204085011	1.5	0.1
0.01	1	0.00472479500058398	1	116	NA	110.384127442	0	0.6	1.81	1	103.85487384	103.859598635	"5"	5457.329671739	5452.204085011	1.5	0.1
0.01	1	0.00213130000065576	1	116	NA	110.384127442	0	0.6	1.81	1	104.088589986	104.090721286	"5"	5457.329671739	5452.204085011	1.5	0.1
0.01	1	0.0119382450002377	1	116	NA	110.384127442	0	0.6	1.81	1	104.32234685	104.334285095	"5"	5457.329671739	5452.204085011	1.5	0.1
0.01	1	0.0257276379998075	1	116	NA	110.384127442	0	0.6	1.81	1	104.57279481	104.598522448	"5"	5457.329671739	5452.204085011	1.5	0.1
0.01	1	0.0161195020000378	1	116	NA	110.384127442	0	0.6	1.81	1	104.823204655	104.839324157	"5"	5457.329671739	5452.204085011	1.5	0.1
0.01	1	0.0138751330005107	1	116	NA	110.384127442	0	0.6	1.81	1	105.073637736999	105.08751287	"5"	5457.329671739	5452.204085011	1.5	0.1
0.01	1	0.0118040809993545	1	116	NA	110.384127442	0	0.6	1.81	1	105.323915885	105.335719965999	"5"	5457.329671739	5452.204085011	1.5	0.1
0.01	1	0.217330102000233	1	116	NA	110.384127442	0	0.6	1.81	1	105.557776582	105.775106684	"5"	5457.329671739	5452.204085011	1.5	0.1
0.01	1	0.0530703229997016	1	116	NA	110.384127442	0	0.6	1.81	1	106.008546199	106.061616522	"5"	5457.329671739	5452.204085011	1.5	0.1
0.01	1	0.00214770399998088	1	116	NA	110.384127442	0	0.6	1.81	1	106.292335362	106.294483066	"5"	5457.329671739	5452.204085011	1.5	0.1
0.01	1	0.0254263090000677	1	116	NA	110.384127442	0	0.6	1.81	1	106.525974185	106.551400494	"5"	5457.329671739	5452.204085011	1.5	0.1
0.01	1	0.0866130090007573	1	116	NA	110.384127442	0	0.6	1.81	1	106.776510915	106.863123924	"5"	5457.329671739	5452.204085011	1.5	0.1
0.01	1	0.0403090769996197	1	116	NA	110.384127442	0	0.6	1.81	1	107.09367906	107.133988137	"5"	5457.329671739	5452.204085011	1.5	0.1
0.01	1	0.126233924999724	1	116	NA	110.384127442	0	0.6	1.81	1	107.36082945	107.487063375	"5"	5457.329671739	5452.204085011	1.5	0.1
0.01	1	0.302425556999879	1	116	NA	110.384127442	0	0.6	1.81	1	107.72806339	108.030488947	"5"	5457.329671739	5452.204085011	1.5	0.1
0.01	1	0.232081933999325	1	116	NA	110.384127442	0	0.6	1.81	1	108.262277515	108.494359449	"5"	5457.329671739	5452.204085011	1.5	0.1
0.01	1	0.253094912000051	1	116	NA	110.384127442	0	0.6	1.81	1	108.72967222	108.982767132	"5"	5457.329671739	5452.204085011	1.5	0.1
0.01	1	1.1685588399996	2	116	NA	110.384127442	0	0.6	1.81	1	109.213964042	110.382522882	"5"	5457.329671739	5452.204085011	1.5	0.1
0.01	1	0.642738735000421	1	118	NA	121.440682896	0	0.33	2.14	1	112.436004675	113.07874341	"6"	5457.329671739	5452.204085011	1.5	0.1
0.01	1	0.00713254299989785	1	118	NA	121.440682896	0	0.33	2.14	1	113.304128317	113.311260859999	"6"	5457.329671739	5452.204085011	1.5	0.1
0.01	1	0.00218864100042993	1	118	NA	121.440682896	0	0.33	2.14	1	113.537921104999	113.540109746	"6"	5457.329671739	5452.204085011	1.5	0.1
0.01	1	0.00468977200034715	1	118	NA	121.440682896	0	0.33	2.14	1	113.771550345	113.776240117	"6"	5457.329671739	5452.204085011	1.5	0.1
0.01	1	0.00403965099940251	1	118	NA	121.440682896	0	0.33	2.14	1	114.005299247	114.009338897999	"6"	5457.329671739	5452.204085011	1.5	0.1
0.01	1	0.00470041799962928	1	118	NA	121.440682896	0	0.33	2.14	1	114.239179972	114.24388039	"6"	5457.329671739	5452.204085011	1.5	0.1
0.01	1	0.00409465099983208	1	118	NA	121.440682896	0	0.33	2.14	1	114.472727737	114.476822388	"6"	5457.329671739	5452.204085011	1.5	0.1
0.01	1	0.00481466000019282	1	118	NA	121.440682896	0	0.33	2.14	1	114.70654284	114.7113575	"6"	5457.329671739	5452.204085011	1.5	0.1
0.01	1	0.00390051700014737	1	118	NA	121.440682896	0	0.33	2.14	1	114.940133745	114.944034262	"6"	5457.329671739	5452.204085011	1.5	0.1
0.01	1	0.00434161999964999	1	118	NA	121.440682896	0	0.33	2.14	1	115.173952496	115.178294116	"6"	5457.329671739	5452.204085011	1.5	0.1
0.01	1	0.00397689700002957	1	118	NA	121.440682896	0	0.33	2.14	1	115.407688284999	115.411665182	"6"	5457.329671739	5452.204085011	1.5	0.1
0.01	1	0.00406926100004057	1	118	NA	121.440682896	0	0.33	2.14	1	115.641442935	115.645512196	"6"	5457.329671739	5452.204085011	1.5	0.1
0.01	1	0.00398774499990395	1	118	NA	121.440682896	0	0.33	2.14	1	115.875087157	115.879074902	"6"	5457.329671739	5452.204085011	1.5	0.1
0.01	1	0.121528918999502	1	118	NA	121.440682896	0	0.33	2.14	1	116.108852665	116.230381584	"6"	5457.329671739	5452.204085011	1.5	0.1
0.01	1	0.00408612699993682	1	118	NA	121.440682896	0	0.33	2.14	1	116.459349347	116.463435474	"6"	5457.329671739	5452.204085011	1.5	0.1
0.01	1	0.00226729499991052	1	118	NA	121.440682896	0	0.33	2.14	1	116.69310146	116.695368754999	"6"	5457.329671739	5452.204085011	1.5	0.1
0.01	1	0.0038485450004373	1	118	NA	121.440682896	0	0.33	2.14	1	116.926809377	116.930657922	"6"	5457.329671739	5452.204085011	1.5	0.1
0.01	1	0.0389016300005096	1	118	NA	121.440682896	0	0.33	2.14	1	117.16059196	117.19949359	"6"	5457.329671739	5452.204085011	1.5	0.1
0.01	1	0.00415578100000857	1	118	NA	121.440682896	0	0.33	2.14	1	117.427653857	117.431809638	"6"	5457.329671739	5452.204085011	1.5	0.1
0.01	1	0.00386478400014312	1	118	NA	121.440682896	0	0.33	2.14	1	117.66142763	117.665292414	"6"	5457.329671739	5452.204085011	1.5	0.1
0.01	1	0.00698426800045127	1	118	NA	121.440682896	0	0.33	2.14	1	117.89512847	117.902112738	"6"	5457.329671739	5452.204085011	1.5	0.1
0.01	1	0.0216479800001252	1	118	NA	121.440682896	0	0.33	2.14	1	118.12891427	118.15056225	"6"	5457.329671739	5452.204085011	1.5	0.1
0.01	1	0.0270149710004262	1	118	NA	121.440682896	0	0.33	2.14	1	118.379344747	118.406359718	"6"	5457.329671739	5452.204085011	1.5	0.1
0.01	1	0.00204991800001153	1	118	NA	121.440682896	0	0.33	2.14	1	118.629728338	118.631778256	"6"	5457.329671739	5452.204085011	1.5	0.1
0.01	1	0.0235398859995257	1	118	NA	121.440682896	0	0.33	2.14	1	118.86347648	118.887016365999	"6"	5457.329671739	5452.204085011	1.5	0.1
0.01	1	0.0685115750002296	1	118	NA	121.440682896	0	0.33	2.14	1	119.113908822	119.182420397	"6"	5457.329671739	5452.204085011	1.5	0.1
0.01	1	0.00788699399981851	1	118	NA	121.440682896	0	0.33	2.14	1	119.414487436	119.42237443	"6"	5457.329671739	5452.204085011	1.5	0.1
0.01	1	0.0293304550004905	1	118	NA	121.440682896	0	0.33	2.14	1	119.64815718	119.677487635	"6"	5457.329671739	5452.204085011	1.5	0.1
0.01	1	0.00238287800038961	1	118	NA	121.440682896	0	0.33	2.14	1	119.915246269999	119.917629148	"6"	5457.329671739	5452.204085011	1.5	0.1
0.01	1	0.08242599300047	1	118	NA	121.440682896	0	0.33	2.14	1	120.148928995	120.231354988	"6"	5457.329671739	5452.204085011	1.5	0.1
0.01	1	0.07653566999943	1	118	NA	121.440682896	0	0.33	2.14	1	120.46621226	120.54274793	"6"	5457.329671739	5452.204085011	1.5	0.1
0.01	1	0.00397148699994432	1	118	NA	121.440682896	0	0.33	2.14	1	120.766798805	120.770770292	"6"	5457.329671739	5452.204085011	1.5	0.1
0.01	1	0.0542028850004499	1	118	NA	121.440682896	0	0.33	2.14	1	121.00039864	121.054601525	"6"	5457.329671739	5452.204085011	1.5	0.1
0.01	1	0.154854256999897	2	118	NA	121.440682896	0	0.33	2.14	1	121.284271317	121.439125574	"6"	5457.329671739	5452.204085011	1.5	0.1
0.01	1	1.19059887700041	1	87	NA	136.455491304	0	0.4	2.54	1	123.487885484999	124.678484362	"7"	5457.329671739	5452.204085011	1.5	0.1
0.01	1	0.0125161749992913	1	87	NA	136.455491304	0	0.4	2.54	1	124.906882037	124.919398212	"7"	5457.329671739	5452.204085011	1.5	0.1
0.01	1	0.079980446999798	1	87	NA	136.455491304	0	0.4	2.54	1	125.157453642	125.237434089	"7"	5457.329671739	5452.204085011	1.5	0.1
0.01	1	0.0073252850006611	1	87	NA	136.455491304	0	0.4	2.54	1	125.474627215	125.4819525	"7"	5457.329671739	5452.204085011	1.5	0.1
0.01	1	0.0736126239999066	1	87	NA	136.455491304	0	0.4	2.54	1	125.708308122	125.781920746	"7"	5457.329671739	5452.204085011	1.5	0.1
0.01	1	0.0686384150003505	1	87	NA	136.455491304	0	0.4	2.54	1	126.008861795	126.07750021	"7"	5457.329671739	5452.204085011	1.5	0.1
0.01	1	0.0737981210004364	1	87	NA	136.455491304	0	0.4	2.54	1	126.309327167	126.383125288	"7"	5457.329671739	5452.204085011	1.5	0.1
0.01	1	0.061085796000043	1	87	NA	136.455491304	0	0.4	2.54	1	126.60984485	126.670930646	"7"	5457.329671739	5452.204085011	1.5	0.1
0.01	1	0.0728565769995839	1	87	NA	136.455491304	0	0.4	2.54	1	126.893623457	126.966480034	"7"	5457.329671739	5452.204085011	1.5	0.1
0.01	1	0.0599405150005623	1	87	NA	136.455491304	0	0.4	2.54	1	127.19425421	127.254194725	"7"	5457.329671739	5452.204085011	1.5	0.1
0.01	1	0.0813672089998363	1	87	NA	136.455491304	0	0.4	2.54	1	127.47793978	127.559306989	"7"	5457.329671739	5452.204085011	1.5	0.1
0.01	1	0.0426418830002149	1	87	NA	136.455491304	0	0.4	2.54	1	127.795078822	127.837720705	"7"	5457.329671739	5452.204085011	1.5	0.1
0.01	1	0.0396545549992879	1	87	NA	136.455491304	0	0.4	2.54	1	128.078962755	128.11861731	"7"	5457.329671739	5452.204085011	1.5	0.1
0.01	1	0.0444162720004897	1	87	NA	136.455491304	0	0.4	2.54	1	128.346026376	128.390442648	"7"	5457.329671739	5452.204085011	1.5	0.1
0.01	1	0.0332688999997117	1	87	NA	136.455491304	0	0.4	2.54	1	128.613232977	128.646501877	"7"	5457.329671739	5452.204085011	1.5	0.1
0.01	1	0.069843848000346	1	87	NA	136.455491304	0	0.4	2.54	1	128.880258517	128.950102365	"7"	5457.329671739	5452.204085011	1.5	0.1
0.01	1	0.0423148609997952	1	87	NA	136.455491304	0	0.4	2.54	1	129.180866075	129.223180936	"7"	5457.329671739	5452.204085011	1.5	0.1
0.01	1	0.0701514439997482	1	87	NA	136.455491304	0	0.4	2.54	1	129.44794085	129.518092294	"7"	5457.329671739	5452.204085011	1.5	0.1
0.01	1	0.0340254640004787	1	87	NA	136.455491304	0	0.4	2.54	1	129.748512875	129.782538339	"7"	5457.329671739	5452.204085011	1.5	0.1
0.01	1	0.0463844460000473	1	87	NA	136.455491304	0	0.4	2.54	1	130.015616425	130.062000871	"7"	5457.329671739	5452.204085011	1.5	0.1
0.01	1	0.0663890679998076	1	87	NA	136.455491304	0	0.4	2.54	1	130.29942863	130.365817698	"7"	5457.329671739	5452.204085011	1.5	0.1
0.01	1	0.0534368349999568	1	87	NA	136.455491304	0	0.4	2.54	1	130.599920545	130.65335738	"7"	5457.329671739	5452.204085011	1.5	0.1
0.01	1	0.0194494439992923	1	87	NA	136.455491304	0	0.4	2.54	1	130.883688613	130.903138057	"7"	5457.329671739	5452.204085011	1.5	0.1
0.01	1	0.0404714989999775	1	87	NA	136.455491304	0	0.4	2.54	1	131.134147889999	131.174619388999	"7"	5457.329671739	5452.204085011	1.5	0.1
0.01	1	0.0609715250002409	1	87	NA	136.455491304	0	0.4	2.54	1	131.40113424	131.462105765	"7"	5457.329671739	5452.204085011	1.5	0.1
0.01	1	0.0564921169998343	1	87	NA	136.455491304	0	0.4	2.54	1	131.685069125	131.741561242	"7"	5457.329671739	5452.204085011	1.5	0.1
0.01	1	0.0533164950002174	1	87	NA	136.455491304	0	0.4	2.54	1	131.968785829999	132.022102325	"7"	5457.329671739	5452.204085011	1.5	0.1
0.01	1	0.0666325309994136	1	87	NA	136.455491304	0	0.4	2.54	1	132.252702908	132.319335439	"7"	5457.329671739	5452.204085011	1.5	0.1
0.01	1	0.0536422270006369	1	87	NA	136.455491304	0	0.4	2.54	1	132.553162965	132.606805192	"7"	5457.329671739	5452.204085011	1.5	0.1
0.01	1	0.0490632050004933	1	87	NA	136.455491304	0	0.4	2.54	1	132.837006147	132.886069352	"7"	5457.329671739	5452.204085011	1.5	0.1
0.01	1	0.0382035450002149	1	87	NA	136.455491304	0	0.4	2.54	1	133.120730959999	133.158934505	"7"	5457.329671739	5452.204085011	1.5	0.1
0.01	1	0.0749758689998998	1	87	NA	136.455491304	0	0.4	2.54	1	133.38792469	133.462900559	"7"	5457.329671739	5452.204085011	1.5	0.1
0.01	1	0.0216815190005946	1	87	NA	136.455491304	0	0.4	2.54	1	133.68849318	133.710174699	"7"	5457.329671739	5452.204085011	1.5	0.1
0.01	1	0.0986954489999334	1	87	NA	136.455491304	0	0.4	2.54	1	133.938800617	134.037496066	"7"	5457.329671739	5452.204085011	1.5	0.1
0.01	1	0.0293090150007629	1	87	NA	136.455491304	0	0.4	2.54	1	134.272593145	134.30190216	"7"	5457.329671739	5452.204085011	1.5	0.1
0.01	1	0.00308474199937336	1	87	NA	136.455491304	0	0.4	2.54	1	134.523083842	134.526168584	"7"	5457.329671739	5452.204085011	1.5	0.1
0.01	1	0.0184205740006291	1	87	NA	136.455491304	0	0.4	2.54	1	134.756924787	134.775345361	"7"	5457.329671739	5452.204085011	1.5	0.1
0.01	1	0.0158154790005938	1	87	NA	136.455491304	0	0.4	2.54	1	135.007330386999	135.023145866	"7"	5457.329671739	5452.204085011	1.5	0.1
0.01	1	0.036638106999817	1	87	NA	136.455491304	0	0.4	2.54	1	135.257728062	135.294366169	"7"	5457.329671739	5452.204085011	1.5	0.1
0.01	1	0.0648388729996441	1	87	NA	136.455491304	0	0.4	2.54	1	135.524891622	135.589730494999	"7"	5457.329671739	5452.204085011	1.5	0.1
0.01	1	0.628651408999758	2	87	NA	136.455491304	0	0.4	2.54	1	135.825297777	136.453949186	"7"	5457.329671739	5452.204085011	1.5	0.1
0.01	1	2.24820543599981	1	6	142.156558427	NA	1	0	2.54	1	138.496482685	140.744688121	"8"	5457.329671739	5452.204085011	1.5	0.1
0.01	1	0.00852330299949244	1	6	142.156558427	NA	1	0	2.54	1	140.984029043	140.992552346	"8"	5457.329671739	5452.204085011	1.5	0.1
0.01	1	0.0475588419994892	1	6	142.156558427	NA	1	0	2.54	1	141.217816536	141.265375378	"8"	5457.329671739	5452.204085011	1.5	0.1
0.01	1	0.01206451500002	1	6	142.156558427	NA	1	0	2.54	1	141.501575255	141.51363977	"8"	5457.329671739	5452.204085011	1.5	0.1
0.01	1	0.0269877390001056	1	6	142.156558427	NA	1	0	2.54	1	141.7352436	141.762231339	"8"	5457.329671739	5452.204085011	1.5	0.1
0.01	1	0.0485635859995455	1	6	142.156558427	NA	1	0	2.54	1	141.98564025	142.034203836	"8"	5457.329671739	5452.204085011	1.5	0.1
0.01	1	0.459355445000256	1	106	NA	158.546530527	0	0.44	2.98	1	144.189473595	144.64882904	"9"	5457.329671739	5452.204085011	1.5	0.1
0.01	1	0.0311260190001121	1	106	NA	158.546530527	0	0.44	2.98	1	144.873846394999	144.904972414	"9"	5457.329671739	5452.204085011	1.5	0.1
0.01	1	0.0611239700001533	1	106	NA	158.546530527	0	0.44	2.98	1	145.140961035	145.202085005	"9"	5457.329671739	5452.204085011	1.5	0.1
0.01	1	0.047568637999575	1	106	NA	158.546530527	0	0.44	2.98	1	145.424764687	145.472333324999	"9"	5457.329671739	5452.204085011	1.5	0.1
0.01	1	0.0295894250002675	1	106	NA	158.546530527	0	0.44	2.98	1	145.708546387	145.738135812	"9"	5457.329671739	5452.204085011	1.5	0.1
0.01	1	0.0328806210000039	1	106	NA	158.546530527	0	0.44	2.98	1	145.975772387	146.008653008	"9"	5457.329671739	5452.204085011	1.5	0.1
0.01	1	0.0541464469997663	1	106	NA	158.546530527	0	0.44	2.98	1	146.242920267	146.297066714	"9"	5457.329671739	5452.204085011	1.5	0.1
0.01	1	0.0517453169995861	1	106	NA	158.546530527	0	0.44	2.98	1	146.526624215	146.578369532	"9"	5457.329671739	5452.204085011	1.5	0.1
0.01	1	0.054414012000052	1	106	NA	158.546530527	0	0.44	2.98	1	146.81048872	146.864902732	"9"	5457.329671739	5452.204085011	1.5	0.1
0.01	1	0.0275441650001085	1	106	NA	158.546530527	0	0.44	2.98	1	147.09435899	147.121903155	"9"	5457.329671739	5452.204085011	1.5	0.1
0.01	1	0.0162547999998424	1	106	NA	158.546530527	0	0.44	2.98	1	147.344661977	147.360916777	"9"	5457.329671739	5452.204085011	1.5	0.1
0.01	1	0.0230047810000542	1	106	NA	158.546530527	0	0.44	2.98	1	147.595117117	147.618121898	"9"	5457.329671739	5452.204085011	1.5	0.1
0.01	1	0.0677495910003927	1	106	NA	158.546530527	0	0.44	2.98	1	147.845644595	147.913394186	"9"	5457.329671739	5452.204085011	1.5	0.1
0.01	1	0.0479313400001047	1	106	NA	158.546530527	0	0.44	2.98	1	148.145994545	148.193925885	"9"	5457.329671739	5452.204085011	1.5	0.1
0.01	1	0.108157960000426	1	106	NA	158.546530527	0	0.44	2.98	1	148.429868042	148.538026002	"9"	5457.329671739	5452.204085011	1.5	0.1
0.01	1	0.0306668240000363	1	106	NA	158.546530527	0	0.44	2.98	1	148.763757127	148.794423951	"9"	5457.329671739	5452.204085011	1.5	0.1
0.01	1	0.0119908619999478	1	106	NA	158.546530527	0	0.44	2.98	1	149.03086049	149.042851352	"9"	5457.329671739	5452.204085011	1.5	0.1
0.01	1	0.00991660799991223	1	106	NA	158.546530527	0	0.44	2.98	1	149.28126305	149.291179658	"9"	5457.329671739	5452.204085011	1.5	0.1
0.01	1	0.0140660480001316	1	106	NA	158.546530527	0	0.44	2.98	1	149.51495153	149.529017578	"9"	5457.329671739	5452.204085011	1.5	0.1
0.01	1	0.0125116119997983	1	106	NA	158.546530527	0	0.44	2.98	1	149.765405137	149.777916749	"9"	5457.329671739	5452.204085011	1.5	0.1
0.01	1	0.00986211899999034	1	106	NA	158.546530527	0	0.44	2.98	1	150.015773547	150.025635666	"9"	5457.329671739	5452.204085011	1.5	0.1
0.01	1	0.0481765610002185	1	106	NA	158.546530527	0	0.44	2.98	1	150.249594387	150.297770948	"9"	5457.329671739	5452.204085011	1.5	0.1
0.01	1	0.0432780740002272	1	106	NA	158.546530527	0	0.44	2.98	1	150.5333633	150.576641374	"9"	5457.329671739	5452.204085011	1.5	0.1
0.01	1	0.0486278830003357	1	106	NA	158.546530527	0	0.44	2.98	1	150.80047072	150.849098603	"9"	5457.329671739	5452.204085011	1.5	0.1
0.01	1	0.092640594999466	1	106	NA	158.546530527	0	0.44	2.98	1	151.084299887	151.176940482	"9"	5457.329671739	5452.204085011	1.5	0.1
0.01	1	0.0237408420007341	1	106	NA	158.546530527	0	0.44	2.98	1	151.40152291	151.425263752	"9"	5457.329671739	5452.204085011	1.5	0.1
0.01	1	0.054245412000455	1	106	NA	158.546530527	0	0.44	2.98	1	151.651922315	151.706167727	"9"	5457.329671739	5452.204085011	1.5	0.1
0.01	1	0.0507953750002343	1	106	NA	158.546530527	0	0.44	2.98	1	151.935789319	151.986584694	"9"	5457.329671739	5452.204085011	1.5	0.1
0.01	1	0.053373800999907	1	106	NA	158.546530527	0	0.44	2.98	1	152.219637762	152.273011563	"9"	5457.329671739	5452.204085011	1.5	0.1
0.01	1	0.0568757099999857	1	106	NA	158.546530527	0	0.44	2.98	1	152.50359186	152.56046757	"9"	5457.329671739	5452.204085011	1.5	0.1
0.01	1	0.0541671420005514	1	106	NA	158.546530527	0	0.44	2.98	1	152.787212087	152.841379229	"9"	5457.329671739	5452.204085011	1.5	0.1
0.01	1	0.0351454169995122	1	106	NA	158.546530527	0	0.44	2.98	1	153.071120517	153.106265934	"9"	5457.329671739	5452.204085011	1.5	0.1
0.01	1	0.0495902590000696	1	106	NA	158.546530527	0	0.44	2.98	1	153.338026425	153.387616684	"9"	5457.329671739	5452.204085011	1.5	0.1
0.01	1	0.0131157039995742	1	106	NA	158.546530527	0	0.44	2.98	1	153.621932922	153.635048626	"9"	5457.329671739	5452.204085011	1.5	0.1
0.01	1	0.0180258660002437	1	106	NA	158.546530527	0	0.44	2.98	1	153.872448695	153.890474561	"9"	5457.329671739	5452.204085011	1.5	0.1
0.01	1	0.0233327770001779	1	106	NA	158.546530527	0	0.44	2.98	1	154.1228274	154.146160177	"9"	5457.329671739	5452.204085011	1.5	0.1
0.01	1	0.0200991849997081	1	106	NA	158.546530527	0	0.44	2.98	1	154.373231285	154.393330469999	"9"	5457.329671739	5452.204085011	1.5	0.1
0.01	1	0.0425777689997631	1	106	NA	158.546530527	0	0.44	2.98	1	154.623555896	154.666133665	"9"	5457.329671739	5452.204085011	1.5	0.1
0.01	1	0.71896171499975	1	106	NA	158.546530527	0	0.44	2.98	1	154.890837045	155.60979876	"9"	5457.329671739	5452.204085011	1.5	0.1
0.01	1	0.00436858800003392	1	106	NA	158.546530527	0	0.44	2.98	1	155.8422658	155.846634388	"9"	5457.329671739	5452.204085011	1.5	0.1
0.01	1	0.0535117680001349	1	106	NA	158.546530527	0	0.44	2.98	1	156.076085377	156.129597145	"9"	5457.329671739	5452.204085011	1.5	0.1
0.01	1	0.0181474110004274	1	106	NA	158.546530527	0	0.44	2.98	1	156.359899425	156.378046836	"9"	5457.329671739	5452.204085011	1.5	0.1
0.01	1	0.399934361000305	1	106	NA	158.546530527	0	0.44	2.98	1	156.61035623	157.010290591	"9"	5457.329671739	5452.204085011	1.5	0.1
0.01	1	0.30065782299971	1	106	NA	158.546530527	0	0.44	2.98	1	157.244675355	157.545333178	"9"	5457.329671739	5452.204085011	1.5	0.1
0.01	1	0.766033838999647	2	106	NA	158.546530527	0	0.44	2.98	1	157.778886895	158.544920734	"9"	5457.329671739	5452.204085011	1.5	0.1
0.01	1	2.17951276400072	1	21	167.749627895	NA	1	0	2.98	1	160.60032301	162.779835774	"10"	5457.329671739	5452.204085011	1.5	0.1
0.01	1	0.00230383699999948	1	21	167.749627895	NA	1	0	2.98	1	163.02125203	163.023555867	"10"	5457.329671739	5452.204085011	1.5	0.1
0.01	1	0.00485197199941467	1	21	167.749627895	NA	1	0	2.98	1	163.254752695	163.259604667	"10"	5457.329671739	5452.204085011	1.5	0.1
0.01	1	0.00211242899968056	1	21	167.749627895	NA	1	0	2.98	1	163.488532817	163.490645246	"10"	5457.329671739	5452.204085011	1.5	0.1
0.01	1	0.0101844330001768	1	21	167.749627895	NA	1	0	2.98	1	163.722162362	163.732346795	"10"	5457.329671739	5452.204085011	1.5	0.1
0.01	1	0.0627727940000113	1	21	167.749627895	NA	1	0	2.98	1	163.956027411999	164.018800205999	"10"	5457.329671739	5452.204085011	1.5	0.1
0.01	1	0.067409964000035	1	21	167.749627895	NA	1	0	2.98	1	164.239726764999	164.307136728999	"10"	5457.329671739	5452.204085011	1.5	0.1
0.01	1	0.0160703789997569	1	21	167.749627895	NA	1	0	2.98	1	164.540356085	164.556426464	"10"	5457.329671739	5452.204085011	1.5	0.1
0.01	1	0.00357945399991877	1	21	167.749627895	NA	1	0	2.98	1	164.790693464	164.794272917999	"10"	5457.329671739	5452.204085011	1.5	0.1
0.01	1	0.00468298500072706	1	21	167.749627895	NA	1	0	2.98	1	165.024495144999	165.02917813	"10"	5457.329671739	5452.204085011	1.5	0.1
0.01	1	0.00384803099950659	1	21	167.749627895	NA	1	0	2.98	1	165.258245737	165.262093767999	"10"	5457.329671739	5452.204085011	1.5	0.1
0.01	1	0.00297851000050287	1	21	167.749627895	NA	1	0	2.98	1	165.49191077	165.49488928	"10"	5457.329671739	5452.204085011	1.5	0.1
0.01	1	0.00741515700065065	1	21	167.749627895	NA	1	0	2.98	1	165.725513277	165.732928434	"10"	5457.329671739	5452.204085011	1.5	0.1
0.01	1	0.00734830300007161	1	21	167.749627895	NA	1	0	2.98	1	165.959319637	165.96666794	"10"	5457.329671739	5452.204085011	1.5	0.1
0.01	1	0.00207822299944382	1	21	167.749627895	NA	1	0	2.98	1	166.193101414	166.195179636999	"10"	5457.329671739	5452.204085011	1.5	0.1
0.01	1	0.00315157000022737	1	21	167.749627895	NA	1	0	2.98	1	166.426759508	166.429911078	"10"	5457.329671739	5452.204085011	1.5	0.1
0.01	1	0.00395996499992179	1	21	167.749627895	NA	1	0	2.98	1	166.660492135	166.6644521	"10"	5457.329671739	5452.204085011	1.5	0.1
0.01	1	0.00384701999973913	1	21	167.749627895	NA	1	0	2.98	1	166.89427815	166.89812517	"10"	5457.329671739	5452.204085011	1.5	0.1
0.01	1	0.00391375100025471	1	21	167.749627895	NA	1	0	2.98	1	167.128032005	167.131945756	"10"	5457.329671739	5452.204085011	1.5	0.1
0.01	1	0.0253621030005888	1	21	167.749627895	NA	1	0	2.98	1	167.361718364999	167.387080468	"10"	5457.329671739	5452.204085011	1.5	0.1
0.01	1	0.0161454220005908	1	21	167.749627895	NA	1	0	2.98	1	167.61219046	167.628335882	"10"	5457.329671739	5452.204085011	1.5	0.1
0.01	1	0.00211508099982893	1	19	174.326154835	NA	1	0	2.98	1	169.799172374	169.801287455	"11"	5457.329671739	5452.204085011	1.5	0.1
0.01	1	0.0256955610002478	1	19	174.326154835	NA	1	0	2.98	1	170.032890797	170.058586358	"11"	5457.329671739	5452.204085011	1.5	0.1
0.01	1	0.0316406539996024	1	19	174.326154835	NA	1	0	2.98	1	170.283299922	170.314940576	"11"	5457.329671739	5452.204085011	1.5	0.1
0.01	1	0.0134387749994858	1	19	174.326154835	NA	1	0	2.98	1	170.55048223	170.563921004999	"11"	5457.329671739	5452.204085011	1.5	0.1
0.01	1	0.00303366699972685	1	19	174.326154835	NA	1	0	2.98	1	170.800756796	170.803790463	"11"	5457.329671739	5452.204085011	1.5	0.1
0.01	1	0.00403661200016359	1	19	174.326154835	NA	1	0	2.98	1	171.034514432	171.038551044	"11"	5457.329671739	5452.204085011	1.5	0.1
0.01	1	0.00228390599932027	1	19	174.326154835	NA	1	0	2.98	1	171.268291225	171.270575131	"11"	5457.329671739	5452.204085011	1.5	0.1
0.01	1	0.00220610199994553	1	19	174.326154835	NA	1	0	2.98	1	171.502036187	171.504242289	"11"	5457.329671739	5452.204085011	1.5	0.1
0.01	1	0.00213692600027571	1	19	174.326154835	NA	1	0	2.98	1	171.735702823999	171.73783975	"11"	5457.329671739	5452.204085011	1.5	0.1
0.01	1	0.0022367840001607	1	19	174.326154835	NA	1	0	2.98	1	171.96951776	171.971754544	"11"	5457.329671739	5452.204085011	1.5	0.1
0.01	1	0.00240439500066714	1	19	174.326154835	NA	1	0	2.98	1	172.203187401999	172.205591797	"11"	5457.329671739	5452.204085011	1.5	0.1
0.01	1	0.00226005900003656	1	19	174.326154835	NA	1	0	2.98	1	172.436823209	172.439083268	"11"	5457.329671739	5452.204085011	1.5	0.1
0.01	1	0.00219034199926682	1	19	174.326154835	NA	1	0	2.98	1	172.670569615	172.672759956999	"11"	5457.329671739	5452.204085011	1.5	0.1
0.01	1	0.00214633999985381	1	19	174.326154835	NA	1	0	2.98	1	172.904413147	172.906559487	"11"	5457.329671739	5452.204085011	1.5	0.1
0.01	1	0.00474910200045997	1	19	174.326154835	NA	1	0	2.98	1	173.13809334	173.142842442	"11"	5457.329671739	5452.204085011	1.5	0.1
0.01	1	0.00209668900060933	1	19	174.326154835	NA	1	0	2.98	1	173.371799439999	173.373896129	"11"	5457.329671739	5452.204085011	1.5	0.1
0.01	1	0.00397398000040994	1	19	174.326154835	NA	1	0	2.98	1	173.605563532	173.609537512	"11"	5457.329671739	5452.204085011	1.5	0.1
0.01	1	0.00380988400047499	1	19	174.326154835	NA	1	0	2.98	1	173.83922208	173.843031964	"11"	5457.329671739	5452.204085011	1.5	0.1
0.01	1	0.138306673000443	1	19	174.326154835	NA	1	0	2.98	1	174.073038617	174.21134529	"11"	5457.329671739	5452.204085011	1.5	0.1
0.01	1	1.32965068300018	1	63	NA	186.24465947	0	0.33	3.31	1	176.376829397	177.70648008	"12"	5457.329671739	5452.204085011	1.5	0.1
0.01	1	0.00207530800071254	1	63	NA	186.24465947	0	0.33	3.31	1	177.946082635	177.948157943	"12"	5457.329671739	5452.204085011	1.5	0.1
0.01	1	0.00466513099945587	1	63	NA	186.24465947	0	0.33	3.31	1	178.179941636	178.184606766999	"12"	5457.329671739	5452.204085011	1.5	0.1
0.01	1	0.00208181299967691	1	63	NA	186.24465947	0	0.33	3.31	1	178.413718789	178.415800602	"12"	5457.329671739	5452.204085011	1.5	0.1
0.01	1	0.00386837999940326	1	63	NA	186.24465947	0	0.33	3.31	1	178.6473923	178.65126068	"12"	5457.329671739	5452.204085011	1.5	0.1
0.01	1	0.00395829300032347	1	63	NA	186.24465947	0	0.33	3.31	1	178.881120677	178.88507897	"12"	5457.329671739	5452.204085011	1.5	0.1
0.01	1	0.00472704500043619	1	63	NA	186.24465947	0	0.33	3.31	1	179.11481415	179.119541195	"12"	5457.329671739	5452.204085011	1.5	0.1
0.01	1	0.102073136000399	1	63	NA	186.24465947	0	0.33	3.31	1	179.348620862	179.450693998	"12"	5457.329671739	5452.204085011	1.5	0.1
0.01	1	0.00996703000055277	1	63	NA	186.24465947	0	0.33	3.31	1	179.682397162	179.692364192	"12"	5457.329671739	5452.204085011	1.5	0.1
0.01	1	0.00239493299977767	1	63	NA	186.24465947	0	0.33	3.31	1	179.916112708	179.918507640999	"12"	5457.329671739	5452.204085011	1.5	0.1
0.01	1	0.0036945760002709	1	63	NA	186.24465947	0	0.33	3.31	1	180.14981551	180.153510086	"12"	5457.329671739	5452.204085011	1.5	0.1
0.01	1	0.00328654199984157	1	63	NA	186.24465947	0	0.33	3.31	1	180.38351023	180.386796772	"12"	5457.329671739	5452.204085011	1.5	0.1
0.01	1	0.00413969500004896	1	63	NA	186.24465947	0	0.33	3.31	1	180.617300745	180.62144044	"12"	5457.329671739	5452.204085011	1.5	0.1
0.01	1	0.00205224100045598	1	63	NA	186.24465947	0	0.33	3.31	1	180.851040705	180.853092946	"12"	5457.329671739	5452.204085011	1.5	0.1
0.01	1	0.00376012300057482	1	63	NA	186.24465947	0	0.33	3.31	1	181.084757727	181.08851785	"12"	5457.329671739	5452.204085011	1.5	0.1
0.01	1	0.00475178500073525	1	63	NA	186.24465947	0	0.33	3.31	1	181.318501665	181.32325345	"12"	5457.329671739	5452.204085011	1.5	0.1
0.01	1	0.00472355199963204	1	63	NA	186.24465947	0	0.33	3.31	1	181.552261455	181.556985007	"12"	5457.329671739	5452.204085011	1.5	0.1
0.01	1	0.00483684499977244	1	63	NA	186.24465947	0	0.33	3.31	1	181.78600818	181.790845025	"12"	5457.329671739	5452.204085011	1.5	0.1
0.01	1	0.00212909800029593	1	63	NA	186.24465947	0	0.33	3.31	1	182.019694265	182.021823363	"12"	5457.329671739	5452.204085011	1.5	0.1
0.01	1	0.00218700699952024	1	63	NA	186.24465947	0	0.33	3.31	1	182.253437958	182.255624965	"12"	5457.329671739	5452.204085011	1.5	0.1
0.01	1	0.00433182399956422	1	63	NA	186.24465947	0	0.33	3.31	1	182.487161463	182.491493287	"12"	5457.329671739	5452.204085011	1.5	0.1
0.01	1	0.00469005200011452	1	63	NA	186.24465947	0	0.33	3.31	1	182.720961025	182.725651077	"12"	5457.329671739	5452.204085011	1.5	0.1
0.01	1	0.00405533600041963	1	63	NA	186.24465947	0	0.33	3.31	1	182.95463419	182.958689526	"12"	5457.329671739	5452.204085011	1.5	0.1
0.01	1	0.00473720199988747	1	63	NA	186.24465947	0	0.33	3.31	1	183.18844672	183.193183922	"12"	5457.329671739	5452.204085011	1.5	0.1
0.01	1	0.00368392900054459	1	63	NA	186.24465947	0	0.33	3.31	1	183.422051805	183.425735734	"12"	5457.329671739	5452.204085011	1.5	0.1
0.01	1	0.00413301799926558	1	63	NA	186.24465947	0	0.33	3.31	1	183.65584225	183.659975267999	"12"	5457.329671739	5452.204085011	1.5	0.1
0.01	1	0.00449965000007069	1	63	NA	186.24465947	0	0.33	3.31	1	183.889486715	183.893986365	"12"	5457.329671739	5452.204085011	1.5	0.1
0.01	1	0.00413155899968842	1	63	NA	186.24465947	0	0.33	3.31	1	184.123267145	184.127398703999	"12"	5457.329671739	5452.204085011	1.5	0.1
0.01	1	0.00398997600041184	1	63	NA	186.24465947	0	0.33	3.31	1	184.35702401	184.361013986	"12"	5457.329671739	5452.204085011	1.5	0.1
0.01	1	0.00385994799944456	1	63	NA	186.24465947	0	0.33	3.31	1	184.590628322	184.59448827	"12"	5457.329671739	5452.204085011	1.5	0.1
0.01	1	0.00395576699975209	1	63	NA	186.24465947	0	0.33	3.31	1	184.824457177	184.828412944	"12"	5457.329671739	5452.204085011	1.5	0.1
0.01	1	0.00377750500047114	1	63	NA	186.24465947	0	0.33	3.31	1	185.058197517	185.061975022	"12"	5457.329671739	5452.204085011	1.5	0.1
0.01	1	0.00413262099937128	1	63	NA	186.24465947	0	0.33	3.31	1	185.291964715	185.296097336	"12"	5457.329671739	5452.204085011	1.5	0.1
0.01	1	0.717526702999749	2	63	NA	186.24465947	0	0.33	3.31	1	185.52554978	186.243076483	"12"	5457.329671739	5452.204085011	1.5	0.1
0.01	1	1.15408524800023	1	54	NA	199.35744762	0	0.34	3.65	1	188.296934821999	189.45102007	"13"	5457.329671739	5452.204085011	1.5	0.1
0.01	1	0.00207700500050123	1	54	NA	199.35744762	0	0.34	3.65	1	189.68264391	189.684720915	"13"	5457.329671739	5452.204085011	1.5	0.1
0.01	1	0.00206552000054216	1	54	NA	199.35744762	0	0.34	3.65	1	189.916336759999	189.91840228	"13"	5457.329671739	5452.204085011	1.5	0.1
0.01	1	0.0021494430002349	1	54	NA	199.35744762	0	0.34	3.65	1	190.150039186	190.152188629	"13"	5457.329671739	5452.204085011	1.5	0.1
0.01	1	0.00219495500004996	1	54	NA	199.35744762	0	0.34	3.65	1	190.383730428	190.385925383	"13"	5457.329671739	5452.204085011	1.5	0.1
0.01	1	0.00212192700018932	1	54	NA	199.35744762	0	0.34	3.65	1	190.617538417	190.619660344	"13"	5457.329671739	5452.204085011	1.5	0.1
0.01	1	0.00205953600016073	1	54	NA	199.35744762	0	0.34	3.65	1	190.851267768	190.853327304	"13"	5457.329671739	5452.204085011	1.5	0.1
0.01	1	0.00206012400030886	1	54	NA	199.35744762	0	0.34	3.65	1	191.084970186	191.08703031	"13"	5457.329671739	5452.204085011	1.5	0.1
0.01	1	0.00472964200071146	1	54	NA	199.35744762	0	0.34	3.65	1	191.318708405	191.323438047	"13"	5457.329671739	5452.204085011	1.5	0.1
0.01	1	0.00460895700052788	1	54	NA	199.35744762	0	0.34	3.65	1	191.55241789	191.557026847	"13"	5457.329671739	5452.204085011	1.5	0.1
0.01	1	0.00395191799998429	1	54	NA	199.35744762	0	0.34	3.65	1	191.78619076	191.790142678	"13"	5457.329671739	5452.204085011	1.5	0.1
0.01	1	0.00410928099972807	1	54	NA	199.35744762	0	0.34	3.65	1	192.019797807	192.023907088	"13"	5457.329671739	5452.204085011	1.5	0.1
0.01	1	0.00455795699963346	1	54	NA	199.35744762	0	0.34	3.65	1	192.253619743	192.2581777	"13"	5457.329671739	5452.204085011	1.5	0.1
0.01	1	0.00469572699967102	1	54	NA	199.35744762	0	0.34	3.65	1	192.48734171	192.492037436999	"13"	5457.329671739	5452.204085011	1.5	0.1
0.01	1	0.0040481149999323	1	54	NA	199.35744762	0	0.34	3.65	1	192.721023305	192.72507142	"13"	5457.329671739	5452.204085011	1.5	0.1
0.01	1	0.00403043200003594	1	54	NA	199.35744762	0	0.34	3.65	1	192.95471904	192.958749472	"13"	5457.329671739	5452.204085011	1.5	0.1
0.01	1	0.00417398500030686	1	54	NA	199.35744762	0	0.34	3.65	1	193.188489057	193.192663042	"13"	5457.329671739	5452.204085011	1.5	0.1
0.01	1	0.0044640480000453	1	54	NA	199.35744762	0	0.34	3.65	1	193.422186022	193.42665007	"13"	5457.329671739	5452.204085011	1.5	0.1
0.01	1	0.00409121800021239	1	54	NA	199.35744762	0	0.34	3.65	1	193.655942242	193.66003346	"13"	5457.329671739	5452.204085011	1.5	0.1
0.01	1	0.00378360100057762	1	54	NA	199.35744762	0	0.34	3.65	1	193.889729197	193.893512798	"13"	5457.329671739	5452.204085011	1.5	0.1
0.01	1	0.00232519499968475	1	54	NA	199.35744762	0	0.34	3.65	1	194.123382594	194.125707789	"13"	5457.329671739	5452.204085011	1.5	0.1
0.01	1	0.00402480299999297	1	54	NA	199.35744762	0	0.34	3.65	1	194.357110487	194.36113529	"13"	5457.329671739	5452.204085011	1.5	0.1
0.01	1	0.00210857700039924	1	54	NA	199.35744762	0	0.34	3.65	1	194.59081422	194.592922797	"13"	5457.329671739	5452.204085011	1.5	0.1
0.01	1	0.00231091500063485	1	54	NA	199.35744762	0	0.34	3.65	1	194.824634447999	194.826945363	"13"	5457.329671739	5452.204085011	1.5	0.1
0.01	1	0.0020956299995305	1	54	NA	199.35744762	0	0.34	3.65	1	195.058365285	195.060460915	"13"	5457.329671739	5452.204085011	1.5	0.1
0.01	1	0.00365966899971681	1	54	NA	199.35744762	0	0.34	3.65	1	195.292038117	195.295697785999	"13"	5457.329671739	5452.204085011	1.5	0.1
0.01	1	0.0462329049996697	1	54	NA	199.35744762	0	0.34	3.65	1	195.525778635	195.57201154	"13"	5457.329671739	5452.204085011	1.5	0.1
0.01	1	0.0168726050005716	1	54	NA	199.35744762	0	0.34	3.65	1	195.809565135	195.82643774	"13"	5457.329671739	5452.204085011	1.5	0.1
0.01	1	0.0151382029998786	1	54	NA	199.35744762	0	0.34	3.65	1	196.059926325	196.075064528	"13"	5457.329671739	5452.204085011	1.5	0.1
0.01	1	0.00725445100033539	1	54	NA	199.35744762	0	0.34	3.65	1	196.310393577	196.317648028	"13"	5457.329671739	5452.204085011	1.5	0.1
0.01	1	0.0352354659999037	1	54	NA	199.35744762	0	0.34	3.65	1	196.54405689	196.579292356	"13"	5457.329671739	5452.204085011	1.5	0.1
0.01	1	0.136274845999651	1	54	NA	199.35744762	0	0.34	3.65	1	196.811318209	196.947593055	"13"	5457.329671739	5452.204085011	1.5	0.1
0.01	1	0.809936700000435	1	54	NA	199.35744762	0	0.34	3.65	1	197.178500665	197.988437365	"13"	5457.329671739	5452.204085011	1.5	0.1
0.01	1	0.198429400999885	1	54	NA	199.35744762	0	0.34	3.65	1	198.213678647	198.412108048	"13"	5457.329671739	5452.204085011	1.5	0.1
0.01	1	0.708215066999401	NA	54	NA	199.35744762	0	0.34	3.65	1	198.647667995	199.355883062	"13"	5457.329671739	5452.204085011	1.5	0.1
0.01	1	0.808506266000222	1	103	NA	211.628646825	0	0.29	3.94	1	201.402341102	202.210847368	"14"	5457.329671739	5452.204085011	1.5	0.1
0.01	1	0.0291323380006361	1	103	NA	211.628646825	0	0.29	3.94	1	202.43738377	202.466516108	"14"	5457.329671739	5452.204085011	1.5	0.1
0.01	1	0.00214476100063621	1	103	NA	211.628646825	0	0.29	3.94	1	202.704483217	202.706627978	"14"	5457.329671739	5452.204085011	1.5	0.1
0.01	1	0.00468293199992331	1	103	NA	211.628646825	0	0.29	3.94	1	202.93823253	202.942915462	"14"	5457.329671739	5452.204085011	1.5	0.1
0.01	1	0.00210551099917211	1	103	NA	211.628646825	0	0.29	3.94	1	203.172017648	203.174123158999	"14"	5457.329671739	5452.204085011	1.5	0.1
0.01	1	0.00211807699997735	1	103	NA	211.628646825	0	0.29	3.94	1	203.405678893	203.40779697	"14"	5457.329671739	5452.204085011	1.5	0.1
0.01	1	0.00208994500007975	1	103	NA	211.628646825	0	0.29	3.94	1	203.639341051	203.641430996	"14"	5457.329671739	5452.204085011	1.5	0.1
0.01	1	0.00230031399951258	1	103	NA	211.628646825	0	0.29	3.94	1	203.873116595	203.875416909	"14"	5457.329671739	5452.204085011	1.5	0.1
0.01	1	0.00212801999987278	1	103	NA	211.628646825	0	0.29	3.94	1	204.106827918	204.108955938	"14"	5457.329671739	5452.204085011	1.5	0.1
0.01	1	0.00262983399989025	1	103	NA	211.628646825	0	0.29	3.94	1	204.340574344	204.343204178	"14"	5457.329671739	5452.204085011	1.5	0.1
0.01	1	0.00356951999947341	1	103	NA	211.628646825	0	0.29	3.94	1	204.574290278	204.577859798	"14"	5457.329671739	5452.204085011	1.5	0.1
0.01	1	0.0123057870005141	1	103	NA	211.628646825	0	0.29	3.94	1	204.80804784	204.820353627	"14"	5457.329671739	5452.204085011	1.5	0.1
0.01	1	0.00407698999970307	1	103	NA	211.628646825	0	0.29	3.94	1	205.05839268	205.06246967	"14"	5457.329671739	5452.204085011	1.5	0.1
0.01	1	0.00235565200000565	1	103	NA	211.628646825	0	0.29	3.94	1	205.292146356	205.294502008	"14"	5457.329671739	5452.204085011	1.5	0.1
0.01	1	0.0070846230000825	1	103	NA	211.628646825	0	0.29	3.94	1	205.525835906999	205.53292053	"14"	5457.329671739	5452.204085011	1.5	0.1
0.01	1	0.00719325600039156	1	103	NA	211.628646825	0	0.29	3.94	1	205.7596047	205.766797956	"14"	5457.329671739	5452.204085011	1.5	0.1
0.01	1	0.0179152849996171	1	103	NA	211.628646825	0	0.29	3.94	1	205.99332183	206.011237115	"14"	5457.329671739	5452.204085011	1.5	0.1
0.01	1	0.0156287480003812	1	103	NA	211.628646825	0	0.29	3.94	1	206.243822267	206.259451015	"14"	5457.329671739	5452.204085011	1.5	0.1
0.01	1	0.00227322699993238	1	103	NA	211.628646825	0	0.29	3.94	1	206.494086876	206.496360102999	"14"	5457.329671739	5452.204085011	1.5	0.1
0.01	1	0.0032792399997561	1	103	NA	211.628646825	0	0.29	3.94	1	206.72783134	206.73111058	"14"	5457.329671739	5452.204085011	1.5	0.1
0.01	1	0.00313057000039407	1	103	NA	211.628646825	0	0.29	3.94	1	206.961644309999	206.96477488	"14"	5457.329671739	5452.204085011	1.5	0.1
0.01	1	0.00409563500033983	1	103	NA	211.628646825	0	0.29	3.94	1	207.195395837	207.199491472	"14"	5457.329671739	5452.204085011	1.5	0.1
0.01	1	0.00376002600023639	1	103	NA	211.628646825	0	0.29	3.94	1	207.429131469999	207.432891496	"14"	5457.329671739	5452.204085011	1.5	0.1
0.01	1	0.00832454099963797	1	103	NA	211.628646825	0	0.29	3.94	1	207.662846565	207.671171106	"14"	5457.329671739	5452.204085011	1.5	0.1
0.01	1	0.403356400999655	1	103	NA	211.628646825	0	0.29	3.94	1	207.896559617	208.299916018	"14"	5457.329671739	5452.204085011	1.5	0.1
0.01	1	0.38418374199955	1	103	NA	211.628646825	0	0.29	3.94	1	208.531009317	208.915193059	"14"	5457.329671739	5452.204085011	1.5	0.1
0.01	1	0.143322189000173	1	103	NA	211.628646825	0	0.29	3.94	1	209.148685579999	209.292007769	"14"	5457.329671739	5452.204085011	1.5	0.1
0.01	1	0.0635391860005257	1	103	NA	211.628646825	0	0.29	3.94	1	209.51590246	209.579441646	"14"	5457.329671739	5452.204085011	1.5	0.1
0.01	1	0.0828187440001784	1	103	NA	211.628646825	0	0.29	3.94	1	209.816402755	209.899221499	"14"	5457.329671739	5452.204085011	1.5	0.1
0.01	1	1.49332581499948	NA	103	NA	211.628646825	0	0.29	3.94	1	210.133696142	211.627021957	"14"	5457.329671739	5452.204085011	1.5	0.1
0.01	1	0.642994501999965	1	120	NA	227.157609897999	0	0.48	4.42	1	213.672887082	214.315881584	"15"	5457.329671739	5452.204085011	1.5	0.1
0.01	1	0.0140818290001334	1	120	NA	227.157609897999	0	0.48	4.42	1	214.541187045	214.555268874	"15"	5457.329671739	5452.204085011	1.5	0.1
0.01	1	0.00209112299944536	1	120	NA	227.157609897999	0	0.48	4.42	1	214.791602106	214.793693228999	"15"	5457.329671739	5452.204085011	1.5	0.1
0.01	1	0.0176354609993723	1	120	NA	227.157609897999	0	0.48	4.42	1	215.025182217	215.042817678	"15"	5457.329671739	5452.204085011	1.5	0.1
0.01	1	0.247922077000112	1	120	NA	227.157609897999	0	0.48	4.42	1	215.275636505	215.523558582	"15"	5457.329671739	5452.204085011	1.5	0.1
0.01	1	0.0363726049999968	1	120	NA	227.157609897999	0	0.48	4.42	1	215.759754865	215.79612747	"15"	5457.329671739	5452.204085011	1.5	0.1
0.01	1	0.0555171730002257	1	120	NA	227.157609897999	0	0.48	4.42	1	216.026955795	216.082472968	"15"	5457.329671739	5452.204085011	1.5	0.1
0.01	1	0.021857577999981	1	120	NA	227.157609897999	0	0.48	4.42	1	216.3107113	216.332568878	"15"	5457.329671739	5452.204085011	1.5	0.1
0.01	1	0.0433343710001282	1	120	NA	227.157609897999	0	0.48	4.42	1	216.561181327	216.604515698	"15"	5457.329671739	5452.204085011	1.5	0.1
0.01	1	0.0161802660004469	1	120	NA	227.157609897999	0	0.48	4.42	1	216.82823709	216.844417356	"15"	5457.329671739	5452.204085011	1.5	0.1
0.01	1	0.00748287999977038	1	120	NA	227.157609897999	0	0.48	4.42	1	217.07873228	217.086215159999	"15"	5457.329671739	5452.204085011	1.5	0.1
0.01	1	0.0117093209992163	1	120	NA	227.157609897999	0	0.48	4.42	1	217.31238043	217.324089751	"15"	5457.329671739	5452.204085011	1.5	0.1
0.01	1	0.00939916100014671	1	120	NA	227.157609897999	0	0.48	4.42	1	217.546154095	217.555553256	"15"	5457.329671739	5452.204085011	1.5	0.1
0.01	1	0.00366494999980205	1	120	NA	227.157609897999	0	0.48	4.42	1	217.796537342	217.800202292	"15"	5457.329671739	5452.204085011	1.5	0.1
0.01	1	0.00471524499971565	1	120	NA	227.157609897999	0	0.48	4.42	1	218.03029967	218.035014915	"15"	5457.329671739	5452.204085011	1.5	0.1
0.01	1	0.00207315799980279	1	120	NA	227.157609897999	0	0.48	4.42	1	218.263919015	218.265992173	"15"	5457.329671739	5452.204085011	1.5	0.1
0.01	1	0.00403959499999473	1	120	NA	227.157609897999	0	0.48	4.42	1	218.497697785	218.50173738	"15"	5457.329671739	5452.204085011	1.5	0.1
0.01	1	0.00404595899999549	1	120	NA	227.157609897999	0	0.48	4.42	1	218.731385675	218.735431634	"15"	5457.329671739	5452.204085011	1.5	0.1
0.01	1	0.00211308400048438	1	120	NA	227.157609897999	0	0.48	4.42	1	218.965211358	218.967324442	"15"	5457.329671739	5452.204085011	1.5	0.1
0.01	1	0.0022749070003556	1	120	NA	227.157609897999	0	0.48	4.42	1	219.198799452	219.201074359	"15"	5457.329671739	5452.204085011	1.5	0.1
0.01	1	0.0100165169997126	1	120	NA	227.157609897999	0	0.48	4.42	1	219.432750355	219.442766872	"15"	5457.329671739	5452.204085011	1.5	0.1
0.01	1	0.0734052929992686	1	120	NA	227.157609897999	0	0.48	4.42	1	219.666348382	219.739753675	"15"	5457.329671739	5452.204085011	1.5	0.1
0.01	1	0.00357696799983387	1	120	NA	227.157609897999	0	0.48	4.42	1	219.96677333	219.970350298	"15"	5457.329671739	5452.204085011	1.5	0.1
0.01	1	0.0278008820005198	1	120	NA	227.157609897999	0	0.48	4.42	1	220.200480717	220.228281599	"15"	5457.329671739	5452.204085011	1.5	0.1
0.01	1	0.0491933579996839	1	120	NA	227.157609897999	0	0.48	4.42	1	220.45101599	220.500209348	"15"	5457.329671739	5452.204085011	1.5	0.1
0.01	1	0.0369788899997729	1	120	NA	227.157609897999	0	0.48	4.42	1	220.7348638	220.77184269	"15"	5457.329671739	5452.204085011	1.5	0.1
0.01	1	0.0252851799996279	1	120	NA	227.157609897999	0	0.48	4.42	1	221.001926	221.02721118	"15"	5457.329671739	5452.204085011	1.5	0.1
0.01	1	0.0312758959998973	1	120	NA	227.157609897999	0	0.48	4.42	1	221.252431275	221.283707171	"15"	5457.329671739	5452.204085011	1.5	0.1
0.01	1	0.00342415200066171	1	120	NA	227.157609897999	0	0.48	4.42	1	221.519425168	221.52284932	"15"	5457.329671739	5452.204085011	1.5	0.1
0.01	1	0.0178973980000592	1	120	NA	227.157609897999	0	0.48	4.42	1	221.753181457	221.771078855	"15"	5457.329671739	5452.204085011	1.5	0.1
0.01	1	0.0151348480003435	1	120	NA	227.157609897999	0	0.48	4.42	1	222.003637215	222.018772063	"15"	5457.329671739	5452.204085011	1.5	0.1
0.01	1	0.0139545740003086	1	120	NA	227.157609897999	0	0.48	4.42	1	222.25405129	222.268005864	"15"	5457.329671739	5452.204085011	1.5	0.1
0.01	1	0.0186948529999427	1	120	NA	227.157609897999	0	0.48	4.42	1	222.50444219	222.523137043	"15"	5457.329671739	5452.204085011	1.5	0.1
0.01	1	0.00387854000018706	1	120	NA	227.157609897999	0	0.48	4.42	1	222.75475096	222.7586295	"15"	5457.329671739	5452.204085011	1.5	0.1
0.01	1	0.015479616000448	1	120	NA	227.157609897999	0	0.48	4.42	1	222.988697371999	223.004176988	"15"	5457.329671739	5452.204085011	1.5	0.1
0.01	1	0.0373933840000973	1	120	NA	227.157609897999	0	0.48	4.42	1	223.23899273	223.276386114	"15"	5457.329671739	5452.204085011	1.5	0.1
0.01	1	0.0256894840003952	1	120	NA	227.157609897999	0	0.48	4.42	1	223.506175082	223.531864566	"15"	5457.329671739	5452.204085011	1.5	0.1
0.01	1	0.0235885530000814	1	120	NA	227.157609897999	0	0.48	4.42	1	223.756517205	223.780105758	"15"	5457.329671739	5452.204085011	1.5	0.1
0.01	1	0.0291728169995622	1	120	NA	227.157609897999	0	0.48	4.42	1	224.007006265	224.036179082	"15"	5457.329671739	5452.204085011	1.5	0.1
0.01	1	0.0084919760001867	1	120	NA	227.157609897999	0	0.48	4.42	1	224.274035512	224.282527488	"15"	5457.329671739	5452.204085011	1.5	0.1
0.01	1	0.0233992719995513	1	120	NA	227.157609897999	0	0.48	4.42	1	224.50787632	224.531275591999	"15"	5457.329671739	5452.204085011	1.5	0.1
0.01	1	0.0373546030004945	1	120	NA	227.157609897999	0	0.48	4.42	1	224.758221687	224.79557629	"15"	5457.329671739	5452.204085011	1.5	0.1
0.01	1	0.00418748599986429	1	120	NA	227.157609897999	0	0.48	4.42	1	225.02535261	225.029540095999	"15"	5457.329671739	5452.204085011	1.5	0.1
0.01	1	0.03249621499981	1	120	NA	227.157609897999	0	0.48	4.42	1	225.259084485	225.2915807	"15"	5457.329671739	5452.204085011	1.5	0.1
0.01	1	0.00358310299998266	1	120	NA	227.157609897999	0	0.48	4.42	1	225.526236137	225.52981924	"15"	5457.329671739	5452.204085011	1.5	0.1
0.01	1	0.0198988980000649	1	120	NA	227.157609897999	0	0.48	4.42	1	225.759966947	225.779865845	"15"	5457.329671739	5452.204085011	1.5	0.1
0.01	1	0.00988712300022598	1	120	NA	227.157609897999	0	0.48	4.42	1	226.010359215	226.020246338	"15"	5457.329671739	5452.204085011	1.5	0.1
0.01	1	0.0238669580003261	1	120	NA	227.157609897999	0	0.48	4.42	1	226.243937194	226.267804152	"15"	5457.329671739	5452.204085011	1.5	0.1
0.01	1	0.661524932999782	NA	120	NA	227.157609897999	0	0.48	4.42	1	226.494470982	227.155995915	"15"	5457.329671739	5452.204085011	1.5	0.1
0.01	1	0.403629864000322	1	109	NA	241.492173204	0	0.41	4.83	1	229.21573207	229.619361934	"16"	5457.329671739	5452.204085011	1.5	0.1
0.01	1	0.0489847580001879	1	109	NA	241.492173204	0	0.41	4.83	1	229.850147085	229.899131843	"16"	5457.329671739	5452.204085011	1.5	0.1
0.01	1	0.00207883799976116	1	109	NA	241.492173204	0	0.41	4.83	1	230.133927914	230.136006752	"16"	5457.329671739	5452.204085011	1.5	0.1
0.01	1	0.00208119199942303	1	109	NA	241.492173204	0	0.41	4.83	1	230.367731966	230.369813157999	"16"	5457.329671739	5452.204085011	1.5	0.1
0.01	1	0.00393458300004568	1	109	NA	241.492173204	0	0.41	4.83	1	230.601409745	230.605344328	"16"	5457.329671739	5452.204085011	1.5	0.1
0.01	1	0.0160591679996287	1	109	NA	241.492173204	0	0.41	4.83	1	230.8351837	230.851242868	"16"	5457.329671739	5452.204085011	1.5	0.1
0.01	1	0.0290206790004959	1	109	NA	241.492173204	0	0.41	4.83	1	231.085568555	231.114589234	"16"	5457.329671739	5452.204085011	1.5	0.1
0.01	1	0.0182102410008156	1	109	NA	241.492173204	0	0.41	4.83	1	231.352695484999	231.370905726	"16"	5457.329671739	5452.204085011	1.5	0.1
0.01	1	0.0408478030003607	1	109	NA	241.492173204	0	0.41	4.83	1	231.603058262	231.643906065	"16"	5457.329671739	5452.204085011	1.5	0.1
0.01	1	0.0443092650002654	1	109	NA	241.492173204	0	0.41	4.83	1	231.870152734999	231.914462	"16"	5457.329671739	5452.204085011	1.5	0.1
0.01	1	0.018449168999723	1	109	NA	241.492173204	0	0.41	4.83	1	232.137329209	232.155778378	"16"	5457.329671739	5452.204085011	1.5	0.1
0.01	1	0.0233003399998779	1	109	NA	241.492173204	0	0.41	4.83	1	232.387767054	232.411067393999	"16"	5457.329671739	5452.204085011	1.5	0.1
0.01	1	0.0448462730000756	1	109	NA	241.492173204	0	0.41	4.83	1	232.638171995	232.683018268	"16"	5457.329671739	5452.204085011	1.5	0.1
0.01	1	0.0407646599996951	1	109	NA	241.492173204	0	0.41	4.83	1	232.921872322	232.962636982	"16"	5457.329671739	5452.204085011	1.5	0.1
0.01	1	0.0625658190001559	1	109	NA	241.492173204	0	0.41	4.83	1	233.18901769	233.251583509	"16"	5457.329671739	5452.204085011	1.5	0.1
0.01	1	0.0736739350004427	1	109	NA	241.492173204	0	0.41	4.83	1	233.489546629999	233.563220565	"16"	5457.329671739	5452.204085011	1.5	0.1
0.01	1	0.0285649580000609	1	109	NA	241.492173204	0	0.41	4.83	1	233.790127415999	233.818692374	"16"	5457.329671739	5452.204085011	1.5	0.1
0.01	1	0.0589905590004491	1	109	NA	241.492173204	0	0.41	4.83	1	234.040423216999	234.099413776	"16"	5457.329671739	5452.204085011	1.5	0.1
0.01	1	0.0712990920001175	1	109	NA	241.492173204	0	0.41	4.83	1	234.32424923	234.395548322	"16"	5457.329671739	5452.204085011	1.5	0.1
0.01	1	0.0671070629996393	1	109	NA	241.492173204	0	0.41	4.83	1	234.624881505	234.691988568	"16"	5457.329671739	5452.204085011	1.5	0.1
0.01	1	0.101644637999925	1	109	NA	241.492173204	0	0.41	4.83	1	234.925422277	235.027066915	"16"	5457.329671739	5452.204085011	1.5	0.1
0.01	1	0.0252094349998515	1	109	NA	241.492173204	0	0.41	4.83	1	235.259196002	235.284405437	"16"	5457.329671739	5452.204085011	1.5	0.1
0.01	1	0.0535128320007061	1	109	NA	241.492173204	0	0.41	4.83	1	235.509612596999	235.563125429	"16"	5457.329671739	5452.204085011	1.5	0.1
0.01	1	0.0576165909997144	1	109	NA	241.492173204	0	0.41	4.83	1	235.79341168	235.851028270999	"16"	5457.329671739	5452.204085011	1.5	0.1
0.01	1	0.0386986290004643	1	109	NA	241.492173204	0	0.41	4.83	1	236.077292757	236.115991386	"16"	5457.329671739	5452.204085011	1.5	0.1
0.01	1	0.0348471670004074	1	109	NA	241.492173204	0	0.41	4.83	1	236.34448627	236.379333437	"16"	5457.329671739	5452.204085011	1.5	0.1
0.01	1	0.031171782000456	1	109	NA	241.492173204	0	0.41	4.83	1	236.611475395	236.642647177	"16"	5457.329671739	5452.204085011	1.5	0.1
0.01	1	0.0199734600000738	1	109	NA	241.492173204	0	0.41	4.83	1	236.878655875	236.898629335	"16"	5457.329671739	5452.204085011	1.5	0.1
0.01	1	0.0424245980002524	1	109	NA	241.492173204	0	0.41	4.83	1	237.12908483	237.171509428	"16"	5457.329671739	5452.204085011	1.5	0.1
0.01	1	0.0469069569999192	1	109	NA	241.492173204	0	0.41	4.83	1	237.39614544	237.443052397	"16"	5457.329671739	5452.204085011	1.5	0.1
0.01	1	0.0195966960000078	1	109	NA	241.492173204	0	0.41	4.83	1	237.67999197	237.699588666	"16"	5457.329671739	5452.204085011	1.5	0.1
0.01	1	0.032318898000085	1	109	NA	241.492173204	0	0.41	4.83	1	237.930442645	237.962761543	"16"	5457.329671739	5452.204085011	1.5	0.1
0.01	1	0.029215691999525	1	109	NA	241.492173204	0	0.41	4.83	1	238.197527387	238.226743079	"16"	5457.329671739	5452.204085011	1.5	0.1
0.01	1	0.0270126360001086	1	109	NA	241.492173204	0	0.41	4.83	1	238.464606195	238.491618831	"16"	5457.329671739	5452.204085011	1.5	0.1
0.01	1	0.0160132359997078	1	109	NA	241.492173204	0	0.41	4.83	1	238.73168469	238.747697926	"16"	5457.329671739	5452.204085011	1.5	0.1
0.01	1	0.028906415000165	1	109	NA	241.492173204	0	0.41	4.83	1	238.982157242	239.011063657	"16"	5457.329671739	5452.204085011	1.5	0.1
0.01	1	0.0430436750002627	1	109	NA	241.492173204	0	0.41	4.83	1	239.24932906	239.292372735	"16"	5457.329671739	5452.204085011	1.5	0.1
0.01	1	0.0302683359996081	1	109	NA	241.492173204	0	0.41	4.83	1	239.516403609	239.546671945	"16"	5457.329671739	5452.204085011	1.5	0.1
0.01	1	0.0359185600000274	1	109	NA	241.492173204	0	0.41	4.83	1	239.783522205	239.819440765	"16"	5457.329671739	5452.204085011	1.5	0.1
0.01	1	0.097644787999343	1	109	NA	241.492173204	0	0.41	4.83	1	240.050619669	240.148264457	"16"	5457.329671739	5452.204085011	1.5	0.1
0.01	1	0.123691916000098	1	109	NA	241.492173204	0	0.41	4.83	1	240.384494502	240.508186418	"16"	5457.329671739	5452.204085011	1.5	0.1
0.01	1	0.75554368199937	NA	109	NA	241.492173204	0	0.41	4.83	1	240.73507167	241.490615352	"16"	5457.329671739	5452.204085011	1.5	0.1
0.01	1	1.02348422500017	1	71	NA	256.972440087	0	0.48	5.31	1	243.539839874999	244.5633241	"17"	5457.329671739	5452.204085011	1.5	0.1
0.01	1	0.00411940800040611	1	71	NA	256.972440087	0	0.48	5.31	1	244.79207989	244.796199298	"17"	5457.329671739	5452.204085011	1.5	0.1
0.01	1	0.0258008470000277	1	71	NA	256.972440087	0	0.48	5.31	1	245.025685247	245.051486094	"17"	5457.329671739	5452.204085011	1.5	0.1
0.01	1	0.0391800759998659	1	71	NA	256.972440087	0	0.48	5.31	1	245.276077662	245.315257738	"17"	5457.329671739	5452.204085011	1.5	0.1
0.01	1	0.0121867299994847	1	71	NA	256.972440087	0	0.48	5.31	1	245.543204505	245.555391235	"17"	5457.329671739	5452.204085011	1.5	0.1
0.01	1	0.00992690499970195	1	71	NA	256.972440087	0	0.48	5.31	1	245.793555207	245.803482112	"17"	5457.329671739	5452.204085011	1.5	0.1
0.01	1	0.0311662639996939	1	71	NA	256.972440087	0	0.48	5.31	1	246.02733627	246.058502534	"17"	5457.329671739	5452.204085011	1.5	0.1
0.01	1	0.007131778999792	1	71	NA	256.972440087	0	0.48	5.31	1	246.294426197	246.301557975999	"17"	5457.329671739	5452.204085011	1.5	0.1
0.01	1	0.0195338899993658	1	71	NA	256.972440087	0	0.48	5.31	1	246.528213237	246.547747127	"17"	5457.329671739	5452.204085011	1.5	0.1
0.01	1	0.0246492989999751	1	71	NA	256.972440087	0	0.48	5.31	1	246.778539969	246.803189268	"17"	5457.329671739	5452.204085011	1.5	0.1
0.01	1	0.0312790640000458	1	71	NA	256.972440087	0	0.48	5.31	1	247.02908502	247.060364084	"17"	5457.329671739	5452.204085011	1.5	0.1
0.01	1	0.0116538689999288	1	71	NA	256.972440087	0	0.48	5.31	1	247.296157337	247.307811206	"17"	5457.329671739	5452.204085011	1.5	0.1
0.01	1	0.0257483820005291	1	71	NA	256.972440087	0	0.48	5.31	1	247.5298766	247.555624982	"17"	5457.329671739	5452.204085011	1.5	0.1
0.01	1	0.0233514210003705	1	71	NA	256.972440087	0	0.48	5.31	1	247.780384055	247.803735476	"17"	5457.329671739	5452.204085011	1.5	0.1
0.01	1	0.0117679710001539	1	71	NA	256.972440087	0	0.48	5.31	1	248.03082485	248.042592821	"17"	5457.329671739	5452.204085011	1.5	0.1
0.01	1	0.0434686589997	1	71	NA	256.972440087	0	0.48	5.31	1	248.26443304	248.307901699	"17"	5457.329671739	5452.204085011	1.5	0.1
0.01	1	0.0407999779999955	1	71	NA	256.972440087	0	0.48	5.31	1	248.531529677	248.572329655	"17"	5457.329671739	5452.204085011	1.5	0.1
0.01	1	0.0138998540005559	1	71	NA	256.972440087	0	0.48	5.31	1	248.79873972	248.812639574	"17"	5457.329671739	5452.204085011	1.5	0.1
0.01	1	0.00313990799986641	1	71	NA	256.972440087	0	0.48	5.31	1	249.049007932	249.05214784	"17"	5457.329671739	5452.204085011	1.5	0.1
0.01	1	0.0249040999997305	1	71	NA	256.972440087	0	0.48	5.31	1	249.282888455	249.307792555	"17"	5457.329671739	5452.204085011	1.5	0.1
0.01	1	0.0294652809998297	1	71	NA	256.972440087	0	0.48	5.31	1	249.533162417	249.562627698	"17"	5457.329671739	5452.204085011	1.5	0.1
0.01	1	0.03484680100064	1	71	NA	256.972440087	0	0.48	5.31	1	249.800447903	249.835294704	"17"	5457.329671739	5452.204085011	1.5	0.1
0.01	1	0.00403645300048083	1	71	NA	256.972440087	0	0.48	5.31	1	250.067478847	250.0715153	"17"	5457.329671739	5452.204085011	1.5	0.1
0.01	1	0.00711301699993783	1	71	NA	256.972440087	0	0.48	5.31	1	250.301209847	250.308322864	"17"	5457.329671739	5452.204085011	1.5	0.1
0.01	1	0.0293674690001353	1	71	NA	256.972440087	0	0.48	5.31	1	250.534910177	250.564277646	"17"	5457.329671739	5452.204085011	1.5	0.1
0.01	1	0.00961619400004565	1	71	NA	256.972440087	0	0.48	5.31	1	250.801977207	250.811593401	"17"	5457.329671739	5452.204085011	1.5	0.1
0.01	1	0.0156595950002156	1	71	NA	256.972440087	0	0.48	5.31	1	251.035716755	251.05137635	"17"	5457.329671739	5452.204085011	1.5	0.1
0.01	1	0.00700775699988299	1	71	NA	256.972440087	0	0.48	5.31	1	251.286212157	251.293219914	"17"	5457.329671739	5452.204085011	1.5	0.1
0.01	1	0.00397643500036793	1	71	NA	256.972440087	0	0.48	5.31	1	251.519854755	251.52383119	"17"	5457.329671739	5452.204085011	1.5	0.1
0.01	1	0.0175473510007578	1	71	NA	256.972440087	0	0.48	5.31	1	251.753674137	251.771221488	"17"	5457.329671739	5452.204085011	1.5	0.1
0.01	1	0.0238321730003008	1	71	NA	256.972440087	0	0.48	5.31	1	252.004160195	252.027992368	"17"	5457.329671739	5452.204085011	1.5	0.1
0.01	1	0.00344503399992391	1	71	NA	256.972440087	0	0.48	5.31	1	252.254452568	252.257897602	"17"	5457.329671739	5452.204085011	1.5	0.1
0.01	1	0.00454366199937795	1	71	NA	256.972440087	0	0.48	5.31	1	252.48821828	252.492761942	"17"	5457.329671739	5452.204085011	1.5	0.1
0.01	1	0.0335210190005455	1	71	NA	256.972440087	0	0.48	5.31	1	252.721976145	252.755497164	"17"	5457.329671739	5452.204085011	1.5	0.1
0.01	1	0.0138452770006552	1	71	NA	256.972440087	0	0.48	5.31	1	252.988960225	253.002805502	"17"	5457.329671739	5452.204085011	1.5	0.1
0.01	1	0.0279592869992484	1	71	NA	256.972440087	0	0.48	5.31	1	253.239557955	253.267517241999	"17"	5457.329671739	5452.204085011	1.5	0.1
0.01	1	0.0493634869999369	1	71	NA	256.972440087	0	0.48	5.31	1	253.489991719	253.539355206	"17"	5457.329671739	5452.204085011	1.5	0.1
0.01	1	0.0140337140001066	1	71	NA	256.972440087	0	0.48	5.31	1	253.77365835	253.787692064	"17"	5457.329671739	5452.204085011	1.5	0.1
0.01	1	0.0112602449999031	1	71	NA	256.972440087	0	0.48	5.31	1	254.024200145	254.03546039	"17"	5457.329671739	5452.204085011	1.5	0.1
0.01	1	0.0179781130000265	1	71	NA	256.972440087	0	0.48	5.31	1	254.257882815	254.275860928	"17"	5457.329671739	5452.204085011	1.5	0.1
0.01	1	0.0236080209997453	1	71	NA	256.972440087	0	0.48	5.31	1	254.508221307	254.531829328	"17"	5457.329671739	5452.204085011	1.5	0.1
0.01	1	0.0289240649999556	1	71	NA	256.972440087	0	0.48	5.31	1	254.7587187	254.787642765	"17"	5457.329671739	5452.204085011	1.5	0.1
0.01	1	0.00917539300007775	1	71	NA	256.972440087	0	0.48	5.31	1	255.025770047	255.03494544	"17"	5457.329671739	5452.204085011	1.5	0.1
0.01	1	0.0314918400008537	1	71	NA	256.972440087	0	0.48	5.31	1	255.259488496999	255.290980337	"17"	5457.329671739	5452.204085011	1.5	0.1
0.01	1	0.0137550890003695	1	71	NA	256.972440087	0	0.48	5.31	1	255.5266518	255.540406889	"17"	5457.329671739	5452.204085011	1.5	0.1
0.01	1	0.00415611600055854	1	71	NA	256.972440087	0	0.48	5.31	1	255.777158981999	255.781315098	"17"	5457.329671739	5452.204085011	1.5	0.1
0.01	1	0.00259249999999156	1	71	NA	256.972440087	0	0.48	5.31	1	256.010769764	256.013362264	"17"	5457.329671739	5452.204085011	1.5	0.1
0.01	1	0.0237512999992759	1	71	NA	256.972440087	0	0.48	5.31	1	256.244522277	256.268273576999	"17"	5457.329671739	5452.204085011	1.5	0.1
0.01	1	0.475908571999753	NA	71	NA	256.972440087	0	0.48	5.31	1	256.494974377	256.970882949	"17"	5457.329671739	5452.204085011	1.5	0.1
0.01	1	0.587699832999533	1	96	NA	275.605602323	0	0.57	5.88	1	259.015830288	259.603530120999	"18"	5457.329671739	5452.204085011	1.5	0.1
0.01	1	0.00238613999954396	1	96	NA	275.605602323	0	0.57	5.88	1	259.833903048	259.836289188	"18"	5457.329671739	5452.204085011	1.5	0.1
0.01	1	0.00217997499930789	1	96	NA	275.605602323	0	0.57	5.88	1	260.06769693	260.069876905	"18"	5457.329671739	5452.204085011	1.5	0.1
0.01	1	0.0135988550000548	1	96	NA	275.605602323	0	0.57	5.88	1	260.30128297	260.314881825	"18"	5457.329671739	5452.204085011	1.5	0.1
0.01	1	0.0447508659999585	1	96	NA	275.605602323	0	0.57	5.88	1	260.55175878	260.596509646	"18"	5457.329671739	5452.204085011	1.5	0.1
0.01	1	0.0164940470003785	1	96	NA	275.605602323	0	0.57	5.88	1	260.818801169999	260.835295217	"18"	5457.329671739	5452.204085011	1.5	0.1
0.01	1	0.0373322710001958	1	96	NA	275.605602323	0	0.57	5.88	1	261.069357894999	261.106690166	"18"	5457.329671739	5452.204085011	1.5	0.1
0.01	1	0.074961379999877	1	96	NA	275.605602323	0	0.57	5.88	1	261.33644024	261.41140162	"18"	5457.329671739	5452.204085011	1.5	0.1
0.01	1	0.0455369950004751	1	96	NA	275.605602323	0	0.57	5.88	1	261.636916644999	261.68245364	"18"	5457.329671739	5452.204085011	1.5	0.1
0.01	1	0.0823216939998019	1	96	NA	275.605602323	0	0.57	5.88	1	261.9208139	262.003135594	"18"	5457.329671739	5452.204085011	1.5	0.1
0.01	1	0.04462866600079	1	96	NA	275.605602323	0	0.57	5.88	1	262.237954196999	262.282582863	"18"	5457.329671739	5452.204085011	1.5	0.1
0.01	1	0.049762436000492	1	96	NA	275.605602323	0	0.57	5.88	1	262.504985555	262.554747991	"18"	5457.329671739	5452.204085011	1.5	0.1
0.01	1	0.0393677179999941	1	96	NA	275.605602323	0	0.57	5.88	1	262.788830382	262.8281981	"18"	5457.329671739	5452.204085011	1.5	0.1
0.01	1	0.0678876530000707	1	96	NA	275.605602323	0	0.57	5.88	1	263.056058665	263.123946318	"18"	5457.329671739	5452.204085011	1.5	0.1
0.01	1	0.0220625239999208	1	96	NA	275.605602323	0	0.57	5.88	1	263.356420622	263.378483146	"18"	5457.329671739	5452.204085011	1.5	0.1
0.01	1	0.0294622259998505	1	96	NA	275.605602323	0	0.57	5.88	1	263.60694804	263.636410266	"18"	5457.329671739	5452.204085011	1.5	0.1
0.01	1	0.0180229739999049	1	96	NA	275.605602323	0	0.57	5.88	1	263.874074955	263.892097929	"18"	5457.329671739	5452.204085011	1.5	0.1
0.01	1	0.0141566940001212	1	96	NA	275.605602323	0	0.57	5.88	1	264.124521977	264.138678671	"18"	5457.329671739	5452.204085011	1.5	0.1
0.01	1	0.0450600469994242	1	96	NA	275.605602323	0	0.57	5.88	1	264.374856882	264.419916929	"18"	5457.329671739	5452.204085011	1.5	0.1
0.01	1	0.0409381469999062	1	96	NA	275.605602323	0	0.57	5.88	1	264.64198355	264.682921697	"18"	5457.329671739	5452.204085011	1.5	0.1
0.01	1	0.0469617239996296	1	96	NA	275.605602323	0	0.57	5.88	1	264.909128047	264.956089771	"18"	5457.329671739	5452.204085011	1.5	0.1
0.01	1	0.0337339300003805	1	96	NA	275.605602323	0	0.57	5.88	1	265.192929817	265.226663747	"18"	5457.329671739	5452.204085011	1.5	0.1
0.01	1	0.010061283000141	1	96	NA	275.605602323	0	0.57	5.88	1	265.460018297	265.47007958	"18"	5457.329671739	5452.204085011	1.5	0.1
0.01	1	0.044573111000318	1	96	NA	275.605602323	0	0.57	5.88	1	265.710443495	265.755016606	"18"	5457.329671739	5452.204085011	1.5	0.1
0.01	1	0.0423624610002662	1	96	NA	275.605602323	0	0.57	5.88	1	265.977522925	266.019885386	"18"	5457.329671739	5452.204085011	1.5	0.1
0.01	1	0.0313221850001355	1	96	NA	275.605602323	0	0.57	5.88	1	266.244659125	266.27598131	"18"	5457.329671739	5452.204085011	1.5	0.1
0.01	1	0.0366662630003702	1	96	NA	275.605602323	0	0.57	5.88	1	266.511739162	266.548405425	"18"	5457.329671739	5452.204085011	1.5	0.1
0.01	1	0.0322608340002262	1	96	NA	275.605602323	0	0.57	5.88	1	266.778963228	266.811224062	"18"	5457.329671739	5452.204085011	1.5	0.1
0.01	1	0.0463969470001757	1	96	NA	275.605602323	0	0.57	5.88	1	267.04605287	267.092449817	"18"	5457.329671739	5452.204085011	1.5	0.1
0.01	1	0.0180347570003505	1	96	NA	275.605602323	0	0.57	5.88	1	267.329872935	267.347907692	"18"	5457.329671739	5452.204085011	1.5	0.1
0.01	1	0.0306749679994027	1	96	NA	275.605602323	0	0.57	5.88	1	267.580316337	267.610991305	"18"	5457.329671739	5452.204085011	1.5	0.1
0.01	1	0.0522722269997757	1	96	NA	275.605602323	0	0.57	5.88	1	267.847566585	267.899838812	"18"	5457.329671739	5452.204085011	1.5	0.1
0.01	1	0.0115171829993415	1	96	NA	275.605602323	0	0.57	5.88	1	268.131213325	268.142730508	"18"	5457.329671739	5452.204085011	1.5	0.1
0.01	1	0.0137843619995692	1	96	NA	275.605602323	0	0.57	5.88	1	268.364847107	268.378631469	"18"	5457.329671739	5452.204085011	1.5	0.1
0.01	1	0.00802590300008887	1	96	NA	275.605602323	0	0.57	5.88	1	268.615404039	268.623429942	"18"	5457.329671739	5452.204085011	1.5	0.1
0.01	1	0.067421187999571	1	96	NA	275.605602323	0	0.57	5.88	1	268.84899501	268.916416198	"18"	5457.329671739	5452.204085011	1.5	0.1
0.01	1	0.0289755949997925	1	96	NA	275.605602323	0	0.57	5.88	1	269.14955166	269.178527255	"18"	5457.329671739	5452.204085011	1.5	0.1
0.01	1	0.025667137999335	1	96	NA	275.605602323	0	0.57	5.88	1	269.416774522	269.44244166	"18"	5457.329671739	5452.204085011	1.5	0.1
0.01	1	0.04856032600037	1	96	NA	275.605602323	0	0.57	5.88	1	269.66713192	269.715692246	"18"	5457.329671739	5452.204085011	1.5	0.1
0.01	1	0.00354844799949205	1	96	NA	275.605602323	0	0.57	5.88	1	269.950877276	269.954425724	"18"	5457.329671739	5452.204085011	1.5	0.1
0.01	1	0.066013464000207	1	96	NA	275.605602323	0	0.57	5.88	1	270.184588122	270.250601586	"18"	5457.329671739	5452.204085011	1.5	0.1
0.01	1	0.0694257010000001	1	96	NA	275.605602323	0	0.57	5.88	1	270.48522355	270.554649251	"18"	5457.329671739	5452.204085011	1.5	0.1
0.01	1	0.0328942659998575	1	96	NA	275.605602323	0	0.57	5.88	1	270.78562602	270.818520286	"18"	5457.329671739	5452.204085011	1.5	0.1
0.01	1	0.0141439549997813	1	96	NA	275.605602323	0	0.57	5.88	1	271.0526823	271.066826255	"18"	5457.329671739	5452.204085011	1.5	0.1
0.01	1	0.0201428000000305	1	96	NA	275.605602323	0	0.57	5.88	1	271.303202197	271.323344997	"18"	5457.329671739	5452.204085011	1.5	0.1
0.01	1	0.0429216869997617	1	96	NA	275.605602323	0	0.57	5.88	1	271.553597387	271.596519074	"18"	5457.329671739	5452.204085011	1.5	0.1
0.01	1	0.23853669699929	1	96	NA	275.605602323	0	0.57	5.88	1	271.837354432	272.075891129	"18"	5457.329671739	5452.204085011	1.5	0.1
0.01	1	0.0500786980001067	1	96	NA	275.605602323	0	0.57	5.88	1	272.305000957	272.355079655	"18"	5457.329671739	5452.204085011	1.5	0.1
0.01	1	0.0547852130002866	1	96	NA	275.605602323	0	0.57	5.88	1	272.588765355	272.643550568	"18"	5457.329671739	5452.204085011	1.5	0.1
0.01	1	0.0421281779999845	1	96	NA	275.605602323	0	0.57	5.88	1	272.872434602	272.91456278	"18"	5457.329671739	5452.204085011	1.5	0.1
0.01	1	0.00998859100036498	1	96	NA	275.605602323	0	0.57	5.88	1	273.139627127	273.149615718	"18"	5457.329671739	5452.204085011	1.5	0.1
0.01	1	0.0143035430000964	1	96	NA	275.605602323	0	0.57	5.88	1	273.373423272	273.387726815	"18"	5457.329671739	5452.204085011	1.5	0.1
0.01	1	0.0195596639996438	1	96	NA	275.605602323	0	0.57	5.88	1	273.623749992	273.643309655999	"18"	5457.329671739	5452.204085011	1.5	0.1
0.01	1	0.018187515000136	1	96	NA	275.605602323	0	0.57	5.88	1	273.874108	273.892295515	"18"	5457.329671739	5452.204085011	1.5	0.1
0.01	1	0.231962159999966	1	96	NA	275.605602323	0	0.57	5.88	1	274.12456409	274.35652625	"18"	5457.329671739	5452.204085011	1.5	0.1
0.01	1	0.0519130200000291	1	96	NA	275.605602323	0	0.57	5.88	1	274.592112642	274.644025662	"18"	5457.329671739	5452.204085011	1.5	0.1
0.01	1	0.0550531610006146	1	96	NA	275.605602323	0	0.57	5.88	1	274.875899825	274.930952986	"18"	5457.329671739	5452.204085011	1.5	0.1
0.01	1	0.444296673000281	NA	96	NA	275.605602323	0	0.57	5.88	1	275.159690134999	275.603986808	"18"	5457.329671739	5452.204085011	1.5	0.1
0.01	1	0.796716613000171	1	91	NA	290.981328239	0	0.48	6.36	1	277.630507662	278.427224275	"19"	5457.329671739	5452.204085011	1.5	0.1
0.01	1	0.0258525580002242	1	91	NA	290.981328239	0	0.48	6.36	1	278.66560845	278.691461008	"19"	5457.329671739	5452.204085011	1.5	0.1
0.01	1	0.0326525560003574	1	91	NA	290.981328239	0	0.48	6.36	1	278.91591256	278.948565116	"19"	5457.329671739	5452.204085011	1.5	0.1
0.01	1	0.011237933999837	1	91	NA	290.981328239	0	0.48	6.36	1	279.183180297	279.194418231	"19"	5457.329671739	5452.204085011	1.5	0.1
0.01	1	0.026156367999647	1	91	NA	290.981328239	0	0.48	6.36	1	279.41687044	279.443026808	"19"	5457.329671739	5452.204085011	1.5	0.1
0.01	1	0.0246557049995317	1	91	NA	290.981328239	0	0.48	6.36	1	279.667327592	279.691983297	"19"	5457.329671739	5452.204085011	1.5	0.1
0.01	1	0.0072885640001914	1	91	NA	290.981328239	0	0.48	6.36	1	279.91770873	279.924997294	"19"	5457.329671739	5452.204085011	1.5	0.1
0.01	1	0.019476319000205	1	91	NA	290.981328239	0	0.48	6.36	1	280.151486955	280.170963274	"19"	5457.329671739	5452.204085011	1.5	0.1
0.01	1	0.0183015640004669	1	91	NA	290.981328239	0	0.48	6.36	1	280.401849485	280.420151049	"19"	5457.329671739	5452.204085011	1.5	0.1
0.01	1	0.0083341070003371	1	91	NA	290.981328239	0	0.48	6.36	1	280.652260995	280.660595102	"19"	5457.329671739	5452.204085011	1.5	0.1
0.01	1	0.02236350900057	1	91	NA	290.981328239	0	0.48	6.36	1	280.886025577	280.908389086	"19"	5457.329671739	5452.204085011	1.5	0.1
0.01	1	0.0428781939999681	1	91	NA	290.981328239	0	0.48	6.36	1	281.13643496	281.179313154	"19"	5457.329671739	5452.204085011	1.5	0.1
0.01	1	0.0316314470001089	1	91	NA	290.981328239	0	0.48	6.36	1	281.403511975	281.435143422	"19"	5457.329671739	5452.204085011	1.5	0.1
0.01	1	0.0292144080003709	1	91	NA	290.981328239	0	0.48	6.36	1	281.67062483	281.699839238	"19"	5457.329671739	5452.204085011	1.5	0.1
0.01	1	0.0327546850003273	1	91	NA	290.981328239	0	0.48	6.36	1	281.937777695	281.97053238	"19"	5457.329671739	5452.204085011	1.5	0.1
0.01	1	0.0234867999997732	1	91	NA	290.981328239	0	0.48	6.36	1	282.20495768	282.22844448	"19"	5457.329671739	5452.204085011	1.5	0.1
0.01	1	0.0358771740002339	1	91	NA	290.981328239	0	0.48	6.36	1	282.455290995	282.491168169	"19"	5457.329671739	5452.204085011	1.5	0.1
0.01	1	0.033885238000039	1	91	NA	290.981328239	0	0.48	6.36	1	282.722353862	282.7562391	"19"	5457.329671739	5452.204085011	1.5	0.1
0.01	1	0.0146241309994366	1	91	NA	290.981328239	0	0.48	6.36	1	282.989443425	283.004067555999	"19"	5457.329671739	5452.204085011	1.5	0.1
0.01	1	0.0278862090008261	1	91	NA	290.981328239	0	0.48	6.36	1	283.239921724999	283.267807934	"19"	5457.329671739	5452.204085011	1.5	0.1
0.01	1	0.0329435319999902	1	91	NA	290.981328239	0	0.48	6.36	1	283.49035494	283.523298472	"19"	5457.329671739	5452.204085011	1.5	0.1
0.01	1	0.0140545909998764	1	91	NA	290.981328239	0	0.48	6.36	1	283.75752569	283.771580281	"19"	5457.329671739	5452.204085011	1.5	0.1
0.01	1	0.0194351919999463	1	91	NA	290.981328239	0	0.48	6.36	1	284.007992025	284.027427217	"19"	5457.329671739	5452.204085011	1.5	0.1
0.01	1	0.0336679579995689	1	91	NA	290.981328239	0	0.48	6.36	1	284.258359302	284.292027259999	"19"	5457.329671739	5452.204085011	1.5	0.1
0.01	1	0.022557925000001	1	91	NA	290.981328239	0	0.48	6.36	1	284.52536377	284.547921695	"19"	5457.329671739	5452.204085011	1.5	0.1
0.01	1	0.0271359879998272	1	91	NA	290.981328239	0	0.48	6.36	1	284.775911817	284.803047805	"19"	5457.329671739	5452.204085011	1.5	0.1
0.01	1	0.0175135070003307	1	91	NA	290.981328239	0	0.48	6.36	1	285.042988955	285.060502462	"19"	5457.329671739	5452.204085011	1.5	0.1
0.01	1	0.0214130840004145	1	91	NA	290.981328239	0	0.48	6.36	1	285.293367462	285.314780546	"19"	5457.329671739	5452.204085011	1.5	0.1
0.01	1	0.0194845890000579	1	91	NA	290.981328239	0	0.48	6.36	1	285.543790485	285.563275074	"19"	5457.329671739	5452.204085011	1.5	0.1
0.01	1	0.0184902680002779	1	91	NA	290.981328239	0	0.48	6.36	1	285.794186057	285.812676325	"19"	5457.329671739	5452.204085011	1.5	0.1
0.01	1	0.0237791299996388	1	91	NA	290.981328239	0	0.48	6.36	1	286.04467293	286.06845206	"19"	5457.329671739	5452.204085011	1.5	0.1
0.01	1	0.0272915620007552	1	91	NA	290.981328239	0	0.48	6.36	1	286.295148026999	286.322439589	"19"	5457.329671739	5452.204085011	1.5	0.1
0.01	1	0.0258528340000339	1	91	NA	290.981328239	0	0.48	6.36	1	286.545540055	286.571392889	"19"	5457.329671739	5452.204085011	1.5	0.1
0.01	1	0.0391887840005438	1	91	NA	290.981328239	0	0.48	6.36	1	286.79583011	286.835018894	"19"	5457.329671739	5452.204085011	1.5	0.1
0.01	1	0.0445650879992172	1	91	NA	290.981328239	0	0.48	6.36	1	287.063068917	287.107634004999	"19"	5457.329671739	5452.204085011	1.5	0.1
0.01	1	0.0178581430000122	1	91	NA	290.981328239	0	0.48	6.36	1	287.330132845	287.347990988	"19"	5457.329671739	5452.204085011	1.5	0.1
0.01	1	0.0159281009991901	1	91	NA	290.981328239	0	0.48	6.36	1	287.580610445	287.596538545999	"19"	5457.329671739	5452.204085011	1.5	0.1
0.01	1	0.0120616149997659	1	91	NA	290.981328239	0	0.48	6.36	1	287.830949597	287.843011212	"19"	5457.329671739	5452.204085011	1.5	0.1
0.01	1	0.0419070620000639	1	91	NA	290.981328239	0	0.48	6.36	1	288.08143036	288.123337422	"19"	5457.329671739	5452.204085011	1.5	0.1
0.01	1	0.0315108710001368	1	91	NA	290.981328239	0	0.48	6.36	1	288.348557235	288.380068106	"19"	5457.329671739	5452.204085011	1.5	0.1
0.01	1	0.044477776000349	1	91	NA	290.981328239	0	0.48	6.36	1	288.61564537	288.660123146	"19"	5457.329671739	5452.204085011	1.5	0.1
0.01	1	0.049284458999864	1	91	NA	290.981328239	0	0.48	6.36	1	288.88278645	288.932070909	"19"	5457.329671739	5452.204085011	1.5	0.1
0.01	1	0.0212296249992505	1	91	NA	290.981328239	0	0.48	6.36	1	289.166525112	289.187754737	"19"	5457.329671739	5452.204085011	1.5	0.1
