"payoff.level"	"balloon"	"rt"	"resp"	"explode.trial"	"explode.time"	"finish.time"	"exploded"	"trial.total"	"cumulative.total"	"finished"	"trial.start"	"trial.end"	"trial.num"	"secs"	"start.time"	"iti"	"isi"
0.01	1	3.574402773	1	64	NA	30.789580068	0	0.34	0.34	1	0.0142779009999856	3.58868067399999	"1"	687.618849766	680.645137908	1.5	0.1
0.01	1	0.592426705999998	1	64	NA	30.789580068	0	0.34	0.34	1	3.970733513	4.563160219	"1"	687.618849766	680.645137908	1.5	0.1
0.01	1	0.447978092999989	1	64	NA	30.789580068	0	0.34	0.34	1	4.788859481	5.23683757399999	"1"	687.618849766	680.645137908	1.5	0.1
0.01	1	0.371565459999999	1	64	NA	30.789580068	0	0.34	0.34	1	5.473352226	5.844917686	"1"	687.618849766	680.645137908	1.5	0.1
0.01	1	0.282250898000001	1	64	NA	30.789580068	0	0.34	0.34	1	6.07442021599999	6.35667111399999	"1"	687.618849766	680.645137908	1.5	0.1
0.01	1	0.276337980999983	1	64	NA	30.789580068	0	0.34	0.34	1	6.59192949300001	6.86826747399999	"1"	687.618849766	680.645137908	1.5	0.1
0.01	1	0.277629950000005	1	64	NA	30.789580068	0	0.34	0.34	1	7.10954873599999	7.387178686	"1"	687.618849766	680.645137908	1.5	0.1
0.01	1	0.217063819000003	1	64	NA	30.789580068	0	0.34	0.34	1	7.61030320099999	7.82736702	"1"	687.618849766	680.645137908	1.5	0.1
0.01	1	0.063678699999997	1	64	NA	30.789580068	0	0.34	0.34	1	8.06110243099999	8.12478113099999	"1"	687.618849766	680.645137908	1.5	0.1
0.01	1	0.105854813999997	1	64	NA	30.789580068	0	0.34	0.34	1	8.36151991700001	8.46737473100001	"1"	687.618849766	680.645137908	1.5	0.1
0.01	1	0.572186668000001	1	64	NA	30.789580068	0	0.34	0.34	1	8.695558968	9.267745636	"1"	687.618849766	680.645137908	1.5	0.1
0.01	1	0.379851766999991	1	64	NA	30.789580068	0	0.34	0.34	1	9.49687088100001	9.876722648	"1"	687.618849766	680.645137908	1.5	0.1
0.01	1	0.568529447999992	1	64	NA	30.789580068	0	0.34	0.34	1	10.11451552	10.683044968	"1"	687.618849766	680.645137908	1.5	0.1
0.01	1	0.424002860999991	1	64	NA	30.789580068	0	0.34	0.34	1	10.915873788	11.339876649	"1"	687.618849766	680.645137908	1.5	0.1
0.01	1	0.333900835999998	1	64	NA	30.789580068	0	0.34	0.34	1	11.566933011	11.900833847	"1"	687.618849766	680.645137908	1.5	0.1
0.01	1	0.542334971000002	1	64	NA	30.789580068	0	0.34	0.34	1	12.134620186	12.676955157	"1"	687.618849766	680.645137908	1.5	0.1
0.01	1	0.350323547000016	1	64	NA	30.789580068	0	0.34	0.34	1	12.902533431	13.252856978	"1"	687.618849766	680.645137908	1.5	0.1
0.01	1	0.32525638300001	1	64	NA	30.789580068	0	0.34	0.34	1	13.486824813	13.812081196	"1"	687.618849766	680.645137908	1.5	0.1
0.01	1	0.334247925	1	64	NA	30.789580068	0	0.34	0.34	1	14.037819498	14.372067423	"1"	687.618849766	680.645137908	1.5	0.1
0.01	1	0.51932661699999	1	64	NA	30.789580068	0	0.34	0.34	1	14.605431156	15.124757773	"1"	687.618849766	680.645137908	1.5	0.1
0.01	1	0.486969517000006	1	64	NA	30.789580068	0	0.34	0.34	1	15.356629456	15.843598973	"1"	687.618849766	680.645137908	1.5	0.1
0.01	1	0.712755049999998	1	64	NA	30.789580068	0	0.34	0.34	1	16.074523626	16.787278676	"1"	687.618849766	680.645137908	1.5	0.1
0.01	1	0.362685763999991	1	64	NA	30.789580068	0	0.34	0.34	1	17.026161317	17.388847081	"1"	687.618849766	680.645137908	1.5	0.1
0.01	1	0.256827764000008	1	64	NA	30.789580068	0	0.34	0.34	1	17.627119413	17.883947177	"1"	687.618849766	680.645137908	1.5	0.1
0.01	1	0.268010984	1	64	NA	30.789580068	0	0.34	0.34	1	18.111312781	18.379323765	"1"	687.618849766	680.645137908	1.5	0.1
0.01	1	0.591051206000003	1	64	NA	30.789580068	0	0.34	0.34	1	18.612151036	19.203202242	"1"	687.618849766	680.645137908	1.5	0.1
0.01	1	0.405053030000005	1	64	NA	30.789580068	0	0.34	0.34	1	19.430108866	19.835161896	"1"	687.618849766	680.645137908	1.5	0.1
0.01	1	0.563364371000034	1	64	NA	30.789580068	0	0.34	0.34	1	20.064657388	20.628021759	"1"	687.618849766	680.645137908	1.5	0.1
0.01	1	0.507012825999993	1	64	NA	30.789580068	0	0.34	0.34	1	20.865912251	21.372925077	"1"	687.618849766	680.645137908	1.5	0.1
0.01	1	0.51520220499998	1	64	NA	30.789580068	0	0.34	0.34	1	21.600507086	22.115709291	"1"	687.618849766	680.645137908	1.5	0.1
0.01	1	0.539493577999963	1	64	NA	30.789580068	0	0.34	0.34	1	22.351781831	22.891275409	"1"	687.618849766	680.645137908	1.5	0.1
0.01	1	0.532558581999979	1	64	NA	30.789580068	0	0.34	0.34	1	23.119720188	23.65227877	"1"	687.618849766	680.645137908	1.5	0.1
0.01	1	4.14804405699999	1	64	NA	30.789580068	0	0.34	0.34	1	23.887673201	28.035717258	"1"	687.618849766	680.645137908	1.5	0.1
0.01	1	1.71749600100003	1	64	NA	30.789580068	0	0.34	0.34	1	28.261784008	29.979280009	"1"	687.618849766	680.645137908	1.5	0.1
0.01	1	0.572858456000006	2	64	NA	30.789580068	0	0.34	0.34	1	30.215039321	30.787897777	"1"	687.618849766	680.645137908	1.5	0.1
0.01	1	0.920374738000021	1	102	NA	61.388249063	0	0.73	1.07	1	32.819392311	33.739767049	"2"	687.618849766	680.645137908	1.5	0.1
0.01	1	0.311368806000019	1	102	NA	61.388249063	0	0.73	1.07	1	33.971245896	34.282614702	"2"	687.618849766	680.645137908	1.5	0.1
0.01	1	0.274365055999965	1	102	NA	61.388249063	0	0.73	1.07	1	34.505626211	34.779991267	"2"	687.618849766	680.645137908	1.5	0.1
0.01	1	0.276792886999999	1	102	NA	61.388249063	0	0.73	1.07	1	35.006354141	35.283147028	"2"	687.618849766	680.645137908	1.5	0.1
0.01	1	0.280673376999971	1	102	NA	61.388249063	0	0.73	1.07	1	35.507338336	35.788011713	"2"	687.618849766	680.645137908	1.5	0.1
0.01	1	0.251887882000005	1	102	NA	61.388249063	0	0.73	1.07	1	36.024799741	36.276687623	"2"	687.618849766	680.645137908	1.5	0.1
0.01	1	0.255598931000009	1	102	NA	61.388249063	0	0.73	1.07	1	36.508869427	36.764468358	"2"	687.618849766	680.645137908	1.5	0.1
0.01	1	0.273660161000009	1	102	NA	61.388249063	0	0.73	1.07	1	36.993111809	37.26677197	"2"	687.618849766	680.645137908	1.5	0.1
0.01	1	0.245395620000011	1	102	NA	61.388249063	0	0.73	1.07	1	37.493915906	37.739311526	"2"	687.618849766	680.645137908	1.5	0.1
0.01	1	0.248621236999952	1	102	NA	61.388249063	0	0.73	1.07	1	37.978090098	38.226711335	"2"	687.618849766	680.645137908	1.5	0.1
0.01	1	0.246003640999959	1	102	NA	61.388249063	0	0.73	1.07	1	38.462266651	38.708270292	"2"	687.618849766	680.645137908	1.5	0.1
0.01	1	0.257447619999994	1	102	NA	61.388249063	0	0.73	1.07	1	38.946307596	39.203755216	"2"	687.618849766	680.645137908	1.5	0.1
0.01	1	0.236215744999981	1	102	NA	61.388249063	0	0.73	1.07	1	39.430488478	39.666704223	"2"	687.618849766	680.645137908	1.5	0.1
0.01	1	0.242009014000018	1	102	NA	61.388249063	0	0.73	1.07	1	39.897926288	40.139935302	"2"	687.618849766	680.645137908	1.5	0.1
0.01	1	0.278606282999988	1	102	NA	61.388249063	0	0.73	1.07	1	40.365418171	40.644024454	"2"	687.618849766	680.645137908	1.5	0.1
0.01	1	0.200814640999965	1	102	NA	61.388249063	0	0.73	1.07	1	40.882929376	41.083744017	"2"	687.618849766	680.645137908	1.5	0.1
0.01	1	0.174180381000042	1	102	NA	61.388249063	0	0.73	1.07	1	41.317212181	41.491392562	"2"	687.618849766	680.645137908	1.5	0.1
0.01	1	0.10152212600002	1	102	NA	61.388249063	0	0.73	1.07	1	41.717661316	41.819183442	"2"	687.618849766	680.645137908	1.5	0.1
0.01	1	0.151175214999967	1	102	NA	61.388249063	0	0.73	1.07	1	42.051570428	42.202745643	"2"	687.618849766	680.645137908	1.5	0.1
0.01	1	0.351754436000022	1	102	NA	61.388249063	0	0.73	1.07	1	42.435541311	42.787295747	"2"	687.618849766	680.645137908	1.5	0.1
0.01	1	0.471733293	1	102	NA	61.388249063	0	0.73	1.07	1	43.019925833	43.491659126	"2"	687.618849766	680.645137908	1.5	0.1
0.01	1	0.306705996000005	1	102	NA	61.388249063	0	0.73	1.07	1	43.721129523	44.027835519	"2"	687.618849766	680.645137908	1.5	0.1
0.01	1	0.324235150999982	1	102	NA	61.388249063	0	0.73	1.07	1	44.255253308	44.579488459	"2"	687.618849766	680.645137908	1.5	0.1
0.01	1	0.284594685999991	1	102	NA	61.388249063	0	0.73	1.07	1	44.806198201	45.090792887	"2"	687.618849766	680.645137908	1.5	0.1
0.01	1	0.26304939900001	1	102	NA	61.388249063	0	0.73	1.07	1	45.323760538	45.586809937	"2"	687.618849766	680.645137908	1.5	0.1
0.01	1	0.11433286099998	1	102	NA	61.388249063	0	0.73	1.07	1	45.824621058	45.938953919	"2"	687.618849766	680.645137908	1.5	0.1
0.01	1	0.0287296899999774	1	102	NA	61.388249063	0	0.73	1.07	1	46.175254876	46.203984566	"2"	687.618849766	680.645137908	1.5	0.1
0.01	1	0.0491133300000115	1	102	NA	61.388249063	0	0.73	1.07	1	46.442390828	46.491504158	"2"	687.618849766	680.645137908	1.5	0.1
0.01	1	0.0850419220000163	1	102	NA	61.388249063	0	0.73	1.07	1	46.726113851	46.811155773	"2"	687.618849766	680.645137908	1.5	0.1
0.01	1	0.265025279999975	1	102	NA	61.388249063	0	0.73	1.07	1	47.043312961	47.308338241	"2"	687.618849766	680.645137908	1.5	0.1
0.01	1	0.0840254170000208	1	102	NA	61.388249063	0	0.73	1.07	1	47.544204318	47.628229735	"2"	687.618849766	680.645137908	1.5	0.1
0.01	1	0.0036743350000279	1	102	NA	61.388249063	0	0.73	1.07	1	47.861334408	47.865008743	"2"	687.618849766	680.645137908	1.5	0.1
0.01	1	0.0522409829999901	1	102	NA	61.388249063	0	0.73	1.07	1	48.095094101	48.147335084	"2"	687.618849766	680.645137908	1.5	0.1
0.01	1	0.024393009999983	1	102	NA	61.388249063	0	0.73	1.07	1	48.378823601	48.403216611	"2"	687.618849766	680.645137908	1.5	0.1
0.01	1	0.0466394439999931	1	102	NA	61.388249063	0	0.73	1.07	1	48.629310837	48.675950281	"2"	687.618849766	680.645137908	1.5	0.1
0.01	1	0.00374426799999128	1	102	NA	61.388249063	0	0.73	1.07	1	48.913079673	48.916823941	"2"	687.618849766	680.645137908	1.5	0.1
0.01	1	0.0173018080000134	1	102	NA	61.388249063	0	0.73	1.07	1	49.146756298	49.164058106	"2"	687.618849766	680.645137908	1.5	0.1
0.01	1	0.0779536649999955	1	102	NA	61.388249063	0	0.73	1.07	1	49.397231541	49.475185206	"2"	687.618849766	680.645137908	1.5	0.1
0.01	1	0.0901456240000016	1	102	NA	61.388249063	0	0.73	1.07	1	49.697814173	49.787959797	"2"	687.618849766	680.645137908	1.5	0.1
0.01	1	0.188339748000033	1	102	NA	61.388249063	0	0.73	1.07	1	50.014862578	50.203202326	"2"	687.618849766	680.645137908	1.5	0.1
0.01	1	0.307826207000005	1	102	NA	61.388249063	0	0.73	1.07	1	50.432364711	50.740190918	"2"	687.618849766	680.645137908	1.5	0.1
0.01	1	0.292246755999997	1	102	NA	61.388249063	0	0.73	1.07	1	50.966632108	51.258878864	"2"	687.618849766	680.645137908	1.5	0.1
0.01	1	0.143005646000006	1	102	NA	61.388249063	0	0.73	1.07	1	51.484037093	51.627042739	"2"	687.618849766	680.645137908	1.5	0.1
0.01	1	0.0960840220000136	1	102	NA	61.388249063	0	0.73	1.07	1	51.868136531	51.964220553	"2"	687.618849766	680.645137908	1.5	0.1
0.01	1	0.105536915000016	1	102	NA	61.388249063	0	0.73	1.07	1	52.202032876	52.307569791	"2"	687.618849766	680.645137908	1.5	0.1
0.01	1	0.139776438000013	1	102	NA	61.388249063	0	0.73	1.07	1	52.535920288	52.675696726	"2"	687.618849766	680.645137908	1.5	0.1
0.01	1	0.0533831889999874	1	102	NA	61.388249063	0	0.73	1.07	1	52.903197233	52.956580422	"2"	687.618849766	680.645137908	1.5	0.1
0.01	1	0.003959143999964	1	102	NA	61.388249063	0	0.73	1.07	1	53.186921801	53.190880945	"2"	687.618849766	680.645137908	1.5	0.1
0.01	1	0.00207833199999641	1	102	NA	61.388249063	0	0.73	1.07	1	53.420765869	53.422844201	"2"	687.618849766	680.645137908	1.5	0.1
0.01	1	0.0037202390000175	1	102	NA	61.388249063	0	0.73	1.07	1	53.654408816	53.658129055	"2"	687.618849766	680.645137908	1.5	0.1
0.01	1	0.00458923700000469	1	102	NA	61.388249063	0	0.73	1.07	1	53.888139956	53.892729193	"2"	687.618849766	680.645137908	1.5	0.1
0.01	1	0.00464352199998075	1	102	NA	61.388249063	0	0.73	1.07	1	54.121857606	54.126501128	"2"	687.618849766	680.645137908	1.5	0.1
0.01	1	0.00393799699997999	1	102	NA	61.388249063	0	0.73	1.07	1	54.355634788	54.359572785	"2"	687.618849766	680.645137908	1.5	0.1
0.01	1	0.00327411600000005	1	102	NA	61.388249063	0	0.73	1.07	1	54.589366567	54.592640683	"2"	687.618849766	680.645137908	1.5	0.1
0.01	1	0.0765360149999879	1	102	NA	61.388249063	0	0.73	1.07	1	54.823087376	54.899623391	"2"	687.618849766	680.645137908	1.5	0.1
0.01	1	0.0946019070000261	1	102	NA	61.388249063	0	0.73	1.07	1	55.140261936	55.234863843	"2"	687.618849766	680.645137908	1.5	0.1
0.01	1	0.0900576239999964	1	102	NA	61.388249063	0	0.73	1.07	1	55.457372831	55.547430455	"2"	687.618849766	680.645137908	1.5	0.1
0.01	1	0.124644193999984	1	102	NA	61.388249063	0	0.73	1.07	1	55.774633696	55.89927789	"2"	687.618849766	680.645137908	1.5	0.1
0.01	1	0.143237026000008	1	102	NA	61.388249063	0	0.73	1.07	1	56.125259736	56.268496762	"2"	687.618849766	680.645137908	1.5	0.1
0.01	1	0.0870566709999707	1	102	NA	61.388249063	0	0.73	1.07	1	56.492510048	56.579566719	"2"	687.618849766	680.645137908	1.5	0.1
0.01	1	0.121762293000018	1	102	NA	61.388249063	0	0.73	1.07	1	56.809840221	56.931602514	"2"	687.618849766	680.645137908	1.5	0.1
0.01	1	0.0999512390000064	1	102	NA	61.388249063	0	0.73	1.07	1	57.160347748	57.260298987	"2"	687.618849766	680.645137908	1.5	0.1
0.01	1	0.0375043239999968	1	102	NA	61.388249063	0	0.73	1.07	1	57.494216461	57.531720785	"2"	687.618849766	680.645137908	1.5	0.1
0.01	1	0.0586952549999751	1	102	NA	61.388249063	0	0.73	1.07	1	57.761268213	57.819963468	"2"	687.618849766	680.645137908	1.5	0.1
0.01	1	0.022677692000002	1	102	NA	61.388249063	0	0.73	1.07	1	58.045222633	58.067900325	"2"	687.618849766	680.645137908	1.5	0.1
0.01	1	0.0355504629999928	1	102	NA	61.388249063	0	0.73	1.07	1	58.295500576	58.331051039	"2"	687.618849766	680.645137908	1.5	0.1
0.01	1	0.128511559000003	1	102	NA	61.388249063	0	0.73	1.07	1	58.562716863	58.691228422	"2"	687.618849766	680.645137908	1.5	0.1
0.01	1	0.114636089000044	1	102	NA	61.388249063	0	0.73	1.07	1	58.913274021	59.02791011	"2"	687.618849766	680.645137908	1.5	0.1
0.01	1	0.0830919200000153	1	102	NA	61.388249063	0	0.73	1.07	1	59.263779776	59.346871696	"2"	687.618849766	680.645137908	1.5	0.1
0.01	1	0.142392465	1	102	NA	61.388249063	0	0.73	1.07	1	59.581144066	59.723536531	"2"	687.618849766	680.645137908	1.5	0.1
0.01	1	0.112063452000029	1	102	NA	61.388249063	0	0.73	1.07	1	59.948389871	60.060453323	"2"	687.618849766	680.645137908	1.5	0.1
0.01	1	0.128908152999998	1	102	NA	61.388249063	0	0.73	1.07	1	60.298921016	60.427829169	"2"	687.618849766	680.645137908	1.5	0.1
0.01	1	0.112444259000029	1	102	NA	61.388249063	0	0.73	1.07	1	60.666158268	60.778602527	"2"	687.618849766	680.645137908	1.5	0.1
0.01	1	0.386617675000025	2	102	NA	61.388249063	0	0.73	1.07	1	61.000047718	61.386665393	"2"	687.618849766	680.645137908	1.5	0.1
0.01	1	0.358124454999995	1	97	NA	79.661586702	0	0.59	1.66	1	63.437575861	63.795700316	"3"	687.618849766	680.645137908	1.5	0.1
0.01	1	0.0531409799999665	1	97	NA	79.661586702	0	0.59	1.66	1	64.021876176	64.075017156	"3"	687.618849766	680.645137908	1.5	0.1
0.01	1	0.00394085300001734	1	97	NA	79.661586702	0	0.59	1.66	1	64.305578566	64.309519419	"3"	687.618849766	680.645137908	1.5	0.1
0.01	1	0.00454474999997956	1	97	NA	79.661586702	0	0.59	1.66	1	64.539421696	64.543966446	"3"	687.618849766	680.645137908	1.5	0.1
0.01	1	0.0791361809999671	1	97	NA	79.661586702	0	0.59	1.66	1	64.773137928	64.852274109	"3"	687.618849766	680.645137908	1.5	0.1
0.01	1	0.00428851700002042	1	97	NA	79.661586702	0	0.59	1.66	1	65.090260164	65.094548681	"3"	687.618849766	680.645137908	1.5	0.1
0.01	1	0.0627817129999926	1	97	NA	79.661586702	0	0.59	1.66	1	65.324118273	65.386899986	"3"	687.618849766	680.645137908	1.5	0.1
0.01	1	0.00328080999997837	1	97	NA	79.661586702	0	0.59	1.66	1	65.624614163	65.627894973	"3"	687.618849766	680.645137908	1.5	0.1
0.01	1	0.0563349280000125	1	97	NA	79.661586702	0	0.59	1.66	1	65.8582723	65.914607228	"3"	687.618849766	680.645137908	1.5	0.1
0.01	1	0.00199919900001078	1	97	NA	79.661586702	0	0.59	1.66	1	66.14213219	66.144131389	"3"	687.618849766	680.645137908	1.5	0.1
0.01	1	0.0915270150000538	1	97	NA	79.661586702	0	0.59	1.66	1	66.375873818	66.467400833	"3"	687.618849766	680.645137908	1.5	0.1
0.01	1	0.00200500699997974	1	97	NA	79.661586702	0	0.59	1.66	1	66.693102921	66.695107928	"3"	687.618849766	680.645137908	1.5	0.1
0.01	1	0.0764663530000007	1	97	NA	79.661586702	0	0.59	1.66	1	66.926708426	67.003174779	"3"	687.618849766	680.645137908	1.5	0.1
0.01	1	0.0038896209999848	1	97	NA	79.661586702	0	0.59	1.66	1	67.243981008	67.247870629	"3"	687.618849766	680.645137908	1.5	0.1
0.01	1	0.00454961500003037	1	97	NA	79.661586702	0	0.59	1.66	1	67.477803381	67.482352996	"3"	687.618849766	680.645137908	1.5	0.1
0.01	1	0.100017503999993	1	97	NA	79.661586702	0	0.59	1.66	1	67.711455041	67.811472545	"3"	687.618849766	680.645137908	1.5	0.1
0.01	1	0.00198551400001179	1	97	NA	79.661586702	0	0.59	1.66	1	68.045352851	68.047338365	"3"	687.618849766	680.645137908	1.5	0.1
0.01	1	0.0020124449999912	1	97	NA	79.661586702	0	0.59	1.66	1	68.279083516	68.281095961	"3"	687.618849766	680.645137908	1.5	0.1
0.01	1	0.00203646599999274	1	97	NA	79.661586702	0	0.59	1.66	1	68.512746695	68.514783161	"3"	687.618849766	680.645137908	1.5	0.1
0.01	1	0.00337207299997999	1	97	NA	79.661586702	0	0.59	1.66	1	68.746423958	68.749796031	"3"	687.618849766	680.645137908	1.5	0.1
0.01	1	0.159546040000009	1	97	NA	79.661586702	0	0.59	1.66	1	68.980219169	69.139765209	"3"	687.618849766	680.645137908	1.5	0.1
0.01	1	0.0320571369999811	1	97	NA	79.661586702	0	0.59	1.66	1	69.364139916	69.396197053	"3"	687.618849766	680.645137908	1.5	0.1
0.01	1	0.0125044659999958	1	97	NA	79.661586702	0	0.59	1.66	1	69.631250866	69.643755332	"3"	687.618849766	680.645137908	1.5	0.1
0.01	1	0.0260626359999492	1	97	NA	79.661586702	0	0.59	1.66	1	69.88166407	69.907726706	"3"	687.618849766	680.645137908	1.5	0.1
0.01	1	0.0157934339999883	1	97	NA	79.661586702	0	0.59	1.66	1	70.132199126	70.14799256	"3"	687.618849766	680.645137908	1.5	0.1
0.01	1	0.00201802500004078	1	97	NA	79.661586702	0	0.59	1.66	1	70.382632316	70.384650341	"3"	687.618849766	680.645137908	1.5	0.1
0.01	1	0.00305026799998132	1	97	NA	79.661586702	0	0.59	1.66	1	70.616213375	70.619263643	"3"	687.618849766	680.645137908	1.5	0.1
0.01	1	0.0021966700000462	1	97	NA	79.661586702	0	0.59	1.66	1	70.850120059	70.852316729	"3"	687.618849766	680.645137908	1.5	0.1
0.01	1	0.00391648200002237	1	97	NA	79.661586702	0	0.59	1.66	1	71.083679511	71.087595993	"3"	687.618849766	680.645137908	1.5	0.1
0.01	1	0.00686753399997997	1	97	NA	79.661586702	0	0.59	1.66	1	71.317403943	71.324271477	"3"	687.618849766	680.645137908	1.5	0.1
0.01	1	0.0291997829999673	1	97	NA	79.661586702	0	0.59	1.66	1	71.551251778	71.580451561	"3"	687.618849766	680.645137908	1.5	0.1
0.01	1	0.00206207100001166	1	97	NA	79.661586702	0	0.59	1.66	1	71.818304149	71.82036622	"3"	687.618849766	680.645137908	1.5	0.1
0.01	1	0.00200841099996296	1	97	NA	79.661586702	0	0.59	1.66	1	72.052113315	72.054121726	"3"	687.618849766	680.645137908	1.5	0.1
0.01	1	0.00201979500002381	1	97	NA	79.661586702	0	0.59	1.66	1	72.28577661	72.287796405	"3"	687.618849766	680.645137908	1.5	0.1
0.01	1	0.00208127600001262	1	97	NA	79.661586702	0	0.59	1.66	1	72.519491904	72.52157318	"3"	687.618849766	680.645137908	1.5	0.1
0.01	1	0.0119557049999912	1	97	NA	79.661586702	0	0.59	1.66	1	72.753234858	72.765190563	"3"	687.618849766	680.645137908	1.5	0.1
0.01	1	0.00237067799997703	1	97	NA	79.661586702	0	0.59	1.66	1	72.986911289	72.989281967	"3"	687.618849766	680.645137908	1.5	0.1
0.01	1	0.0230571839999811	1	97	NA	79.661586702	0	0.59	1.66	1	73.220823916	73.2438811	"3"	687.618849766	680.645137908	1.5	0.1
0.01	1	0.00700090000003684	1	97	NA	79.661586702	0	0.59	1.66	1	73.471110403	73.478111303	"3"	687.618849766	680.645137908	1.5	0.1
0.01	1	0.00380871599998045	1	97	NA	79.661586702	0	0.59	1.66	1	73.704830171	73.708638887	"3"	687.618849766	680.645137908	1.5	0.1
0.01	1	0.00268161600001804	1	97	NA	79.661586702	0	0.59	1.66	1	73.938561257	73.941242873	"3"	687.618849766	680.645137908	1.5	0.1
0.01	1	0.0222906329999546	1	97	NA	79.661586702	0	0.59	1.66	1	74.172331166	74.194621799	"3"	687.618849766	680.645137908	1.5	0.1
0.01	1	0.0207960989999947	1	97	NA	79.661586702	0	0.59	1.66	1	74.422698501	74.4434946	"3"	687.618849766	680.645137908	1.5	0.1
0.01	1	0.0020806910000033	1	97	NA	79.661586702	0	0.59	1.66	1	74.673045648	74.675126339	"3"	687.618849766	680.645137908	1.5	0.1
0.01	1	0.00432389899998498	1	97	NA	79.661586702	0	0.59	1.66	1	74.906792247	74.911116146	"3"	687.618849766	680.645137908	1.5	0.1
0.01	1	0.0313000340000258	1	97	NA	79.661586702	0	0.59	1.66	1	75.140595996	75.17189603	"3"	687.618849766	680.645137908	1.5	0.1
0.01	1	0.0031020899999703	1	97	NA	79.661586702	0	0.59	1.66	1	75.407709879	75.410811969	"3"	687.618849766	680.645137908	1.5	0.1
0.01	1	0.003262301999996	1	97	NA	79.661586702	0	0.59	1.66	1	75.641379979	75.644642281	"3"	687.618849766	680.645137908	1.5	0.1
0.01	1	0.0111892329999819	1	97	NA	79.661586702	0	0.59	1.66	1	75.875129994	75.886319227	"3"	687.618849766	680.645137908	1.5	0.1
0.01	1	0.0071050799999739	1	97	NA	79.661586702	0	0.59	1.66	1	76.108839093	76.115944173	"3"	687.618849766	680.645137908	1.5	0.1
0.01	1	0.0212553819999926	1	97	NA	79.661586702	0	0.59	1.66	1	76.342595446	76.363850828	"3"	687.618849766	680.645137908	1.5	0.1
0.01	1	0.0119939010000394	1	97	NA	79.661586702	0	0.59	1.66	1	76.593023496	76.605017397	"3"	687.618849766	680.645137908	1.5	0.1
0.01	1	0.00350819300001604	1	97	NA	79.661586702	0	0.59	1.66	1	76.843466618	76.846974811	"3"	687.618849766	680.645137908	1.5	0.1
0.01	1	0.00678826299997581	1	97	NA	79.661586702	0	0.59	1.66	1	77.077218808	77.084007071	"3"	687.618849766	680.645137908	1.5	0.1
0.01	1	0.0117131370000152	1	97	NA	79.661586702	0	0.59	1.66	1	77.310902058	77.322615195	"3"	687.618849766	680.645137908	1.5	0.1
0.01	1	0.0836826329999667	1	97	NA	79.661586702	0	0.59	1.66	1	77.544649376	77.628332009	"3"	687.618849766	680.645137908	1.5	0.1
0.01	1	0.285923907999972	1	97	NA	79.661586702	0	0.59	1.66	1	77.861871561	78.147795469	"3"	687.618849766	680.645137908	1.5	0.1
0.01	1	0.336891761000004	1	97	NA	79.661586702	0	0.59	1.66	1	78.379304188	78.716195949	"3"	687.618849766	680.645137908	1.5	0.1
0.01	1	0.21604983200001	1	97	NA	79.661586702	0	0.59	1.66	1	78.946980421	79.163030253	"3"	687.618849766	680.645137908	1.5	0.1
0.01	1	0.262223484999993	2	97	NA	79.661586702	0	0.59	1.66	1	79.397783658	79.660007143	"3"	687.618849766	680.645137908	1.5	0.1
0.01	1	0.110081529000013	1	51	94.042153396	NA	1	0	1.66	1	81.718305168	81.828386697	"4"	687.618849766	680.645137908	1.5	0.1
0.01	1	0.0394123769999624	1	51	94.042153396	NA	1	0	1.66	1	82.068953621	82.108365998	"4"	687.618849766	680.645137908	1.5	0.1
0.01	1	0.00390267100004849	1	51	94.042153396	NA	1	0	1.66	1	82.336012218	82.339914889	"4"	687.618849766	680.645137908	1.5	0.1
0.01	1	0.0486259219999852	1	51	94.042153396	NA	1	0	1.66	1	82.569901781	82.618527703	"4"	687.618849766	680.645137908	1.5	0.1
0.01	1	0.00392846300002248	1	51	94.042153396	NA	1	0	1.66	1	82.853635736	82.857564199	"4"	687.618849766	680.645137908	1.5	0.1
0.01	1	0.00372845900000129	1	51	94.042153396	NA	1	0	1.66	1	83.087258608	83.090987067	"4"	687.618849766	680.645137908	1.5	0.1
0.01	1	0.00277585899999622	1	51	94.042153396	NA	1	0	1.66	1	83.320918987	83.323694846	"4"	687.618849766	680.645137908	1.5	0.1
0.01	1	0.0657838429999629	1	51	94.042153396	NA	1	0	1.66	1	83.554763306	83.620547149	"4"	687.618849766	680.645137908	1.5	0.1
0.01	1	0.0918981600000279	1	51	94.042153396	NA	1	0	1.66	1	83.855226053	83.947124213	"4"	687.618849766	680.645137908	1.5	0.1
0.01	1	0.104011627999967	1	51	94.042153396	NA	1	0	1.66	1	84.172399596	84.276411224	"4"	687.618849766	680.645137908	1.5	0.1
0.01	1	0.0045759500000031	1	51	94.042153396	NA	1	0	1.66	1	84.506353331	84.510929281	"4"	687.618849766	680.645137908	1.5	0.1
0.01	1	0.00425705599997173	1	51	94.042153396	NA	1	0	1.66	1	84.74000728	84.744264336	"4"	687.618849766	680.645137908	1.5	0.1
0.01	1	0.0616452790000039	1	51	94.042153396	NA	1	0	1.66	1	84.973828341	85.03547362	"4"	687.618849766	680.645137908	1.5	0.1
0.01	1	0.00435875899995608	1	51	94.042153396	NA	1	0	1.66	1	85.274262159	85.278620918	"4"	687.618849766	680.645137908	1.5	0.1
0.01	1	0.00396752800003242	1	51	94.042153396	NA	1	0	1.66	1	85.507944381	85.511911909	"4"	687.618849766	680.645137908	1.5	0.1
0.01	1	0.00236856300000454	1	51	94.042153396	NA	1	0	1.66	1	85.74175136	85.744119923	"4"	687.618849766	680.645137908	1.5	0.1
0.01	1	0.00345891099999562	1	51	94.042153396	NA	1	0	1.66	1	85.975466956	85.978925867	"4"	687.618849766	680.645137908	1.5	0.1
0.01	1	0.00349217900003396	1	51	94.042153396	NA	1	0	1.66	1	86.209261238	86.212753417	"4"	687.618849766	680.645137908	1.5	0.1
0.01	1	0.00398429599999872	1	51	94.042153396	NA	1	0	1.66	1	86.442982793	86.446967089	"4"	687.618849766	680.645137908	1.5	0.1
0.01	1	0.00458771999996088	1	51	94.042153396	NA	1	0	1.66	1	86.676613456	86.681201176	"4"	687.618849766	680.645137908	1.5	0.1
0.01	1	0.00438104800002748	1	51	94.042153396	NA	1	0	1.66	1	86.910411183	86.914792231	"4"	687.618849766	680.645137908	1.5	0.1
0.01	1	0.00353318600002694	1	51	94.042153396	NA	1	0	1.66	1	87.144033711	87.147566897	"4"	687.618849766	680.645137908	1.5	0.1
0.01	1	0.00438705799996342	1	51	94.042153396	NA	1	0	1.66	1	87.37783971	87.382226768	"4"	687.618849766	680.645137908	1.5	0.1
0.01	1	0.00378142899995737	1	51	94.042153396	NA	1	0	1.66	1	87.611595196	87.615376625	"4"	687.618849766	680.645137908	1.5	0.1
0.01	1	0.00451294699996652	1	51	94.042153396	NA	1	0	1.66	1	87.845296691	87.849809638	"4"	687.618849766	680.645137908	1.5	0.1
0.01	1	0.00326906200001531	1	51	94.042153396	NA	1	0	1.66	1	88.079054373	88.082323435	"4"	687.618849766	680.645137908	1.5	0.1
0.01	1	0.00267970900000591	1	51	94.042153396	NA	1	0	1.66	1	88.312682633	88.315362342	"4"	687.618849766	680.645137908	1.5	0.1
0.01	1	0.00293742399998109	1	51	94.042153396	NA	1	0	1.66	1	88.546510701	88.549448125	"4"	687.618849766	680.645137908	1.5	0.1
0.01	1	0.00339606700003969	1	51	94.042153396	NA	1	0	1.66	1	88.780142586	88.783538653	"4"	687.618849766	680.645137908	1.5	0.1
0.01	1	0.00377176799997869	1	51	94.042153396	NA	1	0	1.66	1	89.013984431	89.017756199	"4"	687.618849766	680.645137908	1.5	0.1
0.01	1	0.00345940100004327	1	51	94.042153396	NA	1	0	1.66	1	89.247675936	89.251135337	"4"	687.618849766	680.645137908	1.5	0.1
0.01	1	0.00452698999998802	1	51	94.042153396	NA	1	0	1.66	1	89.481387161	89.485914151	"4"	687.618849766	680.645137908	1.5	0.1
0.01	1	0.00463026500000296	1	51	94.042153396	NA	1	0	1.66	1	89.715153341	89.719783606	"4"	687.618849766	680.645137908	1.5	0.1
0.01	1	0.0045799220000049	1	51	94.042153396	NA	1	0	1.66	1	89.948821266	89.953401188	"4"	687.618849766	680.645137908	1.5	0.1
0.01	1	0.00385899299999437	1	51	94.042153396	NA	1	0	1.66	1	90.182594418	90.186453411	"4"	687.618849766	680.645137908	1.5	0.1
0.01	1	0.00392045000000962	1	51	94.042153396	NA	1	0	1.66	1	90.416222523	90.420142973	"4"	687.618849766	680.645137908	1.5	0.1
0.01	1	0.00410284200000888	1	51	94.042153396	NA	1	0	1.66	1	90.649917531	90.654020373	"4"	687.618849766	680.645137908	1.5	0.1
0.01	1	0.00436951699998644	1	51	94.042153396	NA	1	0	1.66	1	90.883658456	90.888027973	"4"	687.618849766	680.645137908	1.5	0.1
0.01	1	0.00397150299994564	1	51	94.042153396	NA	1	0	1.66	1	91.117492336	91.121463839	"4"	687.618849766	680.645137908	1.5	0.1
0.01	1	0.00453248000002304	1	51	94.042153396	NA	1	0	1.66	1	91.351264371	91.355796851	"4"	687.618849766	680.645137908	1.5	0.1
0.01	1	0.00356006599997727	1	51	94.042153396	NA	1	0	1.66	1	91.584924453	91.588484519	"4"	687.618849766	680.645137908	1.5	0.1
0.01	1	0.00381291800005101	1	51	94.042153396	NA	1	0	1.66	1	91.818650633	91.822463551	"4"	687.618849766	680.645137908	1.5	0.1
0.01	1	0.00386177699999735	1	51	94.042153396	NA	1	0	1.66	1	92.052325338	92.056187115	"4"	687.618849766	680.645137908	1.5	0.1
0.01	1	0.00398227899995618	1	51	94.042153396	NA	1	0	1.66	1	92.286021888	92.290004167	"4"	687.618849766	680.645137908	1.5	0.1
0.01	1	0.00391004300001896	1	51	94.042153396	NA	1	0	1.66	1	92.519830028	92.523740071	"4"	687.618849766	680.645137908	1.5	0.1
0.01	1	0.00343105900003593	1	51	94.042153396	NA	1	0	1.66	1	92.753504216	92.756935275	"4"	687.618849766	680.645137908	1.5	0.1
0.01	1	0.00384915399996544	1	51	94.042153396	NA	1	0	1.66	1	92.987289311	92.991138465	"4"	687.618849766	680.645137908	1.5	0.1
0.01	1	0.0039656769999965	1	51	94.042153396	NA	1	0	1.66	1	93.221011696	93.224977373	"4"	687.618849766	680.645137908	1.5	0.1
0.01	1	0.00387377699996705	1	51	94.042153396	NA	1	0	1.66	1	93.454681968	93.458555745	"4"	687.618849766	680.645137908	1.5	0.1
0.01	1	0.00451222199995982	1	51	94.042153396	NA	1	0	1.66	1	93.688503186	93.693015408	"4"	687.618849766	680.645137908	1.5	0.1
0.01	1	0.00396653699999661	1	51	94.042153396	NA	1	0	1.66	1	93.922136388	93.926102925	"4"	687.618849766	680.645137908	1.5	0.1
0.01	1	0.336126224999987	1	116	NA	105.932615207	0	0.39	2.05	1	96.092479246	96.428605471	"5"	687.618849766	680.645137908	1.5	0.1
0.01	1	0.00367901499998879	1	116	NA	105.932615207	0	0.39	2.05	1	96.660163416	96.663842431	"5"	687.618849766	680.645137908	1.5	0.1
0.01	1	0.00331489400002738	1	116	NA	105.932615207	0	0.39	2.05	1	96.893916137	96.897231031	"5"	687.618849766	680.645137908	1.5	0.1
0.01	1	0.00395696999999018	1	116	NA	105.932615207	0	0.39	2.05	1	97.127485733	97.131442703	"5"	687.618849766	680.645137908	1.5	0.1
0.01	1	0.00461411000003409	1	116	NA	105.932615207	0	0.39	2.05	1	97.361297566	97.365911676	"5"	687.618849766	680.645137908	1.5	0.1
0.01	1	0.00368667999998706	1	116	NA	105.932615207	0	0.39	2.05	1	97.595026123	97.598712803	"5"	687.618849766	680.645137908	1.5	0.1
0.01	1	0.00396595399996613	1	116	NA	105.932615207	0	0.39	2.05	1	97.828800663	97.832766617	"5"	687.618849766	680.645137908	1.5	0.1
0.01	1	0.0036649659999739	1	116	NA	105.932615207	0	0.39	2.05	1	98.062445551	98.066110517	"5"	687.618849766	680.645137908	1.5	0.1
0.01	1	0.00342187300003616	1	116	NA	105.932615207	0	0.39	2.05	1	98.296256566	98.299678439	"5"	687.618849766	680.645137908	1.5	0.1
0.01	1	0.00209979100003466	1	116	NA	105.932615207	0	0.39	2.05	1	98.53000326	98.532103051	"5"	687.618849766	680.645137908	1.5	0.1
0.01	1	0.00325323999999227	1	116	NA	105.932615207	0	0.39	2.05	1	98.763578849	98.766832089	"5"	687.618849766	680.645137908	1.5	0.1
0.01	1	0.00375722999996242	1	116	NA	105.932615207	0	0.39	2.05	1	98.997388361	99.001145591	"5"	687.618849766	680.645137908	1.5	0.1
0.01	1	0.00461177999994788	1	116	NA	105.932615207	0	0.39	2.05	1	99.231249811	99.235861591	"5"	687.618849766	680.645137908	1.5	0.1
0.01	1	0.00351134600003888	1	116	NA	105.932615207	0	0.39	2.05	1	99.464768391	99.468279737	"5"	687.618849766	680.645137908	1.5	0.1
0.01	1	0.00360005999999657	1	116	NA	105.932615207	0	0.39	2.05	1	99.698519641	99.702119701	"5"	687.618849766	680.645137908	1.5	0.1
0.01	1	0.0040050779999774	1	116	NA	105.932615207	0	0.39	2.05	1	99.932393361	99.936398439	"5"	687.618849766	680.645137908	1.5	0.1
0.01	1	0.00373079899998174	1	116	NA	105.932615207	0	0.39	2.05	1	100.165947348	100.169678147	"5"	687.618849766	680.645137908	1.5	0.1
0.01	1	0.00379612099999349	1	116	NA	105.932615207	0	0.39	2.05	1	100.399726018	100.403522139	"5"	687.618849766	680.645137908	1.5	0.1
0.01	1	0.00254078799997615	1	116	NA	105.932615207	0	0.39	2.05	1	100.633444747	100.635985535	"5"	687.618849766	680.645137908	1.5	0.1
0.01	1	0.00342573000000357	1	116	NA	105.932615207	0	0.39	2.05	1	100.867146973	100.870572703	"5"	687.618849766	680.645137908	1.5	0.1
0.01	1	0.00370817699996451	1	116	NA	105.932615207	0	0.39	2.05	1	101.100926718	101.104634895	"5"	687.618849766	680.645137908	1.5	0.1
0.01	1	0.00217754199996989	1	116	NA	105.932615207	0	0.39	2.05	1	101.334693412	101.336870954	"5"	687.618849766	680.645137908	1.5	0.1
0.01	1	0.00217249299998912	1	116	NA	105.932615207	0	0.39	2.05	1	101.568362955	101.570535448	"5"	687.618849766	680.645137908	1.5	0.1
0.01	1	0.00375037200001316	1	116	NA	105.932615207	0	0.39	2.05	1	101.802144653	101.805895025	"5"	687.618849766	680.645137908	1.5	0.1
0.01	1	0.00367612299999109	1	116	NA	105.932615207	0	0.39	2.05	1	102.035795756	102.039471879	"5"	687.618849766	680.645137908	1.5	0.1
0.01	1	0.0036816740000063	1	116	NA	105.932615207	0	0.39	2.05	1	102.269519213	102.273200887	"5"	687.618849766	680.645137908	1.5	0.1
0.01	1	0.00393782999998393	1	116	NA	105.932615207	0	0.39	2.05	1	102.503308493	102.507246323	"5"	687.618849766	680.645137908	1.5	0.1
0.01	1	0.00327131800003144	1	116	NA	105.932615207	0	0.39	2.05	1	102.737064889	102.740336207	"5"	687.618849766	680.645137908	1.5	0.1
0.01	1	0.00390021100002969	1	116	NA	105.932615207	0	0.39	2.05	1	102.970701596	102.974601807	"5"	687.618849766	680.645137908	1.5	0.1
0.01	1	0.00356612199999518	1	116	NA	105.932615207	0	0.39	2.05	1	103.204403731	103.207969853	"5"	687.618849766	680.645137908	1.5	0.1
0.01	1	0.00379201600003398	1	116	NA	105.932615207	0	0.39	2.05	1	103.438157841	103.441949857	"5"	687.618849766	680.645137908	1.5	0.1
0.01	1	0.00447571099999777	1	116	NA	105.932615207	0	0.39	2.05	1	103.671923757	103.676399468	"5"	687.618849766	680.645137908	1.5	0.1
0.01	1	0.00352065300000959	1	116	NA	105.932615207	0	0.39	2.05	1	103.905563318	103.909083971	"5"	687.618849766	680.645137908	1.5	0.1
0.01	1	0.00355106300003172	1	116	NA	105.932615207	0	0.39	2.05	1	104.139439018	104.142990081	"5"	687.618849766	680.645137908	1.5	0.1
0.01	1	0.00441969900003869	1	116	NA	105.932615207	0	0.39	2.05	1	104.373102969	104.377522668	"5"	687.618849766	680.645137908	1.5	0.1
0.01	1	0.11713771899997	1	116	NA	105.932615207	0	0.39	2.05	1	104.606866021	104.72400374	"5"	687.618849766	680.645137908	1.5	0.1
0.01	1	0.189939547999984	1	116	NA	105.932615207	0	0.39	2.05	1	104.957398353	105.147337901	"5"	687.618849766	680.645137908	1.5	0.1
0.01	1	0.00343328999997539	1	116	NA	105.932615207	0	0.39	2.05	1	105.374768475	105.378201765	"5"	687.618849766	680.645137908	1.5	0.1
0.01	1	0.00196828200000709	1	116	NA	105.932615207	0	0.39	2.05	1	105.608482765	105.610451047	"5"	687.618849766	680.645137908	1.5	0.1
0.01	1	0.0888780820000079	2	116	NA	105.932615207	0	0.39	2.05	1	105.842172106	105.931050188	"5"	687.618849766	680.645137908	1.5	0.1
0.01	1	0.145338759000026	1	118	NA	123.308546926	0	0.55	2.6	1	107.962480016	108.107818775	"6"	687.618849766	680.645137908	1.5	0.1
0.01	1	0.0499511960000518	1	118	NA	123.308546926	0	0.55	2.6	1	108.346446673	108.396397869	"6"	687.618849766	680.645137908	1.5	0.1
0.01	1	0.0070925879999777	1	118	NA	123.308546926	0	0.55	2.6	1	108.630272511	108.637365099	"6"	687.618849766	680.645137908	1.5	0.1
0.01	1	0.00593287399999554	1	118	NA	123.308546926	0	0.55	2.6	1	108.863999513	108.869932387	"6"	687.618849766	680.645137908	1.5	0.1
0.01	1	0.00222907499994562	1	118	NA	123.308546926	0	0.55	2.6	1	109.097766525	109.0999956	"6"	687.618849766	680.645137908	1.5	0.1
0.01	1	0.0153640829999517	1	118	NA	123.308546926	0	0.55	2.6	1	109.331477641	109.346841724	"6"	687.618849766	680.645137908	1.5	0.1
0.01	1	0.0451298389999693	1	118	NA	123.308546926	0	0.55	2.6	1	109.581814716	109.626944555	"6"	687.618849766	680.645137908	1.5	0.1
0.01	1	0.0743097000000148	1	118	NA	123.308546926	0	0.55	2.6	1	109.848916356	109.923226056	"6"	687.618849766	680.645137908	1.5	0.1
0.01	1	0.0854932639999788	1	118	NA	123.308546926	0	0.55	2.6	1	110.149454726	110.23494799	"6"	687.618849766	680.645137908	1.5	0.1
0.01	1	0.0730538579999802	1	118	NA	123.308546926	0	0.55	2.6	1	110.466647971	110.539701829	"6"	687.618849766	680.645137908	1.5	0.1
0.01	1	0.0916334209999832	1	118	NA	123.308546926	0	0.55	2.6	1	110.767174738	110.858808159	"6"	687.618849766	680.645137908	1.5	0.1
0.01	1	0.110573544999966	1	118	NA	123.308546926	0	0.55	2.6	1	111.084396858	111.194970403	"6"	687.618849766	680.645137908	1.5	0.1
0.01	1	0.00384242600000562	1	118	NA	123.308546926	0	0.55	2.6	1	111.418388793	111.422231219	"6"	687.618849766	680.645137908	1.5	0.1
0.01	1	0.00221237300002031	1	118	NA	123.308546926	0	0.55	2.6	1	111.651960486	111.654172859	"6"	687.618849766	680.645137908	1.5	0.1
0.01	1	0.0852995380000152	1	118	NA	123.308546926	0	0.55	2.6	1	111.885760536	111.971060074	"6"	687.618849766	680.645137908	1.5	0.1
0.01	1	0.00216545399996448	1	118	NA	123.308546926	0	0.55	2.6	1	112.202923629	112.205089083	"6"	687.618849766	680.645137908	1.5	0.1
0.01	1	0.00203566999999794	1	118	NA	123.308546926	0	0.55	2.6	1	112.436697236	112.438732906	"6"	687.618849766	680.645137908	1.5	0.1
0.01	1	0.00198428699997066	1	118	NA	123.308546926	0	0.55	2.6	1	112.670390276	112.672374563	"6"	687.618849766	680.645137908	1.5	0.1
0.01	1	0.10844413999996	1	118	NA	123.308546926	0	0.55	2.6	1	112.904115156	113.012559296	"6"	687.618849766	680.645137908	1.5	0.1
0.01	1	0.00218652399996699	1	118	NA	123.308546926	0	0.55	2.6	1	113.237969395	113.240155919	"6"	687.618849766	680.645137908	1.5	0.1
0.01	1	0.00216159699999707	1	118	NA	123.308546926	0	0.55	2.6	1	113.471688956	113.473850553	"6"	687.618849766	680.645137908	1.5	0.1
0.01	1	0.00404373599997143	1	118	NA	123.308546926	0	0.55	2.6	1	113.705430521	113.709474257	"6"	687.618849766	680.645137908	1.5	0.1
0.01	1	0.00278910800000176	1	118	NA	123.308546926	0	0.55	2.6	1	113.939176253	113.941965361	"6"	687.618849766	680.645137908	1.5	0.1
0.01	1	0.00216261700001041	1	118	NA	123.308546926	0	0.55	2.6	1	114.172896933	114.17505955	"6"	687.618849766	680.645137908	1.5	0.1
0.01	1	0.0211402229999749	1	118	NA	123.308546926	0	0.55	2.6	1	114.406741126	114.427881349	"6"	687.618849766	680.645137908	1.5	0.1
0.01	1	0.0020723700000076	1	118	NA	123.308546926	0	0.55	2.6	1	114.65696389	114.65903626	"6"	687.618849766	680.645137908	1.5	0.1
0.01	1	0.0178334670000027	1	118	NA	123.308546926	0	0.55	2.6	1	114.890825776	114.908659243	"6"	687.618849766	680.645137908	1.5	0.1
0.01	1	0.00207739900002935	1	118	NA	123.308546926	0	0.55	2.6	1	115.141223329	115.143300728	"6"	687.618849766	680.645137908	1.5	0.1
0.01	1	0.00210889999999608	1	118	NA	123.308546926	0	0.55	2.6	1	115.37490684	115.37701574	"6"	687.618849766	680.645137908	1.5	0.1
0.01	1	0.00207608199997367	1	118	NA	123.308546926	0	0.55	2.6	1	115.608570834	115.610646916	"6"	687.618849766	680.645137908	1.5	0.1
0.01	1	0.00993633499996349	1	118	NA	123.308546926	0	0.55	2.6	1	115.842441056	115.852377391	"6"	687.618849766	680.645137908	1.5	0.1
0.01	1	0.0148659879999968	1	118	NA	123.308546926	0	0.55	2.6	1	116.07607895	116.090944938	"6"	687.618849766	680.645137908	1.5	0.1
0.01	1	0.00803605300001209	1	118	NA	123.308546926	0	0.55	2.6	1	116.326548226	116.334584279	"6"	687.618849766	680.645137908	1.5	0.1
0.01	1	0.00207495199998675	1	118	NA	123.308546926	0	0.55	2.6	1	116.560313139	116.562388091	"6"	687.618849766	680.645137908	1.5	0.1
0.01	1	0.00384303599997793	1	118	NA	123.308546926	0	0.55	2.6	1	116.794004191	116.797847227	"6"	687.618849766	680.645137908	1.5	0.1
0.01	1	0.0152003839999679	1	118	NA	123.308546926	0	0.55	2.6	1	117.027621958	117.042822342	"6"	687.618849766	680.645137908	1.5	0.1
0.01	1	0.00341941599998563	1	118	NA	123.308546926	0	0.55	2.6	1	117.278060923	117.281480339	"6"	687.618849766	680.645137908	1.5	0.1
0.01	1	0.0120356940000192	1	118	NA	123.308546926	0	0.55	2.6	1	117.511801831	117.523837525	"6"	687.618849766	680.645137908	1.5	0.1
0.01	1	0.00985641500000156	1	118	NA	123.308546926	0	0.55	2.6	1	117.762257496	117.772113911	"6"	687.618849766	680.645137908	1.5	0.1
0.01	1	0.00990561000003254	1	118	NA	123.308546926	0	0.55	2.6	1	117.996086971	118.005992581	"6"	687.618849766	680.645137908	1.5	0.1
0.01	1	0.00817006400001219	1	118	NA	123.308546926	0	0.55	2.6	1	118.229848821	118.238018885	"6"	687.618849766	680.645137908	1.5	0.1
0.01	1	0.0519046480000043	1	118	NA	123.308546926	0	0.55	2.6	1	118.463472046	118.515376694	"6"	687.618849766	680.645137908	1.5	0.1
0.01	1	0.0022285629999601	1	118	NA	123.308546926	0	0.55	2.6	1	118.747236725	118.749465288	"6"	687.618849766	680.645137908	1.5	0.1
0.01	1	0.0623969150000221	1	118	NA	123.308546926	0	0.55	2.6	1	118.981018621	119.043415536	"6"	687.618849766	680.645137908	1.5	0.1
0.01	1	0.0334015399999998	1	118	NA	123.308546926	0	0.55	2.6	1	119.281470996	119.314872536	"6"	687.618849766	680.645137908	1.5	0.1
0.01	1	0.0070560489999707	1	118	NA	123.308546926	0	0.55	2.6	1	119.548594488	119.555650537	"6"	687.618849766	680.645137908	1.5	0.1
0.01	1	0.325342600999988	1	118	NA	123.308546926	0	0.55	2.6	1	119.782378428	120.107721029	"6"	687.618849766	680.645137908	1.5	0.1
0.01	1	0.0379881620000333	1	118	NA	123.308546926	0	0.55	2.6	1	120.333241201	120.371229363	"6"	687.618849766	680.645137908	1.5	0.1
0.01	1	0.0277697790000389	1	118	NA	123.308546926	0	0.55	2.6	1	120.600423018	120.628192797	"6"	687.618849766	680.645137908	1.5	0.1
0.01	1	0.0096588289999886	1	118	NA	123.308546926	0	0.55	2.6	1	120.867443333	120.877102162	"6"	687.618849766	680.645137908	1.5	0.1
0.01	1	0.0298240710000073	1	118	NA	123.308546926	0	0.55	2.6	1	121.101250988	121.131075059	"6"	687.618849766	680.645137908	1.5	0.1
0.01	1	0.00299504399998796	1	118	NA	123.308546926	0	0.55	2.6	1	121.368371277	121.371366321	"6"	687.618849766	680.645137908	1.5	0.1
0.01	1	0.0100853129999905	1	118	NA	123.308546926	0	0.55	2.6	1	121.601985668	121.612070981	"6"	687.618849766	680.645137908	1.5	0.1
0.01	1	0.319643683000038	1	118	NA	123.308546926	0	0.55	2.6	1	121.835785751	122.155429434	"6"	687.618849766	680.645137908	1.5	0.1
0.01	1	0.336175258000026	1	118	NA	123.308546926	0	0.55	2.6	1	122.386754908	122.722930166	"6"	687.618849766	680.645137908	1.5	0.1
0.01	1	0.35260025599996	2	118	NA	123.308546926	0	0.55	2.6	1	122.954410516	123.307010772	"6"	687.618849766	680.645137908	1.5	0.1
0.01	1	0.149798758000031	1	87	NA	137.973142759	0	0.48	3.08	1	125.358454251	125.508253009	"7"	687.618849766	680.645137908	1.5	0.1
0.01	1	0.00319152800000211	1	87	NA	137.973142759	0	0.48	3.08	1	125.742301797	125.745493325	"7"	687.618849766	680.645137908	1.5	0.1
0.01	1	0.00396351400002004	1	87	NA	137.973142759	0	0.48	3.08	1	125.976151773	125.980115287	"7"	687.618849766	680.645137908	1.5	0.1
0.01	1	0.00457781500000465	1	87	NA	137.973142759	0	0.48	3.08	1	126.209847476	126.214425291	"7"	687.618849766	680.645137908	1.5	0.1
0.01	1	0.00394609099998888	1	87	NA	137.973142759	0	0.48	3.08	1	126.443638898	126.447584989	"7"	687.618849766	680.645137908	1.5	0.1
0.01	1	0.00390147600001001	1	87	NA	137.973142759	0	0.48	3.08	1	126.677267581	126.681169057	"7"	687.618849766	680.645137908	1.5	0.1
0.01	1	0.00453437699997039	1	87	NA	137.973142759	0	0.48	3.08	1	126.910995551	126.915529928	"7"	687.618849766	680.645137908	1.5	0.1
0.01	1	0.00379584000000932	1	87	NA	137.973142759	0	0.48	3.08	1	127.144727293	127.148523133	"7"	687.618849766	680.645137908	1.5	0.1
0.01	1	0.00449804200002291	1	87	NA	137.973142759	0	0.48	3.08	1	127.378540426	127.383038468	"7"	687.618849766	680.645137908	1.5	0.1
0.01	1	0.00391630699999723	1	87	NA	137.973142759	0	0.48	3.08	1	127.612176106	127.616092413	"7"	687.618849766	680.645137908	1.5	0.1
0.01	1	0.00389288799999576	1	87	NA	137.973142759	0	0.48	3.08	1	127.845832503	127.849725391	"7"	687.618849766	680.645137908	1.5	0.1
0.01	1	0.00344601500000863	1	87	NA	137.973142759	0	0.48	3.08	1	128.079628998	128.083075013	"7"	687.618849766	680.645137908	1.5	0.1
0.01	1	0.00371447899999566	1	87	NA	137.973142759	0	0.48	3.08	1	128.313386536	128.317101015	"7"	687.618849766	680.645137908	1.5	0.1
0.01	1	0.00365418000001227	1	87	NA	137.973142759	0	0.48	3.08	1	128.547211051	128.550865231	"7"	687.618849766	680.645137908	1.5	0.1
0.01	1	0.00400566100000788	1	87	NA	137.973142759	0	0.48	3.08	1	128.780722538	128.784728199	"7"	687.618849766	680.645137908	1.5	0.1
0.01	1	0.00398559799998566	1	87	NA	137.973142759	0	0.48	3.08	1	129.014567221	129.018552819	"7"	687.618849766	680.645137908	1.5	0.1
0.01	1	0.00387032300000101	1	87	NA	137.973142759	0	0.48	3.08	1	129.248318408	129.252188731	"7"	687.618849766	680.645137908	1.5	0.1
0.01	1	0.00393483100003778	1	87	NA	137.973142759	0	0.48	3.08	1	129.482064206	129.485999037	"7"	687.618849766	680.645137908	1.5	0.1
0.01	1	0.00371704200000522	1	87	NA	137.973142759	0	0.48	3.08	1	129.715672411	129.719389453	"7"	687.618849766	680.645137908	1.5	0.1
0.01	1	0.00395330200001354	1	87	NA	137.973142759	0	0.48	3.08	1	129.949401661	129.953354963	"7"	687.618849766	680.645137908	1.5	0.1
0.01	1	0.0039732600000093	1	87	NA	137.973142759	0	0.48	3.08	1	130.183129521	130.187102781	"7"	687.618849766	680.645137908	1.5	0.1
0.01	1	0.00397602200001757	1	87	NA	137.973142759	0	0.48	3.08	1	130.416899701	130.420875723	"7"	687.618849766	680.645137908	1.5	0.1
0.01	1	0.00393826299995226	1	87	NA	137.973142759	0	0.48	3.08	1	130.650696176	130.654634439	"7"	687.618849766	680.645137908	1.5	0.1
0.01	1	0.00382716599995092	1	87	NA	137.973142759	0	0.48	3.08	1	130.884383733	130.888210899	"7"	687.618849766	680.645137908	1.5	0.1
0.01	1	0.00387787299996489	1	87	NA	137.973142759	0	0.48	3.08	1	131.118133528	131.122011401	"7"	687.618849766	680.645137908	1.5	0.1
0.01	1	0.00327121600003011	1	87	NA	137.973142759	0	0.48	3.08	1	131.351745127	131.355016343	"7"	687.618849766	680.645137908	1.5	0.1
0.01	1	0.00354596300002186	1	87	NA	137.973142759	0	0.48	3.08	1	131.585637908	131.589183871	"7"	687.618849766	680.645137908	1.5	0.1
0.01	1	0.00217962099998203	1	87	NA	137.973142759	0	0.48	3.08	1	131.819267623	131.821447244	"7"	687.618849766	680.645137908	1.5	0.1
0.01	1	0.00212493399999403	1	87	NA	137.973142759	0	0.48	3.08	1	132.052998015	132.055122949	"7"	687.618849766	680.645137908	1.5	0.1
0.01	1	0.00379717800001345	1	87	NA	137.973142759	0	0.48	3.08	1	132.286694941	132.290492119	"7"	687.618849766	680.645137908	1.5	0.1
0.01	1	0.0035011410000152	1	87	NA	137.973142759	0	0.48	3.08	1	132.520437268	132.523938409	"7"	687.618849766	680.645137908	1.5	0.1
0.01	1	0.00332904500004361	1	87	NA	137.973142759	0	0.48	3.08	1	132.754216138	132.757545183	"7"	687.618849766	680.645137908	1.5	0.1
0.01	1	0.00456056000001581	1	87	NA	137.973142759	0	0.48	3.08	1	132.987882001	132.992442561	"7"	687.618849766	680.645137908	1.5	0.1
0.01	1	0.00458629199999905	1	87	NA	137.973142759	0	0.48	3.08	1	133.221687421	133.226273713	"7"	687.618849766	680.645137908	1.5	0.1
0.01	1	0.00453400999998621	1	87	NA	137.973142759	0	0.48	3.08	1	133.455435231	133.459969241	"7"	687.618849766	680.645137908	1.5	0.1
0.01	1	0.137845345000017	1	87	NA	137.973142759	0	0.48	3.08	1	133.689119751	133.826965096	"7"	687.618849766	680.645137908	1.5	0.1
0.01	1	0.211859391000019	1	87	NA	137.973142759	0	0.48	3.08	1	134.056327318	134.268186709	"7"	687.618849766	680.645137908	1.5	0.1
0.01	1	0.00199811499999214	1	87	NA	137.973142759	0	0.48	3.08	1	134.507056845	134.50905496	"7"	687.618849766	680.645137908	1.5	0.1
0.01	1	0.0623109119999867	1	87	NA	137.973142759	0	0.48	3.08	1	134.740828443	134.803139355	"7"	687.618849766	680.645137908	1.5	0.1
0.01	1	0.00205300800001851	1	87	NA	137.973142759	0	0.48	3.08	1	135.041361719	135.043414727	"7"	687.618849766	680.645137908	1.5	0.1
0.01	1	0.0403700830000275	1	87	NA	137.973142759	0	0.48	3.08	1	135.275065433	135.315435516	"7"	687.618849766	680.645137908	1.5	0.1
0.01	1	0.308329993000029	1	87	NA	137.973142759	0	0.48	3.08	1	135.542174416	135.850504409	"7"	687.618849766	680.645137908	1.5	0.1
0.01	1	0.0391941400000064	1	87	NA	137.973142759	0	0.48	3.08	1	136.076484781	136.115678921	"7"	687.618849766	680.645137908	1.5	0.1
0.01	1	0.0194016740000507	1	87	NA	137.973142759	0	0.48	3.08	1	136.343505988	136.362907662	"7"	687.618849766	680.645137908	1.5	0.1
0.01	1	0.0335594999999671	1	87	NA	137.973142759	0	0.48	3.08	1	136.593864308	136.627423808	"7"	687.618849766	680.645137908	1.5	0.1
0.01	1	0.0626349710000227	1	87	NA	137.973142759	0	0.48	3.08	1	136.861029156	136.923664127	"7"	687.618849766	680.645137908	1.5	0.1
0.01	1	0.0335213609999983	1	87	NA	137.973142759	0	0.48	3.08	1	137.161604948	137.195126309	"7"	687.618849766	680.645137908	1.5	0.1
0.01	1	0.126723817999959	1	87	NA	137.973142759	0	0.48	3.08	1	137.428706541	137.555430359	"7"	687.618849766	680.645137908	1.5	0.1
0.01	1	0.192250188000003	2	87	NA	137.973142759	0	0.48	3.08	1	137.779313903	137.971564091	"7"	687.618849766	680.645137908	1.5	0.1
0.01	1	0.459960920000015	1	6	141.755539508	NA	1	0	3.08	1	139.999563703	140.459524623	"8"	687.618849766	680.645137908	1.5	0.1
0.01	1	0.00387399700002788	1	6	141.755539508	NA	1	0	3.08	1	140.700921416	140.704795413	"8"	687.618849766	680.645137908	1.5	0.1
0.01	1	0.00398435400001063	1	6	141.755539508	NA	1	0	3.08	1	140.934519991	140.938504345	"8"	687.618849766	680.645137908	1.5	0.1
0.01	1	0.00382957300001863	1	6	141.755539508	NA	1	0	3.08	1	141.168280826	141.172110399	"8"	687.618849766	680.645137908	1.5	0.1
0.01	1	0.00450053499997694	1	6	141.755539508	NA	1	0	3.08	1	141.402071866	141.406572401	"8"	687.618849766	680.645137908	1.5	0.1
0.01	1	0.00375717499997563	1	6	141.755539508	NA	1	0	3.08	1	141.635737358	141.639494533	"8"	687.618849766	680.645137908	1.5	0.1
0.01	1	0.0388919110000074	1	106	NA	157.700429953	0	0.51	3.59	1	143.789337538	143.828229449	"9"	687.618849766	680.645137908	1.5	0.1
0.01	1	0.00382838199999469	1	106	NA	157.700429953	0	0.51	3.59	1	144.056552101	144.060380483	"9"	687.618849766	680.645137908	1.5	0.1
0.01	1	0.00461916500000825	1	106	NA	157.700429953	0	0.51	3.59	1	144.290256261	144.294875426	"9"	687.618849766	680.645137908	1.5	0.1
0.01	1	0.00336465199995928	1	106	NA	157.700429953	0	0.51	3.59	1	144.523915881	144.527280533	"9"	687.618849766	680.645137908	1.5	0.1
0.01	1	0.00371447800000624	1	106	NA	157.700429953	0	0.51	3.59	1	144.757656601	144.761371079	"9"	687.618849766	680.645137908	1.5	0.1
0.01	1	0.00392332299998088	1	106	NA	157.700429953	0	0.51	3.59	1	144.991456806	144.995380129	"9"	687.618849766	680.645137908	1.5	0.1
0.01	1	0.00389299299996537	1	106	NA	157.700429953	0	0.51	3.59	1	145.225196118	145.229089111	"9"	687.618849766	680.645137908	1.5	0.1
0.01	1	0.0039104829999701	1	106	NA	157.700429953	0	0.51	3.59	1	145.458835228	145.462745711	"9"	687.618849766	680.645137908	1.5	0.1
0.01	1	0.00399638900000809	1	106	NA	157.700429953	0	0.51	3.59	1	145.692557428	145.696553817	"9"	687.618849766	680.645137908	1.5	0.1
0.01	1	0.00350430200001028	1	106	NA	157.700429953	0	0.51	3.59	1	145.926331991	145.929836293	"9"	687.618849766	680.645137908	1.5	0.1
0.01	1	0.00396595499995556	1	106	NA	157.700429953	0	0.51	3.59	1	146.160047556	146.164013511	"9"	687.618849766	680.645137908	1.5	0.1
0.01	1	0.00399890500000311	1	106	NA	157.700429953	0	0.51	3.59	1	146.393835518	146.397834423	"9"	687.618849766	680.645137908	1.5	0.1
0.01	1	0.00458543499996722	1	106	NA	157.700429953	0	0.51	3.59	1	146.627534331	146.632119766	"9"	687.618849766	680.645137908	1.5	0.1
0.01	1	0.00369803899997123	1	106	NA	157.700429953	0	0.51	3.59	1	146.861180338	146.864878377	"9"	687.618849766	680.645137908	1.5	0.1
0.01	1	0.00402403699996512	1	106	NA	157.700429953	0	0.51	3.59	1	147.094963748	147.098987785	"9"	687.618849766	680.645137908	1.5	0.1
0.01	1	0.00425711100001536	1	106	NA	157.700429953	0	0.51	3.59	1	147.32863667	147.332893781	"9"	687.618849766	680.645137908	1.5	0.1
0.01	1	0.00322868799997877	1	106	NA	157.700429953	0	0.51	3.59	1	147.562412813	147.565641501	"9"	687.618849766	680.645137908	1.5	0.1
0.01	1	0.00457316099999616	1	106	NA	157.700429953	0	0.51	3.59	1	147.796143665	147.800716826	"9"	687.618849766	680.645137908	1.5	0.1
0.01	1	0.00358503799998289	1	106	NA	157.700429953	0	0.51	3.59	1	148.029843693	148.033428731	"9"	687.618849766	680.645137908	1.5	0.1
0.01	1	0.00381136700002571	1	106	NA	157.700429953	0	0.51	3.59	1	148.263567388	148.267378755	"9"	687.618849766	680.645137908	1.5	0.1
0.01	1	0.00378676499997255	1	106	NA	157.700429953	0	0.51	3.59	1	148.497230098	148.501016863	"9"	687.618849766	680.645137908	1.5	0.1
0.01	1	0.00450088700000606	1	106	NA	157.700429953	0	0.51	3.59	1	148.731036166	148.735537053	"9"	687.618849766	680.645137908	1.5	0.1
0.01	1	0.00338523700003179	1	106	NA	157.700429953	0	0.51	3.59	1	148.964755726	148.968140963	"9"	687.618849766	680.645137908	1.5	0.1
0.01	1	0.100927581999997	1	106	NA	157.700429953	0	0.51	3.59	1	149.198446251	149.299373833	"9"	687.618849766	680.645137908	1.5	0.1
0.01	1	0.002040739999984	1	106	NA	157.700429953	0	0.51	3.59	1	149.532372518	149.534413258	"9"	687.618849766	680.645137908	1.5	0.1
0.01	1	0.00395643799998879	1	106	NA	157.700429953	0	0.51	3.59	1	149.766061313	149.770017751	"9"	687.618849766	680.645137908	1.5	0.1
0.01	1	0.0916320589999486	1	106	NA	157.700429953	0	0.51	3.59	1	149.999793716	150.091425775	"9"	687.618849766	680.645137908	1.5	0.1
0.01	1	0.0036896550000165	1	106	NA	157.700429953	0	0.51	3.59	1	150.317003308	150.320692963	"9"	687.618849766	680.645137908	1.5	0.1
0.01	1	0.0597888020000141	1	106	NA	157.700429953	0	0.51	3.59	1	150.550878161	150.610666963	"9"	687.618849766	680.645137908	1.5	0.1
0.01	1	0.00204120500001181	1	106	NA	157.700429953	0	0.51	3.59	1	150.834671879	150.836713084	"9"	687.618849766	680.645137908	1.5	0.1
0.01	1	0.00454399500000591	1	106	NA	157.700429953	0	0.51	3.59	1	151.068471251	151.073015246	"9"	687.618849766	680.645137908	1.5	0.1
0.01	1	0.0691908889999695	1	106	NA	157.700429953	0	0.51	3.59	1	151.302161396	151.371352285	"9"	687.618849766	680.645137908	1.5	0.1
0.01	1	0.00399430199996686	1	106	NA	157.700429953	0	0.51	3.59	1	151.602564681	151.606558983	"9"	687.618849766	680.645137908	1.5	0.1
0.01	1	0.0564899010000204	1	106	NA	157.700429953	0	0.51	3.59	1	151.836324948	151.892814849	"9"	687.618849766	680.645137908	1.5	0.1
0.01	1	0.00199315000003253	1	106	NA	157.700429953	0	0.51	3.59	1	152.120077545	152.122070695	"9"	687.618849766	680.645137908	1.5	0.1
0.01	1	0.00373525400004837	1	106	NA	157.700429953	0	0.51	3.59	1	152.353766941	152.357502195	"9"	687.618849766	680.645137908	1.5	0.1
0.01	1	0.0642466300000137	1	106	NA	157.700429953	0	0.51	3.59	1	152.587505806	152.651752436	"9"	687.618849766	680.645137908	1.5	0.1
0.01	1	0.0042169650000119	1	106	NA	157.700429953	0	0.51	3.59	1	152.888115776	152.892332741	"9"	687.618849766	680.645137908	1.5	0.1
0.01	1	0.0733896759999766	1	106	NA	157.700429953	0	0.51	3.59	1	153.121726306	153.195115982	"9"	687.618849766	680.645137908	1.5	0.1
0.01	1	0.00199338400000215	1	106	NA	157.700429953	0	0.51	3.59	1	153.422231217	153.424224601	"9"	687.618849766	680.645137908	1.5	0.1
0.01	1	0.00386695099996359	1	106	NA	157.700429953	0	0.51	3.59	1	153.655962576	153.659829527	"9"	687.618849766	680.645137908	1.5	0.1
0.01	1	0.146227180000039	1	106	NA	157.700429953	0	0.51	3.59	1	153.889694856	154.035922036	"9"	687.618849766	680.645137908	1.5	0.1
0.01	1	0.00201225500001101	1	106	NA	157.700429953	0	0.51	3.59	1	154.273738306	154.275750561	"9"	687.618849766	680.645137908	1.5	0.1
0.01	1	0.289011124000012	1	106	NA	157.700429953	0	0.51	3.59	1	154.507393393	154.796404517	"9"	687.618849766	680.645137908	1.5	0.1
0.01	1	0.106007534000014	1	106	NA	157.700429953	0	0.51	3.59	1	155.024980403	155.130987937	"9"	687.618849766	680.645137908	1.5	0.1
0.01	1	0.100729882000053	1	106	NA	157.700429953	0	0.51	3.59	1	155.358881881	155.459611763	"9"	687.618849766	680.645137908	1.5	0.1
0.01	1	0.102505771999972	1	106	NA	157.700429953	0	0.51	3.59	1	155.692676416	155.795182188	"9"	687.618849766	680.645137908	1.5	0.1
0.01	1	0.0882963420000351	1	106	NA	157.700429953	0	0.51	3.59	1	156.026719178	156.11501552	"9"	687.618849766	680.645137908	1.5	0.1
0.01	1	0.108278210000037	1	106	NA	157.700429953	0	0.51	3.59	1	156.343799821	156.452078031	"9"	687.618849766	680.645137908	1.5	0.1
0.01	1	0.0945057880000491	1	106	NA	157.700429953	0	0.51	3.59	1	156.677719131	156.772224919	"9"	687.618849766	680.645137908	1.5	0.1
0.01	1	0.0870472490000225	1	106	NA	157.700429953	0	0.51	3.59	1	157.011577593	157.098624842	"9"	687.618849766	680.645137908	1.5	0.1
0.01	1	0.37006758199999	2	106	NA	157.700429953	0	0.51	3.59	1	157.328814266	157.698881848	"9"	687.618849766	680.645137908	1.5	0.1
0.01	1	0.00400349199998118	1	21	164.528093598	NA	1	0	3.59	1	159.732887971	159.736891463	"10"	687.618849766	680.645137908	1.5	0.1
0.01	1	0.00381263499997431	1	21	164.528093598	NA	1	0	3.59	1	159.966634598	159.970447233	"10"	687.618849766	680.645137908	1.5	0.1
0.01	1	0.00390951299999642	1	21	164.528093598	NA	1	0	3.59	1	160.200201278	160.204110791	"10"	687.618849766	680.645137908	1.5	0.1
0.01	1	0.00382694899997205	1	21	164.528093598	NA	1	0	3.59	1	160.434009856	160.437836805	"10"	687.618849766	680.645137908	1.5	0.1
0.01	1	0.00389038099996242	1	21	164.528093598	NA	1	0	3.59	1	160.667710108	160.671600489	"10"	687.618849766	680.645137908	1.5	0.1
0.01	1	0.00389177300002075	1	21	164.528093598	NA	1	0	3.59	1	160.901471888	160.905363661	"10"	687.618849766	680.645137908	1.5	0.1
0.01	1	0.00341079300000047	1	21	164.528093598	NA	1	0	3.59	1	161.135290306	161.138701099	"10"	687.618849766	680.645137908	1.5	0.1
0.01	1	0.004022587999998	1	21	164.528093598	NA	1	0	3.59	1	161.368961161	161.372983749	"10"	687.618849766	680.645137908	1.5	0.1
0.01	1	0.00368384900002638	1	21	164.528093598	NA	1	0	3.59	1	161.602611408	161.606295257	"10"	687.618849766	680.645137908	1.5	0.1
0.01	1	0.00358534800000143	1	21	164.528093598	NA	1	0	3.59	1	161.836431521	161.840016869	"10"	687.618849766	680.645137908	1.5	0.1
0.01	1	0.00331063200002291	1	21	164.528093598	NA	1	0	3.59	1	162.070145421	162.073456053	"10"	687.618849766	680.645137908	1.5	0.1
0.01	1	0.00364174699996056	1	21	164.528093598	NA	1	0	3.59	1	162.303848116	162.307489863	"10"	687.618849766	680.645137908	1.5	0.1
0.01	1	0.00221852800001443	1	21	164.528093598	NA	1	0	3.59	1	162.537610357	162.539828885	"10"	687.618849766	680.645137908	1.5	0.1
0.01	1	0.0038121260000139	1	21	164.528093598	NA	1	0	3.59	1	162.771381821	162.775193947	"10"	687.618849766	680.645137908	1.5	0.1
0.01	1	0.00387279800003171	1	21	164.528093598	NA	1	0	3.59	1	163.005150661	163.009023459	"10"	687.618849766	680.645137908	1.5	0.1
0.01	1	0.00344514699997944	1	21	164.528093598	NA	1	0	3.59	1	163.238843058	163.242288205	"10"	687.618849766	680.645137908	1.5	0.1
0.01	1	0.00381774400000268	1	21	164.528093598	NA	1	0	3.59	1	163.472565621	163.476383365	"10"	687.618849766	680.645137908	1.5	0.1
0.01	1	0.00368887700000187	1	21	164.528093598	NA	1	0	3.59	1	163.706304066	163.709992943	"10"	687.618849766	680.645137908	1.5	0.1
0.01	1	0.00388365800000656	1	21	164.528093598	NA	1	0	3.59	1	163.939911061	163.943794719	"10"	687.618849766	680.645137908	1.5	0.1
0.01	1	0.00440360200002488	1	21	164.528093598	NA	1	0	3.59	1	164.173699939	164.178103541	"10"	687.618849766	680.645137908	1.5	0.1
0.01	1	0.00381137200002968	1	21	164.528093598	NA	1	0	3.59	1	164.407402321	164.411213693	"10"	687.618849766	680.645137908	1.5	0.1
0.01	1	0.297434431999989	1	19	171.205142428	NA	1	0	3.59	1	166.577687156	166.875121588	"11"	687.618849766	680.645137908	1.5	0.1
0.01	1	0.00392765399999462	1	19	171.205142428	NA	1	0	3.59	1	167.111956091	167.115883745	"11"	687.618849766	680.645137908	1.5	0.1
0.01	1	0.00458465700000943	1	19	171.205142428	NA	1	0	3.59	1	167.345787651	167.350372308	"11"	687.618849766	680.645137908	1.5	0.1
0.01	1	0.00390385500003276	1	19	171.205142428	NA	1	0	3.59	1	167.579373346	167.583277201	"11"	687.618849766	680.645137908	1.5	0.1
0.01	1	0.00318702999999232	1	19	171.205142428	NA	1	0	3.59	1	167.813170369	167.816357399	"11"	687.618849766	680.645137908	1.5	0.1
0.01	1	0.00406113000002506	1	19	171.205142428	NA	1	0	3.59	1	168.046920241	168.050981371	"11"	687.618849766	680.645137908	1.5	0.1
0.01	1	0.00442240599994648	1	19	171.205142428	NA	1	0	3.59	1	168.28064135	168.285063756	"11"	687.618849766	680.645137908	1.5	0.1
0.01	1	0.0038839250000251	1	19	171.205142428	NA	1	0	3.59	1	168.514312936	168.518196861	"11"	687.618849766	680.645137908	1.5	0.1
0.01	1	0.00334424000004674	1	19	171.205142428	NA	1	0	3.59	1	168.748055373	168.751399613	"11"	687.618849766	680.645137908	1.5	0.1
0.01	1	0.00373653099995863	1	19	171.205142428	NA	1	0	3.59	1	168.981715738	168.985452269	"11"	687.618849766	680.645137908	1.5	0.1
0.01	1	0.00450923700003614	1	19	171.205142428	NA	1	0	3.59	1	169.215546791	169.220056028	"11"	687.618849766	680.645137908	1.5	0.1
0.01	1	0.00386880600001405	1	19	171.205142428	NA	1	0	3.59	1	169.449218651	169.453087457	"11"	687.618849766	680.645137908	1.5	0.1
0.01	1	0.00395343099995671	1	19	171.205142428	NA	1	0	3.59	1	169.682983676	169.686937107	"11"	687.618849766	680.645137908	1.5	0.1
0.01	1	0.00333927799999856	1	19	171.205142428	NA	1	0	3.59	1	169.916677855	169.920017133	"11"	687.618849766	680.645137908	1.5	0.1
0.01	1	0.0039491699999985	1	19	171.205142428	NA	1	0	3.59	1	170.150361543	170.154310713	"11"	687.618849766	680.645137908	1.5	0.1
0.01	1	0.00430711199999223	1	19	171.205142428	NA	1	0	3.59	1	170.384164696	170.388471808	"11"	687.618849766	680.645137908	1.5	0.1
0.01	1	0.00390507499997739	1	19	171.205142428	NA	1	0	3.59	1	170.617790776	170.621695851	"11"	687.618849766	680.645137908	1.5	0.1
0.01	1	0.00454507000000604	1	19	171.205142428	NA	1	0	3.59	1	170.851628606	170.856173676	"11"	687.618849766	680.645137908	1.5	0.1
0.01	1	0.00347300900000391	1	19	171.205142428	NA	1	0	3.59	1	171.085344518	171.088817527	"11"	687.618849766	680.645137908	1.5	0.1
0.01	1	0.00385718699999416	1	63	190.572119893	NA	1	0	3.59	1	173.238876216	173.242733403	"12"	687.618849766	680.645137908	1.5	0.1
0.01	1	0.107091588000003	1	63	190.572119893	NA	1	0	3.59	1	173.472733028	173.579824616	"12"	687.618849766	680.645137908	1.5	0.1
0.01	1	0.00451592199999595	1	63	190.572119893	NA	1	0	3.59	1	173.806519606	173.811035528	"12"	687.618849766	680.645137908	1.5	0.1
0.01	1	0.00382204300001376	1	63	190.572119893	NA	1	0	3.59	1	174.040246228	174.044068271	"12"	687.618849766	680.645137908	1.5	0.1
0.01	1	0.00359890999999379	1	63	190.572119893	NA	1	0	3.59	1	174.273964971	174.277563881	"12"	687.618849766	680.645137908	1.5	0.1
0.01	1	0.00353545300004043	1	63	190.572119893	NA	1	0	3.59	1	174.507747628	174.511283081	"12"	687.618849766	680.645137908	1.5	0.1
0.01	1	0.00385972899999842	1	63	190.572119893	NA	1	0	3.59	1	174.741503516	174.745363245	"12"	687.618849766	680.645137908	1.5	0.1
0.01	1	0.00425534700002572	1	63	190.572119893	NA	1	0	3.59	1	174.975115474	174.979370821	"12"	687.618849766	680.645137908	1.5	0.1
0.01	1	0.00399305000001959	1	63	190.572119893	NA	1	0	3.59	1	175.208882611	175.212875661	"12"	687.618849766	680.645137908	1.5	0.1
0.01	1	0.00334092100001726	1	63	190.572119893	NA	1	0	3.59	1	175.442653188	175.445994109	"12"	687.618849766	680.645137908	1.5	0.1
0.01	1	0.00391936500000156	1	63	190.572119893	NA	1	0	3.59	1	175.676287836	175.680207201	"12"	687.618849766	680.645137908	1.5	0.1
0.01	1	0.0038214690000018	1	63	190.572119893	NA	1	0	3.59	1	175.910042776	175.913864245	"12"	687.618849766	680.645137908	1.5	0.1
0.01	1	0.00390678299999081	1	63	190.572119893	NA	1	0	3.59	1	176.143709936	176.147616719	"12"	687.618849766	680.645137908	1.5	0.1
0.01	1	0.00333656800000881	1	63	190.572119893	NA	1	0	3.59	1	176.377604281	176.380940849	"12"	687.618849766	680.645137908	1.5	0.1
0.01	1	0.00347877899997684	1	63	190.572119893	NA	1	0	3.59	1	176.611246448	176.614725227	"12"	687.618849766	680.645137908	1.5	0.1
0.01	1	0.00478132700004608	1	63	190.572119893	NA	1	0	3.59	1	176.844953916	176.849735243	"12"	687.618849766	680.645137908	1.5	0.1
0.01	1	0.0041949929999987	1	63	190.572119893	NA	1	0	3.59	1	177.078641453	177.082836446	"12"	687.618849766	680.645137908	1.5	0.1
0.01	1	0.0503372439999907	1	63	190.572119893	NA	1	0	3.59	1	177.3124931	177.362830344	"12"	687.618849766	680.645137908	1.5	0.1
0.01	1	0.00206102099997452	1	63	190.572119893	NA	1	0	3.59	1	177.59635095	177.598411971	"12"	687.618849766	680.645137908	1.5	0.1
0.01	1	0.0135560599999849	1	63	190.572119893	NA	1	0	3.59	1	177.829924781	177.843480841	"12"	687.618849766	680.645137908	1.5	0.1
0.01	1	0.0661106960000097	1	63	190.572119893	NA	1	0	3.59	1	178.080478426	178.146589122	"12"	687.618849766	680.645137908	1.5	0.1
0.01	1	0.0941415020000136	1	63	190.572119893	NA	1	0	3.59	1	178.380897746	178.475039248	"12"	687.618849766	680.645137908	1.5	0.1
0.01	1	0.00414632100000745	1	63	190.572119893	NA	1	0	3.59	1	178.698040428	178.702186749	"12"	687.618849766	680.645137908	1.5	0.1
0.01	1	0.00398154700002351	1	63	190.572119893	NA	1	0	3.59	1	178.931915456	178.935897003	"12"	687.618849766	680.645137908	1.5	0.1
0.01	1	0.0379115069999898	1	63	190.572119893	NA	1	0	3.59	1	179.165571031	179.203482538	"12"	687.618849766	680.645137908	1.5	0.1
0.01	1	0.00388282900001968	1	63	190.572119893	NA	1	0	3.59	1	179.432640418	179.436523247	"12"	687.618849766	680.645137908	1.5	0.1
0.01	1	0.0660742619999724	1	63	190.572119893	NA	1	0	3.59	1	179.666424798	179.73249906	"12"	687.618849766	680.645137908	1.5	0.1
0.01	1	0.00391622400002234	1	63	190.572119893	NA	1	0	3.59	1	179.966885471	179.970801695	"12"	687.618849766	680.645137908	1.5	0.1
0.01	1	0.0430405070000006	1	63	190.572119893	NA	1	0	3.59	1	180.200625711	180.243666218	"12"	687.618849766	680.645137908	1.5	0.1
0.01	1	0.0019883080000227	1	63	190.572119893	NA	1	0	3.59	1	180.467674286	180.469662594	"12"	687.618849766	680.645137908	1.5	0.1
0.01	1	0.0785198640000431	1	63	190.572119893	NA	1	0	3.59	1	180.701447136	180.779967	"12"	687.618849766	680.645137908	1.5	0.1
0.01	1	0.00409126400001014	1	63	190.572119893	NA	1	0	3.59	1	181.001970013	181.006061277	"12"	687.618849766	680.645137908	1.5	0.1
0.01	1	0.0713170390000073	1	63	190.572119893	NA	1	0	3.59	1	181.235703256	181.307020295	"12"	687.618849766	680.645137908	1.5	0.1
0.01	1	0.00387581699999373	1	63	190.572119893	NA	1	0	3.59	1	181.536259048	181.540134865	"12"	687.618849766	680.645137908	1.5	0.1
0.01	1	0.106399474	1	63	190.572119893	NA	1	0	3.59	1	181.769922756	181.87632223	"12"	687.618849766	680.645137908	1.5	0.1
0.01	1	0.00201528600001666	1	63	190.572119893	NA	1	0	3.59	1	182.103803796	182.105819082	"12"	687.618849766	680.645137908	1.5	0.1
0.01	1	0.00374812699999438	1	63	190.572119893	NA	1	0	3.59	1	182.337625336	182.341373463	"12"	687.618849766	680.645137908	1.5	0.1
0.01	1	0.0882317720000287	1	63	190.572119893	NA	1	0	3.59	1	182.571216171	182.659447943	"12"	687.618849766	680.645137908	1.5	0.1
0.01	1	0.00210910099997363	1	63	190.572119893	NA	1	0	3.59	1	182.888501611	182.890610712	"12"	687.618849766	680.645137908	1.5	0.1
0.01	1	0.00458388499998819	1	63	190.572119893	NA	1	0	3.59	1	183.122261521	183.126845406	"12"	687.618849766	680.645137908	1.5	0.1
0.01	1	0.00383087399995929	1	63	190.572119893	NA	1	0	3.59	1	183.355981193	183.359812067	"12"	687.618849766	680.645137908	1.5	0.1
0.01	1	0.00391388799999959	1	63	190.572119893	NA	1	0	3.59	1	183.589714493	183.593628381	"12"	687.618849766	680.645137908	1.5	0.1
0.01	1	0.00369737500000156	1	63	190.572119893	NA	1	0	3.59	1	183.823355306	183.827052681	"12"	687.618849766	680.645137908	1.5	0.1
0.01	1	0.00464019700001472	1	63	190.572119893	NA	1	0	3.59	1	184.057172991	184.061813188	"12"	687.618849766	680.645137908	1.5	0.1
0.01	1	0.00455190999997512	1	63	190.572119893	NA	1	0	3.59	1	184.290789416	184.295341326	"12"	687.618849766	680.645137908	1.5	0.1
0.01	1	0.00765026700003091	1	63	190.572119893	NA	1	0	3.59	1	184.524581554	184.532231821	"12"	687.618849766	680.645137908	1.5	0.1
0.01	1	0.0379807690000007	1	63	190.572119893	NA	1	0	3.59	1	184.758234141	184.79621491	"12"	687.618849766	680.645137908	1.5	0.1
0.01	1	0.113797331000001	1	63	190.572119893	NA	1	0	3.59	1	185.025456317	185.139253648	"12"	687.618849766	680.645137908	1.5	0.1
0.01	1	0.0759393889999842	1	63	190.572119893	NA	1	0	3.59	1	185.375933471	185.45187286	"12"	687.618849766	680.645137908	1.5	0.1
0.01	1	0.0396447249999596	1	63	190.572119893	NA	1	0	3.59	1	185.676561661	185.716206386	"12"	687.618849766	680.645137908	1.5	0.1
0.01	1	0.084228974000041	1	63	190.572119893	NA	1	0	3.59	1	185.943674218	186.027903192	"12"	687.618849766	680.645137908	1.5	0.1
0.01	1	0.215718225000046	1	63	190.572119893	NA	1	0	3.59	1	186.260740913	186.476459138	"12"	687.618849766	680.645137908	1.5	0.1
0.01	1	0.15649316400004	1	63	190.572119893	NA	1	0	3.59	1	186.711570596	186.86806376	"12"	687.618849766	680.645137908	1.5	0.1
0.01	1	0.164684230999967	1	63	190.572119893	NA	1	0	3.59	1	187.095527308	187.260211539	"12"	687.618849766	680.645137908	1.5	0.1
0.01	1	0.114972298999987	1	63	190.572119893	NA	1	0	3.59	1	187.496187871	187.61116017	"12"	687.618849766	680.645137908	1.5	0.1
0.01	1	0.0934310849999633	1	63	190.572119893	NA	1	0	3.59	1	187.846899781	187.940330866	"12"	687.618849766	680.645137908	1.5	0.1
0.01	1	0.095431374000043	1	63	190.572119893	NA	1	0	3.59	1	188.164015301	188.259446675	"12"	687.618849766	680.645137908	1.5	0.1
0.01	1	0.0977625130000206	1	63	190.572119893	NA	1	0	3.59	1	188.481354906	188.579117419	"12"	687.618849766	680.645137908	1.5	0.1
0.01	1	0.0680629689999819	1	63	190.572119893	NA	1	0	3.59	1	188.815049593	188.883112562	"12"	687.618849766	680.645137908	1.5	0.1
0.01	1	0.0715413359999957	1	63	190.572119893	NA	1	0	3.59	1	189.115632733	189.187174069	"12"	687.618849766	680.645137908	1.5	0.1
0.01	1	0.0912711520000471	1	63	190.572119893	NA	1	0	3.59	1	189.416166266	189.507437418	"12"	687.618849766	680.645137908	1.5	0.1
0.01	1	0.422112902000038	1	63	190.572119893	NA	1	0	3.59	1	189.733304696	190.155417598	"12"	687.618849766	680.645137908	1.5	0.1
0.01	1	0.0669910020000088	1	63	190.572119893	NA	1	0	3.59	1	190.384515821	190.451506823	"12"	687.618849766	680.645137908	1.5	0.1
0.01	1	0.00391634400000385	1	54	NA	198.002934529	0	0.23	3.82	1	192.621555143	192.625471487	"13"	687.618849766	680.645137908	1.5	0.1
0.01	1	0.00331030400002419	1	54	NA	198.002934529	0	0.23	3.82	1	192.855258723	192.858569027	"13"	687.618849766	680.645137908	1.5	0.1
0.01	1	0.00211396399998875	1	54	NA	198.002934529	0	0.23	3.82	1	193.08900085	193.091114814	"13"	687.618849766	680.645137908	1.5	0.1
0.01	1	0.00326284999999871	1	54	NA	198.002934529	0	0.23	3.82	1	193.322708021	193.325970871	"13"	687.618849766	680.645137908	1.5	0.1
0.01	1	0.00359628500001463	1	54	NA	198.002934529	0	0.23	3.82	1	193.556389916	193.559986201	"13"	687.618849766	680.645137908	1.5	0.1
0.01	1	0.00324713800000609	1	54	NA	198.002934529	0	0.23	3.82	1	193.790149001	193.793396139	"13"	687.618849766	680.645137908	1.5	0.1
0.01	1	0.00459204499998123	1	54	NA	198.002934529	0	0.23	3.82	1	194.023870786	194.028462831	"13"	687.618849766	680.645137908	1.5	0.1
0.01	1	0.00382962899999484	1	54	NA	198.002934529	0	0.23	3.82	1	194.257570188	194.261399817	"13"	687.618849766	680.645137908	1.5	0.1
0.01	1	0.00388182999995479	1	54	NA	198.002934529	0	0.23	3.82	1	194.491345481	194.495227311	"13"	687.618849766	680.645137908	1.5	0.1
0.01	1	0.00354016400001456	1	54	NA	198.002934529	0	0.23	3.82	1	194.725102101	194.728642265	"13"	687.618849766	680.645137908	1.5	0.1
0.01	1	0.00349603899996964	1	54	NA	198.002934529	0	0.23	3.82	1	194.958758216	194.962254255	"13"	687.618849766	680.645137908	1.5	0.1
0.01	1	0.00382372399997166	1	54	NA	198.002934529	0	0.23	3.82	1	195.192497341	195.196321065	"13"	687.618849766	680.645137908	1.5	0.1
0.01	1	0.00458971199998359	1	54	NA	198.002934529	0	0.23	3.82	1	195.426232121	195.430821833	"13"	687.618849766	680.645137908	1.5	0.1
0.01	1	0.00484315699998206	1	54	NA	198.002934529	0	0.23	3.82	1	195.659968571	195.664811728	"13"	687.618849766	680.645137908	1.5	0.1
0.01	1	0.0038270500000408	1	54	NA	198.002934529	0	0.23	3.82	1	195.893648911	195.897475961	"13"	687.618849766	680.645137908	1.5	0.1
0.01	1	0.00387733799999523	1	54	NA	198.002934529	0	0.23	3.82	1	196.127348741	196.131226079	"13"	687.618849766	680.645137908	1.5	0.1
0.01	1	0.00426672999998345	1	54	NA	198.002934529	0	0.23	3.82	1	196.361183136	196.365449866	"13"	687.618849766	680.645137908	1.5	0.1
0.01	1	0.00340794300001335	1	54	NA	198.002934529	0	0.23	3.82	1	196.594963188	196.598371131	"13"	687.618849766	680.645137908	1.5	0.1
0.01	1	0.00341417900000351	1	54	NA	198.002934529	0	0.23	3.82	1	196.828635206	196.832049385	"13"	687.618849766	680.645137908	1.5	0.1
0.01	1	0.00376619100001108	1	54	NA	198.002934529	0	0.23	3.82	1	197.062340608	197.066106799	"13"	687.618849766	680.645137908	1.5	0.1
0.01	1	0.00396701300002178	1	54	NA	198.002934529	0	0.23	3.82	1	197.295998878	197.299965891	"13"	687.618849766	680.645137908	1.5	0.1
0.01	1	0.00393313099999659	1	54	NA	198.002934529	0	0.23	3.82	1	197.529757458	197.533690589	"13"	687.618849766	680.645137908	1.5	0.1
0.01	1	0.00365803699997969	1	54	NA	198.002934529	0	0.23	3.82	1	197.763519376	197.767177413	"13"	687.618849766	680.645137908	1.5	0.1
0.01	1	0.00392628099996273	2	54	NA	198.002934529	0	0.23	3.82	1	197.997196956	198.001123237	"13"	687.618849766	680.645137908	1.5	0.1
0.01	1	0.112221433999991	1	103	NA	212.25317689	0	0.48	4.3	1	200.050694111	200.162915545	"14"	687.618849766	680.645137908	1.5	0.1
0.01	1	0.00471299500003397	1	103	NA	212.25317689	0	0.48	4.3	1	200.401232596	200.405945591	"14"	687.618849766	680.645137908	1.5	0.1
0.01	1	0.00381922900004383	1	103	NA	212.25317689	0	0.48	4.3	1	200.635025546	200.638844775	"14"	687.618849766	680.645137908	1.5	0.1
0.01	1	0.00385336599998709	1	103	NA	212.25317689	0	0.48	4.3	1	200.868773651	200.872627017	"14"	687.618849766	680.645137908	1.5	0.1
0.01	1	0.00396415000000161	1	103	NA	212.25317689	0	0.48	4.3	1	201.102474273	201.106438423	"14"	687.618849766	680.645137908	1.5	0.1
0.01	1	0.00376615100003619	1	103	NA	212.25317689	0	0.48	4.3	1	201.336187676	201.339953827	"14"	687.618849766	680.645137908	1.5	0.1
0.01	1	0.00375309300000026	1	103	NA	212.25317689	0	0.48	4.3	1	201.569911648	201.573664741	"14"	687.618849766	680.645137908	1.5	0.1
0.01	1	0.003704335000009	1	103	NA	212.25317689	0	0.48	4.3	1	201.803560718	201.807265053	"14"	687.618849766	680.645137908	1.5	0.1
0.01	1	0.00419920600000978	1	103	NA	212.25317689	0	0.48	4.3	1	202.037438371	202.041637577	"14"	687.618849766	680.645137908	1.5	0.1
0.01	1	0.00393572399997311	1	103	NA	212.25317689	0	0.48	4.3	1	202.271018333	202.274954057	"14"	687.618849766	680.645137908	1.5	0.1
0.01	1	0.00382588100001158	1	103	NA	212.25317689	0	0.48	4.3	1	202.504686106	202.508511987	"14"	687.618849766	680.645137908	1.5	0.1
0.01	1	0.00454852999996547	1	103	NA	212.25317689	0	0.48	4.3	1	202.738602326	202.743150856	"14"	687.618849766	680.645137908	1.5	0.1
0.01	1	0.00486060999998017	1	103	NA	212.25317689	0	0.48	4.3	1	202.972321186	202.977181796	"14"	687.618849766	680.645137908	1.5	0.1
0.01	1	0.00328913599997804	1	103	NA	212.25317689	0	0.48	4.3	1	203.205972935	203.209262071	"14"	687.618849766	680.645137908	1.5	0.1
0.01	1	0.00401422299995602	1	103	NA	212.25317689	0	0.48	4.3	1	203.439737896	203.443752119	"14"	687.618849766	680.645137908	1.5	0.1
0.01	1	0.00409941499998467	1	103	NA	212.25317689	0	0.48	4.3	1	203.673501986	203.677601401	"14"	687.618849766	680.645137908	1.5	0.1
0.01	1	0.00388047600000618	1	103	NA	212.25317689	0	0.48	4.3	1	203.907178991	203.911059467	"14"	687.618849766	680.645137908	1.5	0.1
0.01	1	0.00370329600002606	1	103	NA	212.25317689	0	0.48	4.3	1	204.140969873	204.144673169	"14"	687.618849766	680.645137908	1.5	0.1
0.01	1	0.00372289400002046	1	103	NA	212.25317689	0	0.48	4.3	1	204.374613251	204.378336145	"14"	687.618849766	680.645137908	1.5	0.1
0.01	1	0.00365358900000956	1	103	NA	212.25317689	0	0.48	4.3	1	204.608444968	204.612098557	"14"	687.618849766	680.645137908	1.5	0.1
0.01	1	0.00388824800000975	1	103	NA	212.25317689	0	0.48	4.3	1	204.842140153	204.846028401	"14"	687.618849766	680.645137908	1.5	0.1
0.01	1	0.00362530299997843	1	103	NA	212.25317689	0	0.48	4.3	1	205.075762608	205.079387911	"14"	687.618849766	680.645137908	1.5	0.1
0.01	1	0.00397101200002226	1	103	NA	212.25317689	0	0.48	4.3	1	205.309478923	205.313449935	"14"	687.618849766	680.645137908	1.5	0.1
0.01	1	0.00333735399999568	1	103	NA	212.25317689	0	0.48	4.3	1	205.543261901	205.546599255	"14"	687.618849766	680.645137908	1.5	0.1
0.01	1	0.0037023309999995	1	103	NA	212.25317689	0	0.48	4.3	1	205.776997196	205.780699527	"14"	687.618849766	680.645137908	1.5	0.1
0.01	1	0.00458897200002184	1	103	NA	212.25317689	0	0.48	4.3	1	206.010687461	206.015276433	"14"	687.618849766	680.645137908	1.5	0.1
0.01	1	0.00397455900002797	1	103	NA	212.25317689	0	0.48	4.3	1	206.244415418	206.248389977	"14"	687.618849766	680.645137908	1.5	0.1
0.01	1	0.00380216899998231	1	103	NA	212.25317689	0	0.48	4.3	1	206.478211796	206.482013965	"14"	687.618849766	680.645137908	1.5	0.1
0.01	1	0.00348119299997052	1	103	NA	212.25317689	0	0.48	4.3	1	206.711912956	206.715394149	"14"	687.618849766	680.645137908	1.5	0.1
0.01	1	0.00398689900004001	1	103	NA	212.25317689	0	0.48	4.3	1	206.945680686	206.949667585	"14"	687.618849766	680.645137908	1.5	0.1
0.01	1	0.00385606399999006	1	103	NA	212.25317689	0	0.48	4.3	1	207.179391193	207.183247257	"14"	687.618849766	680.645137908	1.5	0.1
0.01	1	0.00397928700004968	1	103	NA	212.25317689	0	0.48	4.3	1	207.412994878	207.416974165	"14"	687.618849766	680.645137908	1.5	0.1
0.01	1	0.00331586100003278	1	103	NA	212.25317689	0	0.48	4.3	1	207.646772058	207.650087919	"14"	687.618849766	680.645137908	1.5	0.1
0.01	1	0.138759628000003	1	103	NA	212.25317689	0	0.48	4.3	1	207.880531726	208.019291354	"14"	687.618849766	680.645137908	1.5	0.1
0.01	1	0.00209997399997519	1	103	NA	212.25317689	0	0.48	4.3	1	208.247850315	208.249950289	"14"	687.618849766	680.645137908	1.5	0.1
0.01	1	0.0020759359999829	1	103	NA	212.25317689	0	0.48	4.3	1	208.48148136	208.483557296	"14"	687.618849766	680.645137908	1.5	0.1
0.01	1	0.00203698000001395	1	103	NA	212.25317689	0	0.48	4.3	1	208.715240406	208.717277386	"14"	687.618849766	680.645137908	1.5	0.1
0.01	1	0.00395489900000712	1	103	NA	212.25317689	0	0.48	4.3	1	208.949004546	208.952959445	"14"	687.618849766	680.645137908	1.5	0.1
0.01	1	0.0535438919999933	1	103	NA	212.25317689	0	0.48	4.3	1	209.182693627	209.236237519	"14"	687.618849766	680.645137908	1.5	0.1
0.01	1	0.00219040999996878	1	103	NA	212.25317689	0	0.48	4.3	1	209.466532428	209.468722838	"14"	687.618849766	680.645137908	1.5	0.1
0.01	1	0.00390843099995664	1	103	NA	212.25317689	0	0.48	4.3	1	209.700274628	209.704183059	"14"	687.618849766	680.645137908	1.5	0.1
0.01	1	0.00381213399998614	1	103	NA	212.25317689	0	0.48	4.3	1	209.933941061	209.937753195	"14"	687.618849766	680.645137908	1.5	0.1
0.01	1	0.0908543369999961	1	103	NA	212.25317689	0	0.48	4.3	1	210.167743691	210.258598028	"14"	687.618849766	680.645137908	1.5	0.1
0.01	1	0.00371816599999875	1	103	NA	212.25317689	0	0.48	4.3	1	210.484891521	210.488609687	"14"	687.618849766	680.645137908	1.5	0.1
0.01	1	0.125522977999992	1	103	NA	212.25317689	0	0.48	4.3	1	210.718625151	210.844148129	"14"	687.618849766	680.645137908	1.5	0.1
0.01	1	0.00223612100000992	1	103	NA	212.25317689	0	0.48	4.3	1	211.069113585	211.071349706	"14"	687.618849766	680.645137908	1.5	0.1
0.01	1	0.0438650460000076	1	103	NA	212.25317689	0	0.48	4.3	1	211.302941008	211.346806054	"14"	687.618849766	680.645137908	1.5	0.1
0.01	1	0.161304137999991	1	103	NA	212.25317689	0	0.48	4.3	1	211.570024851	211.731328989	"14"	687.618849766	680.645137908	1.5	0.1
0.01	1	0.297526710999989	2	103	NA	212.25317689	0	0.48	4.3	1	211.954059388	212.251586099	"14"	687.618849766	680.645137908	1.5	0.1
0.01	1	0.00453491500002201	1	120	NA	222.437248693	0	0.27	4.57	1	214.307948871	214.312483786	"15"	687.618849766	680.645137908	1.5	0.1
0.01	1	0.0778037380000001	1	120	NA	222.437248693	0	0.27	4.57	1	214.541752921	214.619556659	"15"	687.618849766	680.645137908	1.5	0.1
0.01	1	0.00436747999998488	1	120	NA	222.437248693	0	0.27	4.57	1	214.842233613	214.846601093	"15"	687.618849766	680.645137908	1.5	0.1
0.01	1	0.0243454509999879	1	120	NA	222.437248693	0	0.27	4.57	1	215.076008228	215.100353679	"15"	687.618849766	680.645137908	1.5	0.1
0.01	1	0.00204934900000353	1	120	NA	222.437248693	0	0.27	4.57	1	215.326366961	215.32841631	"15"	687.618849766	680.645137908	1.5	0.1
0.01	1	0.0353006479999749	1	120	NA	222.437248693	0	0.27	4.57	1	215.560152073	215.595452721	"15"	687.618849766	680.645137908	1.5	0.1
0.01	1	0.00455193999999892	1	120	NA	222.437248693	0	0.27	4.57	1	215.827395876	215.831947816	"15"	687.618849766	680.645137908	1.5	0.1
0.01	1	0.0545249859999899	1	120	NA	222.437248693	0	0.27	4.57	1	216.061034401	216.115559387	"15"	687.618849766	680.645137908	1.5	0.1
0.01	1	0.00200722700003553	1	120	NA	222.437248693	0	0.27	4.57	1	216.344749406	216.346756633	"15"	687.618849766	680.645137908	1.5	0.1
0.01	1	0.00384432300000981	1	120	NA	222.437248693	0	0.27	4.57	1	216.578481156	216.582325479	"15"	687.618849766	680.645137908	1.5	0.1
0.01	1	0.0788160070000004	1	120	NA	222.437248693	0	0.27	4.57	1	216.812238268	216.891054275	"15"	687.618849766	680.645137908	1.5	0.1
0.01	1	0.00456467499998325	1	120	NA	222.437248693	0	0.27	4.57	1	217.129377071	217.133941746	"15"	687.618849766	680.645137908	1.5	0.1
0.01	1	0.088313573999983	1	120	NA	222.437248693	0	0.27	4.57	1	217.363212091	217.451525665	"15"	687.618849766	680.645137908	1.5	0.1
0.01	1	0.00458993499995586	1	120	NA	222.437248693	0	0.27	4.57	1	217.680291071	217.684881006	"15"	687.618849766	680.645137908	1.5	0.1
0.01	1	0.0494724910000173	1	120	NA	222.437248693	0	0.27	4.57	1	217.914012786	217.963485277	"15"	687.618849766	680.645137908	1.5	0.1
0.01	1	0.00409072300004709	1	120	NA	222.437248693	0	0.27	4.57	1	218.197787366	218.201878089	"15"	687.618849766	680.645137908	1.5	0.1
0.01	1	0.0596972079999887	1	120	NA	222.437248693	0	0.27	4.57	1	218.431652018	218.491349226	"15"	687.618849766	680.645137908	1.5	0.1
0.01	1	0.00391306400001667	1	120	NA	222.437248693	0	0.27	4.57	1	218.732193991	218.736107055	"15"	687.618849766	680.645137908	1.5	0.1
0.01	1	0.0617991359999905	1	120	NA	222.437248693	0	0.27	4.57	1	218.965974233	219.027773369	"15"	687.618849766	680.645137908	1.5	0.1
0.01	1	0.00461621499999865	1	120	NA	222.437248693	0	0.27	4.57	1	219.249677851	219.254294066	"15"	687.618849766	680.645137908	1.5	0.1
0.01	1	0.0876505130000282	1	120	NA	222.437248693	0	0.27	4.57	1	219.483431756	219.571082269	"15"	687.618849766	680.645137908	1.5	0.1
0.01	1	0.00380089299994779	1	120	NA	222.437248693	0	0.27	4.57	1	219.800530568	219.804331461	"15"	687.618849766	680.645137908	1.5	0.1
0.01	1	0.0657908950000206	1	120	NA	222.437248693	0	0.27	4.57	1	220.034343573	220.100134468	"15"	687.618849766	680.645137908	1.5	0.1
0.01	1	0.00390843299999233	1	120	NA	222.437248693	0	0.27	4.57	1	220.334840678	220.338749111	"15"	687.618849766	680.645137908	1.5	0.1
0.01	1	0.058836456999984	1	120	NA	222.437248693	0	0.27	4.57	1	220.568566931	220.627403388	"15"	687.618849766	680.645137908	1.5	0.1
0.01	1	0.00205894399999806	1	120	NA	222.437248693	0	0.27	4.57	1	220.852398968	220.854457912	"15"	687.618849766	680.645137908	1.5	0.1
0.01	1	0.629107863000002	1	120	NA	222.437248693	0	0.27	4.57	1	221.086058591	221.715166454	"15"	687.618849766	680.645137908	1.5	0.1
0.01	1	0.481543391999992	2	120	NA	222.437248693	0	0.27	4.57	1	221.954153568	222.43569696	"15"	687.618849766	680.645137908	1.5	0.1
0.01	1	0.00420456400001967	1	109	NA	234.748882352	0	0.4	4.97	1	224.475111967	224.479316531	"16"	687.618849766	680.645137908	1.5	0.1
0.01	1	0.00456202999998823	1	109	NA	234.748882352	0	0.4	4.97	1	224.708879726	224.713441756	"16"	687.618849766	680.645137908	1.5	0.1
0.01	1	0.00448819700000058	1	109	NA	234.748882352	0	0.4	4.97	1	224.942510434	224.946998631	"16"	687.618849766	680.645137908	1.5	0.1
0.01	1	0.00330399799997849	1	109	NA	234.748882352	0	0.4	4.97	1	225.176325771	225.179629769	"16"	687.618849766	680.645137908	1.5	0.1
0.01	1	0.00342824099999461	1	109	NA	234.748882352	0	0.4	4.97	1	225.409970098	225.413398339	"16"	687.618849766	680.645137908	1.5	0.1
0.01	1	0.00406723899999406	1	109	NA	234.748882352	0	0.4	4.97	1	225.643753638	225.647820877	"16"	687.618849766	680.645137908	1.5	0.1
0.01	1	0.00400437299998657	1	109	NA	234.748882352	0	0.4	4.97	1	225.877434846	225.881439219	"16"	687.618849766	680.645137908	1.5	0.1
0.01	1	0.00460860499998716	1	109	NA	234.748882352	0	0.4	4.97	1	226.111167226	226.115775831	"16"	687.618849766	680.645137908	1.5	0.1
0.01	1	0.00449641000000156	1	109	NA	234.748882352	0	0.4	4.97	1	226.345108826	226.349605236	"16"	687.618849766	680.645137908	1.5	0.1
0.01	1	0.00375968000003013	1	109	NA	234.748882352	0	0.4	4.97	1	226.578635221	226.582394901	"16"	687.618849766	680.645137908	1.5	0.1
0.01	1	0.00386678299997811	1	109	NA	234.748882352	0	0.4	4.97	1	226.812389156	226.816255939	"16"	687.618849766	680.645137908	1.5	0.1
0.01	1	0.00367247600001974	1	109	NA	234.748882352	0	0.4	4.97	1	227.046084231	227.049756707	"16"	687.618849766	680.645137908	1.5	0.1
0.01	1	0.00453703499999847	1	109	NA	234.748882352	0	0.4	4.97	1	227.279846441	227.284383476	"16"	687.618849766	680.645137908	1.5	0.1
0.01	1	0.00384355300002426	1	109	NA	234.748882352	0	0.4	4.97	1	227.513582218	227.517425771	"16"	687.618849766	680.645137908	1.5	0.1
0.01	1	0.00473680999999715	1	109	NA	234.748882352	0	0.4	4.97	1	227.747184386	227.751921196	"16"	687.618849766	680.645137908	1.5	0.1
0.01	1	0.00385112000003573	1	109	NA	234.748882352	0	0.4	4.97	1	227.980948231	227.984799351	"16"	687.618849766	680.645137908	1.5	0.1
0.01	1	0.00458960500003514	1	109	NA	234.748882352	0	0.4	4.97	1	228.214737071	228.219326676	"16"	687.618849766	680.645137908	1.5	0.1
0.01	1	0.171736500000009	1	109	NA	234.748882352	0	0.4	4.97	1	228.448533448	228.620269948	"16"	687.618849766	680.645137908	1.5	0.1
0.01	1	0.00391007499996476	1	109	NA	234.748882352	0	0.4	4.97	1	228.849058276	228.852968351	"16"	687.618849766	680.645137908	1.5	0.1
0.01	1	0.0648113150000427	1	109	NA	234.748882352	0	0.4	4.97	1	229.082878053	229.147689368	"16"	687.618849766	680.645137908	1.5	0.1
0.01	1	0.00399987700001248	1	109	NA	234.748882352	0	0.4	4.97	1	229.383374568	229.387374445	"16"	687.618849766	680.645137908	1.5	0.1
0.01	1	0.0269470310000202	1	109	NA	234.748882352	0	0.4	4.97	1	229.617005648	229.643952679	"16"	687.618849766	680.645137908	1.5	0.1
0.01	1	0.00397048700000369	1	109	NA	234.748882352	0	0.4	4.97	1	229.867462306	229.871432793	"16"	687.618849766	680.645137908	1.5	0.1
0.01	1	0.0543815860000336	1	109	NA	234.748882352	0	0.4	4.97	1	230.101186911	230.155568497	"16"	687.618849766	680.645137908	1.5	0.1
0.01	1	0.0040036979999627	1	109	NA	234.748882352	0	0.4	4.97	1	230.385041033	230.389044731	"16"	687.618849766	680.645137908	1.5	0.1
0.01	1	0.0890001910000251	1	109	NA	234.748882352	0	0.4	4.97	1	230.618715377	230.707715568	"16"	687.618849766	680.645137908	1.5	0.1
0.01	1	0.00455558500004827	1	109	NA	234.748882352	0	0.4	4.97	1	230.935959846	230.940515431	"16"	687.618849766	680.645137908	1.5	0.1
0.01	1	0.0813153809999676	1	109	NA	234.748882352	0	0.4	4.97	1	231.169687626	231.251003007	"16"	687.618849766	680.645137908	1.5	0.1
0.01	1	0.00385057099998676	1	109	NA	234.748882352	0	0.4	4.97	1	231.486899646	231.490750217	"16"	687.618849766	680.645137908	1.5	0.1
0.01	1	0.0919046239999943	1	109	NA	234.748882352	0	0.4	4.97	1	231.720646241	231.812550865	"16"	687.618849766	680.645137908	1.5	0.1
0.01	1	0.00200030999997125	1	109	NA	234.748882352	0	0.4	4.97	1	232.037792735	232.039793045	"16"	687.618849766	680.645137908	1.5	0.1
0.01	1	0.00202182599997514	1	109	NA	234.748882352	0	0.4	4.97	1	232.271547807	232.273569633	"16"	687.618849766	680.645137908	1.5	0.1
0.01	1	0.0817715520000206	1	109	NA	234.748882352	0	0.4	4.97	1	232.505269041	232.587040593	"16"	687.618849766	680.645137908	1.5	0.1
0.01	1	0.00206797800001368	1	109	NA	234.748882352	0	0.4	4.97	1	232.822513657	232.824581635	"16"	687.618849766	680.645137908	1.5	0.1
0.01	1	0.0997468200000071	1	109	NA	234.748882352	0	0.4	4.97	1	233.056143306	233.155890126	"16"	687.618849766	680.645137908	1.5	0.1
0.01	1	0.0045298900000148	1	109	NA	234.748882352	0	0.4	4.97	1	233.390109126	233.394639016	"16"	687.618849766	680.645137908	1.5	0.1
0.01	1	0.00458285499996691	1	109	NA	234.748882352	0	0.4	4.97	1	233.623838246	233.628421101	"16"	687.618849766	680.645137908	1.5	0.1
0.01	1	0.12288274399998	1	109	NA	234.748882352	0	0.4	4.97	1	233.85746871	233.980351454	"16"	687.618849766	680.645137908	1.5	0.1
0.01	1	0.00462241700000732	1	109	NA	234.748882352	0	0.4	4.97	1	234.208089161	234.212711578	"16"	687.618849766	680.645137908	1.5	0.1
0.01	1	0.00461122699999805	1	109	NA	234.748882352	0	0.4	4.97	1	234.441821926	234.446433153	"16"	687.618849766	680.645137908	1.5	0.1
0.01	1	0.0717098730000316	2	109	NA	234.748882352	0	0.4	4.97	1	234.675612247	234.74732212	"16"	687.618849766	680.645137908	1.5	0.1
0.01	1	0.00469283500001438	1	71	NA	247.966072331	0	0.42	5.39	1	236.795878951	236.800571786	"17"	687.618849766	680.645137908	1.5	0.1
0.01	1	0.00394702100004451	1	71	NA	247.966072331	0	0.42	5.39	1	237.029555366	237.033502387	"17"	687.618849766	680.645137908	1.5	0.1
0.01	1	0.00399410599999328	1	71	NA	247.966072331	0	0.42	5.39	1	237.263295643	237.267289749	"17"	687.618849766	680.645137908	1.5	0.1
0.01	1	0.00340014099998598	1	71	NA	247.966072331	0	0.42	5.39	1	237.496971396	237.500371537	"17"	687.618849766	680.645137908	1.5	0.1
0.01	1	0.00396724199998744	1	71	NA	247.966072331	0	0.42	5.39	1	237.730721811	237.734689053	"17"	687.618849766	680.645137908	1.5	0.1
0.01	1	0.00456898699997055	1	71	NA	247.966072331	0	0.42	5.39	1	237.964410371	237.968979358	"17"	687.618849766	680.645137908	1.5	0.1
0.01	1	0.00381598699999586	1	71	NA	247.966072331	0	0.42	5.39	1	238.198240706	238.202056693	"17"	687.618849766	680.645137908	1.5	0.1
0.01	1	0.00448448700001336	1	71	NA	247.966072331	0	0.42	5.39	1	238.432014326	238.436498813	"17"	687.618849766	680.645137908	1.5	0.1
0.01	1	0.00457679499999131	1	71	NA	247.966072331	0	0.42	5.39	1	238.665660066	238.670236861	"17"	687.618849766	680.645137908	1.5	0.1
0.01	1	0.00418069400001286	1	71	NA	247.966072331	0	0.42	5.39	1	238.899339073	238.903519767	"17"	687.618849766	680.645137908	1.5	0.1
0.01	1	0.00431897700002537	1	71	NA	247.966072331	0	0.42	5.39	1	239.133099811	239.137418788	"17"	687.618849766	680.645137908	1.5	0.1
0.01	1	0.00387666000000308	1	71	NA	247.966072331	0	0.42	5.39	1	239.366849793	239.370726453	"17"	687.618849766	680.645137908	1.5	0.1
0.01	1	0.00330457199999046	1	71	NA	247.966072331	0	0.42	5.39	1	239.600571363	239.603875935	"17"	687.618849766	680.645137908	1.5	0.1
0.01	1	0.00459225700001298	1	71	NA	247.966072331	0	0.42	5.39	1	239.834237341	239.838829598	"17"	687.618849766	680.645137908	1.5	0.1
0.01	1	0.00424312799998461	1	71	NA	247.966072331	0	0.42	5.39	1	240.068015071	240.072258199	"17"	687.618849766	680.645137908	1.5	0.1
0.01	1	0.00385486200002561	1	71	NA	247.966072331	0	0.42	5.39	1	240.301729811	240.305584673	"17"	687.618849766	680.645137908	1.5	0.1
0.01	1	0.00328584599998294	1	71	NA	247.966072331	0	0.42	5.39	1	240.535540971	240.538826817	"17"	687.618849766	680.645137908	1.5	0.1
0.01	1	0.00330352800000355	1	71	NA	247.966072331	0	0.42	5.39	1	240.769232713	240.772536241	"17"	687.618849766	680.645137908	1.5	0.1
0.01	1	0.00376468700000032	1	71	NA	247.966072331	0	0.42	5.39	1	241.002941778	241.006706465	"17"	687.618849766	680.645137908	1.5	0.1
0.01	1	0.00392829200001188	1	71	NA	247.966072331	0	0.42	5.39	1	241.236599693	241.240527985	"17"	687.618849766	680.645137908	1.5	0.1
0.01	1	0.00389277500005392	1	71	NA	247.966072331	0	0.42	5.39	1	241.470388168	241.474280943	"17"	687.618849766	680.645137908	1.5	0.1
0.01	1	0.0185491309999861	1	71	NA	247.966072331	0	0.42	5.39	1	241.704058226	241.722607357	"17"	687.618849766	680.645137908	1.5	0.1
0.01	1	0.0812315059999946	1	71	NA	247.966072331	0	0.42	5.39	1	241.954482571	242.035714077	"17"	687.618849766	680.645137908	1.5	0.1
0.01	1	0.06840644600004	1	71	NA	247.966072331	0	0.42	5.39	1	242.271725241	242.340131687	"17"	687.618849766	680.645137908	1.5	0.1
0.01	1	0.0036486840000407	1	71	NA	247.966072331	0	0.42	5.39	1	242.572281851	242.575930535	"17"	687.618849766	680.645137908	1.5	0.1
0.01	1	0.00706978300001992	1	71	NA	247.966072331	0	0.42	5.39	1	242.805908986	242.812978769	"17"	687.618849766	680.645137908	1.5	0.1
0.01	1	0.00487552999999252	1	71	NA	247.966072331	0	0.42	5.39	1	243.039703851	243.044579381	"17"	687.618849766	680.645137908	1.5	0.1
0.01	1	0.0265641140000525	1	71	NA	247.966072331	0	0.42	5.39	1	243.273350026	243.29991414	"17"	687.618849766	680.645137908	1.5	0.1
0.01	1	0.0039609429999814	1	71	NA	247.966072331	0	0.42	5.39	1	243.540490956	243.544451899	"17"	687.618849766	680.645137908	1.5	0.1
0.01	1	0.0136236469999744	1	71	NA	247.966072331	0	0.42	5.39	1	243.774230236	243.787853883	"17"	687.618849766	680.645137908	1.5	0.1
0.01	1	0.0748783609999464	1	71	NA	247.966072331	0	0.42	5.39	1	244.024724166	244.099602527	"17"	687.618849766	680.645137908	1.5	0.1
0.01	1	0.0867780140000036	1	71	NA	247.966072331	0	0.42	5.39	1	244.325087071	244.411865085	"17"	687.618849766	680.645137908	1.5	0.1
0.01	1	0.00458061200004067	1	71	NA	247.966072331	0	0.42	5.39	1	244.642458841	244.647039453	"17"	687.618849766	680.645137908	1.5	0.1
0.01	1	0.0391384740000262	1	71	NA	247.966072331	0	0.42	5.39	1	244.876020997	244.915159471	"17"	687.618849766	680.645137908	1.5	0.1
0.01	1	0.00461429699998916	1	71	NA	247.966072331	0	0.42	5.39	1	245.143140956	245.147755253	"17"	687.618849766	680.645137908	1.5	0.1
0.01	1	0.0823320689999605	1	71	NA	247.966072331	0	0.42	5.39	1	245.376987816	245.459319885	"17"	687.618849766	680.645137908	1.5	0.1
0.01	1	0.00385824500000354	1	71	NA	247.966072331	0	0.42	5.39	1	245.694095876	245.697954121	"17"	687.618849766	680.645137908	1.5	0.1
0.01	1	0.0595504699999765	1	71	NA	247.966072331	0	0.42	5.39	1	245.927842463	245.987392933	"17"	687.618849766	680.645137908	1.5	0.1
0.01	1	0.00201338399995166	1	71	NA	247.966072331	0	0.42	5.39	1	246.211658968	246.213672352	"17"	687.618849766	680.645137908	1.5	0.1
0.01	1	0.309418359000006	1	71	NA	247.966072331	0	0.42	5.39	1	246.445307623	246.754725982	"17"	687.618849766	680.645137908	1.5	0.1
0.01	1	0.0038862369999606	1	71	NA	247.966072331	0	0.42	5.39	1	246.979654058	246.983540295	"17"	687.618849766	680.645137908	1.5	0.1
0.01	1	0.119329251000011	1	71	NA	247.966072331	0	0.42	5.39	1	247.213330581	247.332659832	"17"	687.618849766	680.645137908	1.5	0.1
0.01	1	0.400500202999979	2	71	NA	247.966072331	0	0.42	5.39	1	247.563953683	247.964453886	"17"	687.618849766	680.645137908	1.5	0.1
0.01	1	0.0037850180000305	1	96	NA	272.805007883	0	0.820000000000001	6.21	1	250.018015681	250.021800699	"18"	687.618849766	680.645137908	1.5	0.1
0.01	1	0.00393380600002047	1	96	NA	272.805007883	0	0.820000000000001	6.21	1	250.251823121	250.255756927	"18"	687.618849766	680.645137908	1.5	0.1
0.01	1	0.00386897800001407	1	96	NA	272.805007883	0	0.820000000000001	6.21	1	250.485592041	250.489461019	"18"	687.618849766	680.645137908	1.5	0.1
0.01	1	0.00326174599996421	1	96	NA	272.805007883	0	0.820000000000001	6.21	1	250.719263297	250.722525043	"18"	687.618849766	680.645137908	1.5	0.1
0.01	1	0.00386441500000956	1	96	NA	272.805007883	0	0.820000000000001	6.21	1	250.952967396	250.956831811	"18"	687.618849766	680.645137908	1.5	0.1
0.01	1	0.003756328999998	1	96	NA	272.805007883	0	0.820000000000001	6.21	1	251.186631558	251.190387887	"18"	687.618849766	680.645137908	1.5	0.1
0.01	1	0.00382275099997287	1	96	NA	272.805007883	0	0.820000000000001	6.21	1	251.420422478	251.424245229	"18"	687.618849766	680.645137908	1.5	0.1
0.01	1	0.00456113699999605	1	96	NA	272.805007883	0	0.820000000000001	6.21	1	251.654278181	251.658839318	"18"	687.618849766	680.645137908	1.5	0.1
0.01	1	0.0037068230000159	1	96	NA	272.805007883	0	0.820000000000001	6.21	1	251.887837998	251.891544821	"18"	687.618849766	680.645137908	1.5	0.1
0.01	1	0.00462035700002161	1	96	NA	272.805007883	0	0.820000000000001	6.21	1	252.121596896	252.126217253	"18"	687.618849766	680.645137908	1.5	0.1
0.01	1	0.00464000499999884	1	96	NA	272.805007883	0	0.820000000000001	6.21	1	252.355421586	252.360061591	"18"	687.618849766	680.645137908	1.5	0.1
0.01	1	0.00341784099998677	1	96	NA	272.805007883	0	0.820000000000001	6.21	1	252.589034708	252.592452549	"18"	687.618849766	680.645137908	1.5	0.1
0.01	1	0.00336030300002221	1	96	NA	272.805007883	0	0.820000000000001	6.21	1	252.822785898	252.826146201	"18"	687.618849766	680.645137908	1.5	0.1
0.01	1	0.00406220700000404	1	96	NA	272.805007883	0	0.820000000000001	6.21	1	253.056763406	253.060825613	"18"	687.618849766	680.645137908	1.5	0.1
0.01	1	0.00465118500000017	1	96	NA	272.805007883	0	0.820000000000001	6.21	1	253.290226371	253.294877556	"18"	687.618849766	680.645137908	1.5	0.1
0.01	1	0.0032237760000271	1	96	NA	272.805007883	0	0.820000000000001	6.21	1	253.523986189	253.527209965	"18"	687.618849766	680.645137908	1.5	0.1
0.01	1	0.00205102500001431	1	96	NA	272.805007883	0	0.820000000000001	6.21	1	253.75766838	253.759719405	"18"	687.618849766	680.645137908	1.5	0.1
0.01	1	0.0020764860000213	1	96	NA	272.805007883	0	0.820000000000001	6.21	1	253.991434291	253.993510777	"18"	687.618849766	680.645137908	1.5	0.1
0.01	1	0.00293035000004238	1	96	NA	272.805007883	0	0.820000000000001	6.21	1	254.225122365	254.228052715	"18"	687.618849766	680.645137908	1.5	0.1
0.01	1	0.0963746290000245	1	96	NA	272.805007883	0	0.820000000000001	6.21	1	254.458905281	254.55527991	"18"	687.618849766	680.645137908	1.5	0.1
0.01	1	0.098958132000007	1	96	NA	272.805007883	0	0.820000000000001	6.21	1	254.792823588	254.89178172	"18"	687.618849766	680.645137908	1.5	0.1
0.01	1	0.101437686999986	1	96	NA	272.805007883	0	0.820000000000001	6.21	1	255.126735474	255.228173161	"18"	687.618849766	680.645137908	1.5	0.1
0.01	1	0.00464391500003103	1	96	NA	272.805007883	0	0.820000000000001	6.21	1	255.460601681	255.465245596	"18"	687.618849766	680.645137908	1.5	0.1
0.01	1	0.052848608999966	1	96	NA	272.805007883	0	0.820000000000001	6.21	1	255.694349216	255.747197825	"18"	687.618849766	680.645137908	1.5	0.1
0.01	1	0.00447836099999677	1	96	NA	272.805007883	0	0.820000000000001	6.21	1	255.978119357	255.982597718	"18"	687.618849766	680.645137908	1.5	0.1
0.01	1	0.0640339900000413	1	96	NA	272.805007883	0	0.820000000000001	6.21	1	256.211799401	256.275833391	"18"	687.618849766	680.645137908	1.5	0.1
0.01	1	0.0432799590000172	1	96	NA	272.805007883	0	0.820000000000001	6.21	1	256.512323501	256.55560346	"18"	687.618849766	680.645137908	1.5	0.1
0.01	1	0.00398754799999779	1	96	NA	272.805007883	0	0.820000000000001	6.21	1	256.779414891	256.783402439	"18"	687.618849766	680.645137908	1.5	0.1
0.01	1	0.0788567470000316	1	96	NA	272.805007883	0	0.820000000000001	6.21	1	257.013110116	257.091966863	"18"	687.618849766	680.645137908	1.5	0.1
0.01	1	0.0497023960000433	1	96	NA	272.805007883	0	0.820000000000001	6.21	1	257.330346023	257.380048419	"18"	687.618849766	680.645137908	1.5	0.1
0.01	1	0.00460047999996505	1	96	NA	272.805007883	0	0.820000000000001	6.21	1	257.614238926	257.618839406	"18"	687.618849766	680.645137908	1.5	0.1
0.01	1	0.0356309979999878	1	96	NA	272.805007883	0	0.820000000000001	6.21	1	257.847788001	257.883418999	"18"	687.618849766	680.645137908	1.5	0.1
0.01	1	0.10461742800004	1	96	NA	272.805007883	0	0.820000000000001	6.21	1	258.114968718	258.219586146	"18"	687.618849766	680.645137908	1.5	0.1
0.01	1	0.123495940999987	1	96	NA	272.805007883	0	0.820000000000001	6.21	1	258.448830276	258.572326217	"18"	687.618849766	680.645137908	1.5	0.1
0.01	1	0.0764267600000039	1	96	NA	272.805007883	0	0.820000000000001	6.21	1	258.799537306	258.875964066	"18"	687.618849766	680.645137908	1.5	0.1
0.01	1	0.00205959499999153	1	96	NA	272.805007883	0	0.820000000000001	6.21	1	259.099945016	259.102004611	"18"	687.618849766	680.645137908	1.5	0.1
0.01	1	0.0930905740000298	1	96	NA	272.805007883	0	0.820000000000001	6.21	1	259.333813726	259.4269043	"18"	687.618849766	680.645137908	1.5	0.1
0.01	1	0.00221553099999028	1	96	NA	272.805007883	0	0.820000000000001	6.21	1	259.651007936	259.653223467	"18"	687.618849766	680.645137908	1.5	0.1
0.01	1	0.0873525470000232	1	96	NA	272.805007883	0	0.820000000000001	6.21	1	259.884721241	259.972073788	"18"	687.618849766	680.645137908	1.5	0.1
0.01	1	0.00376843899999812	1	96	NA	272.805007883	0	0.820000000000001	6.21	1	260.201893498	260.205661937	"18"	687.618849766	680.645137908	1.5	0.1
0.01	1	0.0394329989999846	1	96	NA	272.805007883	0	0.820000000000001	6.21	1	260.435593066	260.475026065	"18"	687.618849766	680.645137908	1.5	0.1
0.01	1	0.00464092499998969	1	96	NA	272.805007883	0	0.820000000000001	6.21	1	260.702710901	260.707351826	"18"	687.618849766	680.645137908	1.5	0.1
0.01	1	0.0669849479999698	1	96	NA	272.805007883	0	0.820000000000001	6.21	1	260.936496251	261.003481199	"18"	687.618849766	680.645137908	1.5	0.1
0.01	1	0.00388913699998739	1	96	NA	272.805007883	0	0.820000000000001	6.21	1	261.236892266	261.240781403	"18"	687.618849766	680.645137908	1.5	0.1
0.01	1	0.0603569410000091	1	96	NA	272.805007883	0	0.820000000000001	6.21	1	261.470683121	261.531040062	"18"	687.618849766	680.645137908	1.5	0.1
0.01	1	0.00464831200002891	1	96	NA	272.805007883	0	0.820000000000001	6.21	1	261.771164176	261.775812488	"18"	687.618849766	680.645137908	1.5	0.1
0.01	1	0.0939695700000129	1	96	NA	272.805007883	0	0.820000000000001	6.21	1	262.004936781	262.098906351	"18"	687.618849766	680.645137908	1.5	0.1
0.01	1	0.017518583000026	1	96	NA	272.805007883	0	0.820000000000001	6.21	1	262.322088353	262.339606936	"18"	687.618849766	680.645137908	1.5	0.1
0.01	1	0.00206976099997291	1	96	NA	272.805007883	0	0.820000000000001	6.21	1	262.5724863	262.574556061	"18"	687.618849766	680.645137908	1.5	0.1
0.01	1	0.00709489899998061	1	96	NA	272.805007883	0	0.820000000000001	6.21	1	262.806288968	262.813383867	"18"	687.618849766	680.645137908	1.5	0.1
0.01	1	0.0431950899999833	1	96	NA	272.805007883	0	0.820000000000001	6.21	1	263.039960181	263.083155271	"18"	687.618849766	680.645137908	1.5	0.1
0.01	1	0.056411039000011	1	96	NA	272.805007883	0	0.820000000000001	6.21	1	263.307128811	263.36353985	"18"	687.618849766	680.645137908	1.5	0.1
0.01	1	0.100280749999968	1	96	NA	272.805007883	0	0.820000000000001	6.21	1	263.590799438	263.691080188	"18"	687.618849766	680.645137908	1.5	0.1
0.01	1	0.0380568639999979	1	96	NA	272.805007883	0	0.820000000000001	6.21	1	263.924797841	263.962854705	"18"	687.618849766	680.645137908	1.5	0.1
