"payoff.level"	"balloon"	"rt"	"resp"	"explode.trial"	"explode.time"	"finish.time"	"exploded"	"trial.total"	"cumulative.total"	"finished"	"trial.start"	"trial.end"	"trial.num"	"secs"	"start.time"	"iti"	"isi"
0.01	1	0.86926734699955	1	64	NA	42.3285325300003	0	0.5	0.5	1	0.00876278000032471	0.878030126999874	"1"	13903.070549141	13901.01658537	1.5	0.1
0.01	1	0.44882064200101	1	64	NA	42.3285325300003	0	0.5	0.5	1	1.24409839399959	1.6929190360006	"1"	13903.070549141	13901.01658537	1.5	0.1
0.01	1	0.389100267000686	1	64	NA	42.3285325300003	0	0.5	0.5	1	1.92865380699914	2.31775407399982	"1"	13903.070549141	13901.01658537	1.5	0.1
0.01	1	0.419053036999685	1	64	NA	42.3285325300003	0	0.5	0.5	1	2.54628064999997	2.96533368699966	"1"	13903.070549141	13901.01658537	1.5	0.1
0.01	1	0.401132136001252	1	64	NA	42.3285325300003	0	0.5	0.5	1	3.19742167199911	3.59855380800036	"1"	13903.070549141	13901.01658537	1.5	0.1
0.01	1	0.333604621000632	1	64	NA	42.3285325300003	0	0.5	0.5	1	3.83171274499909	4.16531736599973	"1"	13903.070549141	13901.01658537	1.5	0.1
0.01	1	0.277912726000068	1	64	NA	42.3285325300003	0	0.5	0.5	1	4.39937552499941	4.67728825099948	"1"	13903.070549141	13901.01658537	1.5	0.1
0.01	1	0.265839227999095	1	64	NA	42.3285325300003	0	0.5	0.5	1	4.90018677700027	5.16602600499937	"1"	13903.070549141	13901.01658537	1.5	0.1
0.01	1	0.228605240999968	1	64	NA	42.3285325300003	0	0.5	0.5	1	5.40096049199929	5.62956573299925	"1"	13903.070549141	13901.01658537	1.5	0.1
0.01	1	0.273175819000244	1	64	NA	42.3285325300003	0	0.5	0.5	1	5.8517955949992	6.12497141399945	"1"	13903.070549141	13901.01658537	1.5	0.1
0.01	1	0.948484579999786	1	64	NA	42.3285325300003	0	0.5	0.5	1	6.35262922000038	7.30111380000017	"1"	13903.070549141	13901.01658537	1.5	0.1
0.01	1	0.260620373001075	1	64	NA	42.3285325300003	0	0.5	0.5	1	7.53799806499956	7.79861843800063	"1"	13903.070549141	13901.01658537	1.5	0.1
0.01	1	0.263675497999429	1	64	NA	42.3285325300003	0	0.5	0.5	1	8.02218513499975	8.28586063299917	"1"	13903.070549141	13901.01658537	1.5	0.1
0.01	1	0.274820137999995	1	64	NA	42.3285325300003	0	0.5	0.5	1	8.52291482299916	8.79773496099915	"1"	13903.070549141	13901.01658537	1.5	0.1
0.01	1	0.405763364999075	1	64	NA	42.3285325300003	0	0.5	0.5	1	9.02379322500019	9.42955658999927	"1"	13903.070549141	13901.01658537	1.5	0.1
0.01	1	0.492684764998558	1	64	NA	42.3285325300003	0	0.5	0.5	1	9.65821845100072	10.1509032159993	"1"	13903.070549141	13901.01658537	1.5	0.1
0.01	1	0.630625685000268	1	64	NA	42.3285325300003	0	0.5	0.5	1	10.3761719949998	11.0067976800001	"1"	13903.070549141	13901.01658537	1.5	0.1
0.01	1	0.520753364999109	1	64	NA	42.3285325300003	0	0.5	0.5	1	11.244116242	11.7648696069991	"1"	13903.070549141	13901.01658537	1.5	0.1
0.01	1	0.410946123000031	1	64	NA	42.3285325300003	0	0.5	0.5	1	11.9955034020004	12.4064495250004	"1"	13903.070549141	13901.01658537	1.5	0.1
0.01	1	0.495780534000005	1	64	NA	42.3285325300003	0	0.5	0.5	1	12.6298592200001	13.1256397540001	"1"	13903.070549141	13901.01658537	1.5	0.1
0.01	1	0.498510280000119	1	64	NA	42.3285325300003	0	0.5	0.5	1	13.3477121969991	13.8462224769992	"1"	13903.070549141	13901.01658537	1.5	0.1
0.01	1	0.610731331998977	1	64	NA	42.3285325300003	0	0.5	0.5	1	14.0823521420007	14.6930834739996	"1"	13903.070549141	13901.01658537	1.5	0.1
0.01	1	0.688032472999112	1	64	NA	42.3285325300003	0	0.5	0.5	1	14.91720412	15.6052365929991	"1"	13903.070549141	13901.01658537	1.5	0.1
0.01	1	0.762387059001412	1	64	NA	42.3285325300003	0	0.5	0.5	1	15.8352738649992	16.5976609240006	"1"	13903.070549141	13901.01658537	1.5	0.1
0.01	1	0.011792790999607	1	64	NA	42.3285325300003	0	0.5	0.5	1	16.8202183400008	16.8320111310004	"1"	13903.070549141	13901.01658537	1.5	0.1
0.01	1	1.69423973500125	1	64	NA	42.3285325300003	0	0.5	0.5	1	17.0707067349995	18.7649464700007	"1"	13903.070549141	13901.01658537	1.5	0.1
0.01	1	0.519947930000853	1	64	NA	42.3285325300003	0	0.5	0.5	1	18.9905430719991	19.510491002	"1"	13903.070549141	13901.01658537	1.5	0.1
0.01	1	0.496567737000078	1	64	NA	42.3285325300003	0	0.5	0.5	1	19.741946827	20.2385145640001	"1"	13903.070549141	13901.01658537	1.5	0.1
0.01	1	0.401515269999436	1	64	NA	42.3285325300003	0	0.5	0.5	1	20.4764800619996	20.877995331999	"1"	13903.070549141	13901.01658537	1.5	0.1
0.01	1	0.821960463001233	1	64	NA	42.3285325300003	0	0.5	0.5	1	21.110930159999	21.9328906230003	"1"	13903.070549141	13901.01658537	1.5	0.1
0.01	1	1.09192826599974	1	64	NA	42.3285325300003	0	0.5	0.5	1	22.1626157850005	23.2545440510003	"1"	13903.070549141	13901.01658537	1.5	0.1
0.01	1	0.373628100998758	1	64	NA	42.3285325300003	0	0.5	0.5	1	23.4813770420005	23.8550051429993	"1"	13903.070549141	13901.01658537	1.5	0.1
0.01	1	0.386544105998837	1	64	NA	42.3285325300003	0	0.5	0.5	1	24.0824599850002	24.4690040909991	"1"	13903.070549141	13901.01658537	1.5	0.1
0.01	1	2.77045903500039	1	64	NA	42.3285325300003	0	0.5	0.5	1	24.7001969550001	27.4706559900005	"1"	13903.070549141	13901.01658537	1.5	0.1
0.01	1	0.875878148000993	1	64	NA	42.3285325300003	0	0.5	0.5	1	27.7052436449994	28.5811217930004	"1"	13903.070549141	13901.01658537	1.5	0.1
0.01	1	0.623820406000959	1	64	NA	42.3285325300003	0	0.5	0.5	1	28.8070331799991	29.430853586	"1"	13903.070549141	13901.01658537	1.5	0.1
0.01	1	0.419927478000318	1	64	NA	42.3285325300003	0	0.5	0.5	1	29.6585499499997	30.078477428	"1"	13903.070549141	13901.01658537	1.5	0.1
0.01	1	0.399819527998261	1	64	NA	42.3285325300003	0	0.5	0.5	1	30.3096111520008	30.7094306799991	"1"	13903.070549141	13901.01658537	1.5	0.1
0.01	1	0.541313185000035	1	64	NA	42.3285325300003	0	0.5	0.5	1	30.9441136499991	31.4854268349991	"1"	13903.070549141	13901.01658537	1.5	0.1
0.01	1	0.508901768000214	1	64	NA	42.3285325300003	0	0.5	0.5	1	31.7120287849993	32.2209305529996	"1"	13903.070549141	13901.01658537	1.5	0.1
0.01	1	0.983895842000493	1	64	NA	42.3285325300003	0	0.5	0.5	1	32.4466123919992	33.4305082339997	"1"	13903.070549141	13901.01658537	1.5	0.1
0.01	1	0.483806479000123	1	64	NA	42.3285325300003	0	0.5	0.5	1	33.6653360210003	34.1491425000004	"1"	13903.070549141	13901.01658537	1.5	0.1
0.01	1	0.630202383999858	1	64	NA	42.3285325300003	0	0.5	0.5	1	34.3831416119992	35.0133439959991	"1"	13903.070549141	13901.01658537	1.5	0.1
0.01	1	0.642632668999795	1	64	NA	42.3285325300003	0	0.5	0.5	1	35.2512796179999	35.8939122869997	"1"	13903.070549141	13901.01658537	1.5	0.1
0.01	1	0.56597666900052	1	64	NA	42.3285325300003	0	0.5	0.5	1	36.1193432119999	36.6853198810004	"1"	13903.070549141	13901.01658537	1.5	0.1
0.01	1	0.492577207000068	1	64	NA	42.3285325300003	0	0.5	0.5	1	36.9207482300008	37.4133254370008	"1"	13903.070549141	13901.01658537	1.5	0.1
0.01	1	0.503038761999051	1	64	NA	42.3285325300003	0	0.5	0.5	1	37.638668435	38.1417071969991	"1"	13903.070549141	13901.01658537	1.5	0.1
0.01	1	0.561152530000982	1	64	NA	42.3285325300003	0	0.5	0.5	1	38.3732341319992	38.9343866620002	"1"	13903.070549141	13901.01658537	1.5	0.1
0.01	1	0.471276150999984	1	64	NA	42.3285325300003	0	0.5	0.5	1	39.1578032990001	39.6290794500001	"1"	13903.070549141	13901.01658537	1.5	0.1
0.01	1	0.770096412999919	1	64	NA	42.3285325300003	0	0.5	0.5	1	39.8591120950005	40.6292085080004	"1"	13903.070549141	13901.01658537	1.5	0.1
0.01	1	1.46609210699899	2	64	NA	42.3285325300003	0	0.5	0.5	1	40.8607656250006	42.3268577319996	"1"	13903.070549141	13901.01658537	1.5	0.1
0.01	1	1.02215318899835	1	102	NA	78.51109034	0	0.75	1.25	1	44.3832284220007	45.405381610999	"2"	13903.070549141	13901.01658537	1.5	0.1
0.01	1	0.00409280499843589	1	102	NA	78.51109034	0	0.75	1.25	1	45.6353338900008	45.6394266949992	"2"	13903.070549141	13901.01658537	1.5	0.1
0.01	1	0.0570910520000325	1	102	NA	78.51109034	0	0.75	1.25	1	45.86914703	45.9262380820001	"2"	13903.070549141	13901.01658537	1.5	0.1
0.01	1	0.00409076899995853	1	102	NA	78.51109034	0	0.75	1.25	1	46.1529559819992	46.1570467509991	"2"	13903.070549141	13901.01658537	1.5	0.1
0.01	1	0.14798521100056	1	102	NA	78.51109034	0	0.75	1.25	1	46.3867168199995	46.5347020310001	"2"	13903.070549141	13901.01658537	1.5	0.1
0.01	1	0.0127428699997836	1	102	NA	78.51109034	0	0.75	1.25	1	46.7706718770005	46.7834147470003	"2"	13903.070549141	13901.01658537	1.5	0.1
0.01	1	0.0243753579998156	1	102	NA	78.51109034	0	0.75	1.25	1	47.0210591949999	47.0454345529997	"2"	13903.070549141	13901.01658537	1.5	0.1
0.01	1	0.00752961800026242	1	102	NA	78.51109034	0	0.75	1.25	1	47.2714508249992	47.2789804429995	"2"	13903.070549141	13901.01658537	1.5	0.1
0.01	1	0.0200609610001266	1	102	NA	78.51109034	0	0.75	1.25	1	47.5051720470001	47.5252330080002	"2"	13903.070549141	13901.01658537	1.5	0.1
0.01	1	0.0584988379996503	1	102	NA	78.51109034	0	0.75	1.25	1	47.7555895549995	47.8140883929991	"2"	13903.070549141	13901.01658537	1.5	0.1
0.01	1	0.062900090999392	1	102	NA	78.51109034	0	0.75	1.25	1	48.0394889449999	48.1023890359993	"2"	13903.070549141	13901.01658537	1.5	0.1
0.01	1	0.00957016599932103	1	102	NA	78.51109034	0	0.75	1.25	1	48.3399151270005	48.3494852929998	"2"	13903.070549141	13901.01658537	1.5	0.1
0.01	1	0.0353153659998497	1	102	NA	78.51109034	0	0.75	1.25	1	48.5904159149995	48.6257312809994	"2"	13903.070549141	13901.01658537	1.5	0.1
0.01	1	0.0275035180002305	1	102	NA	78.51109034	0	0.75	1.25	1	48.8575119439993	48.8850154619995	"2"	13903.070549141	13901.01658537	1.5	0.1
0.01	1	0.0749917299999652	1	102	NA	78.51109034	0	0.75	1.25	1	49.1079113199994	49.1829030499994	"2"	13903.070549141	13901.01658537	1.5	0.1
0.01	1	0.0625410810007452	1	102	NA	78.51109034	0	0.75	1.25	1	49.4084584550001	49.4709995360008	"2"	13903.070549141	13901.01658537	1.5	0.1
0.01	1	0.0978813560013805	1	102	NA	78.51109034	0	0.75	1.25	1	49.7088663569994	49.8067477130007	"2"	13903.070549141	13901.01658537	1.5	0.1
0.01	1	0.147279020000497	1	102	NA	78.51109034	0	0.75	1.25	1	50.0428625549994	50.1901415749999	"2"	13903.070549141	13901.01658537	1.5	0.1
0.01	1	0.107649513000069	1	102	NA	78.51109034	0	0.75	1.25	1	50.4268094269992	50.5344589399992	"2"	13903.070549141	13901.01658537	1.5	0.1
0.01	1	0.0935451639998064	1	102	NA	78.51109034	0	0.75	1.25	1	50.7607003499998	50.8542455139996	"2"	13903.070549141	13901.01658537	1.5	0.1
0.01	1	0.0803206500004308	1	102	NA	78.51109034	0	0.75	1.25	1	51.0779136549991	51.1582343049995	"2"	13903.070549141	13901.01658537	1.5	0.1
0.01	1	0.0666541369992046	1	102	NA	78.51109034	0	0.75	1.25	1	51.3950678300007	51.4617219669999	"2"	13903.070549141	13901.01658537	1.5	0.1
0.01	1	0.0934474380010215	1	102	NA	78.51109034	0	0.75	1.25	1	51.6956184749997	51.7890659130007	"2"	13903.070549141	13901.01658537	1.5	0.1
0.01	1	0.065439071999208	1	102	NA	78.51109034	0	0.75	1.25	1	52.01280271	52.0782417819992	"2"	13903.070549141	13901.01658537	1.5	0.1
0.01	1	0.11033304800003	1	102	NA	78.51109034	0	0.75	1.25	1	52.313218755	52.423551803	"2"	13903.070549141	13901.01658537	1.5	0.1
0.01	1	0.0385181430010562	1	102	NA	78.51109034	0	0.75	1.25	1	52.6471908719996	52.6857090150006	"2"	13903.070549141	13901.01658537	1.5	0.1
0.01	1	0.0748486719985522	1	102	NA	78.51109034	0	0.75	1.25	1	52.9143581450007	52.9892068169993	"2"	13903.070549141	13901.01658537	1.5	0.1
0.01	1	0.111202775000493	1	102	NA	78.51109034	0	0.75	1.25	1	53.2147362870001	53.3259390620005	"2"	13903.070549141	13901.01658537	1.5	0.1
0.01	1	0.312992846998895	1	102	NA	78.51109034	0	0.75	1.25	1	53.5485874900005	53.8615803369994	"2"	13903.070549141	13901.01658537	1.5	0.1
0.01	1	0.163145581000208	1	102	NA	78.51109034	0	0.75	1.25	1	54.0996330899998	54.262778671	"2"	13903.070549141	13901.01658537	1.5	0.1
0.01	1	0.145930667998982	1	102	NA	78.51109034	0	0.75	1.25	1	54.5002960170004	54.6462266849994	"2"	13903.070549141	13901.01658537	1.5	0.1
0.01	1	0.153281362998314	1	102	NA	78.51109034	0	0.75	1.25	1	54.8842853250007	55.0375666879991	"2"	13903.070549141	13901.01658537	1.5	0.1
0.01	1	0.152719538000383	1	102	NA	78.51109034	0	0.75	1.25	1	55.2681930420003	55.4209125800007	"2"	13903.070549141	13901.01658537	1.5	0.1
0.01	1	0.178696154000136	1	102	NA	78.51109034	0	0.75	1.25	1	55.6522233849992	55.8309195389993	"2"	13903.070549141	13901.01658537	1.5	0.1
0.01	1	0.144658979999804	1	102	NA	78.51109034	0	0.75	1.25	1	56.0695996220002	56.214258602	"2"	13903.070549141	13901.01658537	1.5	0.1
0.01	1	0.168624870000713	1	102	NA	78.51109034	0	0.75	1.25	1	56.4369447549998	56.6055696250005	"2"	13903.070549141	13901.01658537	1.5	0.1
0.01	1	0.136822462000055	1	102	NA	78.51109034	0	0.75	1.25	1	56.8375162020002	56.9743386640002	"2"	13903.070549141	13901.01658537	1.5	0.1
0.01	1	0.152152753000337	1	102	NA	78.51109034	0	0.75	1.25	1	57.2048983099994	57.3570510629997	"2"	13903.070549141	13901.01658537	1.5	0.1
0.01	1	0.120696407999276	1	102	NA	78.51109034	0	0.75	1.25	1	57.5888344049999	57.7095308129992	"2"	13903.070549141	13901.01658537	1.5	0.1
0.01	1	0.330345311998826	1	102	NA	78.51109034	0	0.75	1.25	1	57.9395008310003	58.2698461429991	"2"	13903.070549141	13901.01658537	1.5	0.1
0.01	1	0.274653843000124	1	102	NA	78.51109034	0	0.75	1.25	1	58.5070382920003	58.7816921350004	"2"	13903.070549141	13901.01658537	1.5	0.1
0.01	1	0.213809421999031	1	102	NA	78.51109034	0	0.75	1.25	1	59.0078587000007	59.2216681219998	"2"	13903.070549141	13901.01658537	1.5	0.1
0.01	1	0.210928205999153	1	102	NA	78.51109034	0	0.75	1.25	1	59.4586307070003	59.6695589129995	"2"	13903.070549141	13901.01658537	1.5	0.1
0.01	1	0.272372769999492	1	102	NA	78.51109034	0	0.75	1.25	1	59.8927141200002	60.1650868899997	"2"	13903.070549141	13901.01658537	1.5	0.1
0.01	1	0.308440456001335	1	102	NA	78.51109034	0	0.75	1.25	1	60.3935713249994	60.7020117810007	"2"	13903.070549141	13901.01658537	1.5	0.1
0.01	1	0.206565600999966	1	102	NA	78.51109034	0	0.75	1.25	1	60.9279042350008	61.1344698360008	"2"	13903.070549141	13901.01658537	1.5	0.1
0.01	1	0.219037913000648	1	102	NA	78.51109034	0	0.75	1.25	1	61.361822412	61.5808603250007	"2"	13903.070549141	13901.01658537	1.5	0.1
0.01	1	0.329943546999857	1	102	NA	78.51109034	0	0.75	1.25	1	61.8125998920004	62.1425434390003	"2"	13903.070549141	13901.01658537	1.5	0.1
0.01	1	1.35367285999928	1	102	NA	78.51109034	0	0.75	1.25	1	62.3802895450008	63.7339624050001	"2"	13903.070549141	13901.01658537	1.5	0.1
0.01	1	0.359033284999896	1	102	NA	78.51109034	0	0.75	1.25	1	63.9663156919996	64.3253489769995	"2"	13903.070549141	13901.01658537	1.5	0.1
0.01	1	0.343833519998952	1	102	NA	78.51109034	0	0.75	1.25	1	64.5504885600003	64.8943220799993	"2"	13903.070549141	13901.01658537	1.5	0.1
0.01	1	0.343608733999645	1	102	NA	78.51109034	0	0.75	1.25	1	65.1181517700006	65.4617605040003	"2"	13903.070549141	13901.01658537	1.5	0.1
0.01	1	0.3202956669993	1	102	NA	78.51109034	0	0.75	1.25	1	65.6858088040008	66.0061044710001	"2"	13903.070549141	13901.01658537	1.5	0.1
0.01	1	0.392230688999916	1	102	NA	78.51109034	0	0.75	1.25	1	66.2366722879997	66.6289029769996	"2"	13903.070549141	13901.01658537	1.5	0.1
0.01	1	0.00494404500022938	1	102	NA	78.51109034	0	0.75	1.25	1	66.8544631799996	66.8594072249998	"2"	13903.070549141	13901.01658537	1.5	0.1
0.01	1	0.0851097680006205	1	102	NA	78.51109034	0	0.75	1.25	1	67.0881985449996	67.1733083130002	"2"	13903.070549141	13901.01658537	1.5	0.1
0.01	1	0.585079832999327	1	102	NA	78.51109034	0	0.75	1.25	1	67.4053515600008	67.9904313930001	"2"	13903.070549141	13901.01658537	1.5	0.1
0.01	1	0.407373392999943	1	102	NA	78.51109034	0	0.75	1.25	1	68.2234261600006	68.6307995530005	"2"	13903.070549141	13901.01658537	1.5	0.1
0.01	1	0.364378280000892	1	102	NA	78.51109034	0	0.75	1.25	1	68.8577800849998	69.2221583650007	"2"	13903.070549141	13901.01658537	1.5	0.1
0.01	1	0.30654873200001	1	102	NA	78.51109034	0	0.75	1.25	1	69.4588250100005	69.7653737420005	"2"	13903.070549141	13901.01658537	1.5	0.1
0.01	1	0.316759696999725	1	102	NA	78.51109034	0	0.75	1.25	1	69.9930999120006	70.3098596090003	"2"	13903.070549141	13901.01658537	1.5	0.1
0.01	1	0.293088346999866	1	102	NA	78.51109034	0	0.75	1.25	1	70.5439442799998	70.8370326269996	"2"	13903.070549141	13901.01658537	1.5	0.1
0.01	1	0.233329732000129	1	102	NA	78.51109034	0	0.75	1.25	1	71.0614635099992	71.2947932419993	"2"	13903.070549141	13901.01658537	1.5	0.1
0.01	1	0.253341084999192	1	102	NA	78.51109034	0	0.75	1.25	1	71.528963232	71.7823043169992	"2"	13903.070549141	13901.01658537	1.5	0.1
0.01	1	0.224394616001518	1	102	NA	78.51109034	0	0.75	1.25	1	72.0130733789993	72.2374679950008	"2"	13903.070549141	13901.01658537	1.5	0.1
0.01	1	0.318550515999959	1	102	NA	78.51109034	0	0.75	1.25	1	72.4637715230001	72.7823220390001	"2"	13903.070549141	13901.01658537	1.5	0.1
0.01	1	0.3907732330008	1	102	NA	78.51109034	0	0.75	1.25	1	73.0148318049996	73.4056050380004	"2"	13903.070549141	13901.01658537	1.5	0.1
0.01	1	0.284850385998652	1	102	NA	78.51109034	0	0.75	1.25	1	73.6325030320004	73.917353417999	"2"	13903.070549141	13901.01658537	1.5	0.1
0.01	1	0.240142569000454	1	102	NA	78.51109034	0	0.75	1.25	1	74.1500876549999	74.3902302240003	"2"	13903.070549141	13901.01658537	1.5	0.1
0.01	1	0.452330887999778	1	102	NA	78.51109034	0	0.75	1.25	1	74.6176614350006	75.0699923230004	"2"	13903.070549141	13901.01658537	1.5	0.1
0.01	1	0.448448280998491	1	102	NA	78.51109034	0	0.75	1.25	1	75.3019901450007	75.7504384259992	"2"	13903.070549141	13901.01658537	1.5	0.1
0.01	1	0.348225869000089	1	102	NA	78.51109034	0	0.75	1.25	1	75.9865612449994	76.3347871139995	"2"	13903.070549141	13901.01658537	1.5	0.1
0.01	1	0.402248655000221	1	102	NA	78.51109034	0	0.75	1.25	1	76.5708598500005	76.9731085050007	"2"	13903.070549141	13901.01658537	1.5	0.1
0.01	1	0.00393372500002442	1	102	NA	78.51109034	0	0.75	1.25	1	77.205245359999	77.2091790849991	"2"	13903.070549141	13901.01658537	1.5	0.1
0.01	1	0.28807720199984	1	102	NA	78.51109034	0	0.75	1.25	1	77.4390266320006	77.7271038340004	"2"	13903.070549141	13901.01658537	1.5	0.1
0.01	1	0.553136291000556	2	102	NA	78.51109034	0	0.75	1.25	1	77.9564009320002	78.5095372230007	"2"	13903.070549141	13901.01658537	1.5	0.1
0.01	1	0.988668066000173	1	97	129.696907472	NA	1	0	1.25	1	80.5608108329998	81.549478899	"3"	13903.070549141	13901.01658537	1.5	0.1
0.01	1	0.00227915599862172	1	97	129.696907472	NA	1	0	1.25	1	81.7796084540005	81.7818876099991	"3"	13903.070549141	13901.01658537	1.5	0.1
0.01	1	0.00486223499865446	1	97	129.696907472	NA	1	0	1.25	1	82.0132935500005	82.0181557849992	"3"	13903.070549141	13901.01658537	1.5	0.1
0.01	1	0.00419939400126168	1	97	129.696907472	NA	1	0	1.25	1	82.2469930749994	82.2511924690007	"3"	13903.070549141	13901.01658537	1.5	0.1
0.01	1	0.00424002199906681	1	97	129.696907472	NA	1	0	1.25	1	82.4807793550008	82.4850193769998	"3"	13903.070549141	13901.01658537	1.5	0.1
0.01	1	0.00214566000067862	1	97	129.696907472	NA	1	0	1.25	1	82.7144699820001	82.7166156420008	"3"	13903.070549141	13901.01658537	1.5	0.1
0.01	1	0.00413480699899083	1	97	129.696907472	NA	1	0	1.25	1	82.9481943320006	82.9523291389996	"3"	13903.070549141	13901.01658537	1.5	0.1
0.01	1	0.00494541999978537	1	97	129.696907472	NA	1	0	1.25	1	83.1819363150007	83.1868817350005	"3"	13903.070549141	13901.01658537	1.5	0.1
0.01	1	0.00414670099962677	1	97	129.696907472	NA	1	0	1.25	1	83.4155746500001	83.4197213509997	"3"	13903.070549141	13901.01658537	1.5	0.1
0.01	1	0.00497917999928177	1	97	129.696907472	NA	1	0	1.25	1	83.6493551399999	83.6543343199992	"3"	13903.070549141	13901.01658537	1.5	0.1
0.01	1	0.0021533819999604	1	97	129.696907472	NA	1	0	1.25	1	83.8830905600007	83.8852439420007	"3"	13903.070549141	13901.01658537	1.5	0.1
0.01	1	0.00428589500006638	1	97	129.696907472	NA	1	0	1.25	1	84.1167916920003	84.1210775870004	"3"	13903.070549141	13901.01658537	1.5	0.1
0.01	1	0.0795510919997469	1	97	129.696907472	NA	1	0	1.25	1	84.3505024309998	84.4300535229995	"3"	13903.070549141	13901.01658537	1.5	0.1
0.01	1	0.179021445999751	1	97	129.696907472	NA	1	0	1.25	1	84.6677947900007	84.8468162360004	"3"	13903.070549141	13901.01658537	1.5	0.1
0.01	1	0.184249837000607	1	97	129.696907472	NA	1	0	1.25	1	85.0850432549996	85.2692930920002	"3"	13903.070549141	13901.01658537	1.5	0.1
0.01	1	0.136049861001084	1	97	129.696907472	NA	1	0	1.25	1	85.5025270419992	85.6385769030003	"3"	13903.070549141	13901.01658537	1.5	0.1
0.01	1	0.152663316999678	1	97	129.696907472	NA	1	0	1.25	1	85.8697522120001	86.0224155289998	"3"	13903.070549141	13901.01658537	1.5	0.1
0.01	1	0.183147255000222	1	97	129.696907472	NA	1	0	1.25	1	86.2536901900003	86.4368374450005	"3"	13903.070549141	13901.01658537	1.5	0.1
0.01	1	0.142640727999606	1	97	129.696907472	NA	1	0	1.25	1	86.6710640870006	86.8137048150002	"3"	13903.070549141	13901.01658537	1.5	0.1
0.01	1	0.135515209000005	1	97	129.696907472	NA	1	0	1.25	1	87.0383337500007	87.1738489590007	"3"	13903.070549141	13901.01658537	1.5	0.1
0.01	1	0.240312025998719	1	97	129.696907472	NA	1	0	1.25	1	87.4055921870004	87.6459042129991	"3"	13903.070549141	13901.01658537	1.5	0.1
0.01	1	0.205426569000338	1	97	129.696907472	NA	1	0	1.25	1	87.8731567649993	88.0785833339996	"3"	13903.070549141	13901.01658537	1.5	0.1
0.01	1	0.139072731999477	1	97	129.696907472	NA	1	0	1.25	1	88.3071225650001	88.4461952969996	"3"	13903.070549141	13901.01658537	1.5	0.1
0.01	1	0.0997153299995261	1	97	129.696907472	NA	1	0	1.25	1	88.6744223120004	88.7741376419999	"3"	13903.070549141	13901.01658537	1.5	0.1
0.01	1	0.117323079999551	1	97	129.696907472	NA	1	0	1.25	1	89.0082842219999	89.1256073019995	"3"	13903.070549141	13901.01658537	1.5	0.1
0.01	1	0.135004321000451	1	97	129.696907472	NA	1	0	1.25	1	89.3589667399992	89.4939710609997	"3"	13903.070549141	13901.01658537	1.5	0.1
0.01	1	0.104432316999009	1	97	129.696907472	NA	1	0	1.25	1	89.7261740850008	89.8306064019998	"3"	13903.070549141	13901.01658537	1.5	0.1
0.01	1	0.129087354000148	1	97	129.696907472	NA	1	0	1.25	1	90.0601685599995	90.1892559139997	"3"	13903.070549141	13901.01658537	1.5	0.1
0.01	1	0.0829944880006224	1	97	129.696907472	NA	1	0	1.25	1	90.4274395699995	90.5104340580001	"3"	13903.070549141	13901.01658537	1.5	0.1
0.01	1	0.0921976150002592	1	97	129.696907472	NA	1	0	1.25	1	90.7446441100001	90.8368417250003	"3"	13903.070549141	13901.01658537	1.5	0.1
0.01	1	0.151555242000541	1	97	129.696907472	NA	1	0	1.25	1	91.0618521849992	91.2134074269998	"3"	13903.070549141	13901.01658537	1.5	0.1
0.01	1	0.120242275001146	1	97	129.696907472	NA	1	0	1.25	1	91.4457728069992	91.5660150820004	"3"	13903.070549141	13901.01658537	1.5	0.1
0.01	1	0.138707758000237	1	97	129.696907472	NA	1	0	1.25	1	91.7963843929992	91.9350921509995	"3"	13903.070549141	13901.01658537	1.5	0.1
0.01	1	0.155331392999869	1	97	129.696907472	NA	1	0	1.25	1	92.1636339399993	92.3189653329991	"3"	13903.070549141	13901.01658537	1.5	0.1
0.01	1	0.122750808999626	1	97	129.696907472	NA	1	0	1.25	1	92.5474594730003	92.670210282	"3"	13903.070549141	13901.01658537	1.5	0.1
0.01	1	0.13979262400062	1	97	129.696907472	NA	1	0	1.25	1	92.8982237569999	93.0380163810005	"3"	13903.070549141	13901.01658537	1.5	0.1
0.01	1	0.148200659001304	1	97	129.696907472	NA	1	0	1.25	1	93.2654552749991	93.4136559340004	"3"	13903.070549141	13901.01658537	1.5	0.1
0.01	1	0.180765263001376	1	97	129.696907472	NA	1	0	1.25	1	93.6495006219993	93.8302658850007	"3"	13903.070549141	13901.01658537	1.5	0.1
0.01	1	0.164058057998773	1	97	129.696907472	NA	1	0	1.25	1	94.0668937150003	94.2309517729991	"3"	13903.070549141	13901.01658537	1.5	0.1
0.01	1	0.147169867999764	1	97	129.696907472	NA	1	0	1.25	1	94.4675635849999	94.6147334529996	"3"	13903.070549141	13901.01658537	1.5	0.1
0.01	1	0.171292528000777	1	97	129.696907472	NA	1	0	1.25	1	94.851505184999	95.0227977129998	"3"	13903.070549141	13901.01658537	1.5	0.1
0.01	1	0.194105237000258	1	97	129.696907472	NA	1	0	1.25	1	95.2521482449993	95.4462534819995	"3"	13903.070549141	13901.01658537	1.5	0.1
0.01	1	0.200468564999028	1	97	129.696907472	NA	1	0	1.25	1	95.6695969430002	95.8700655079992	"3"	13903.070549141	13901.01658537	1.5	0.1
0.01	1	0.223155327999848	1	97	129.696907472	NA	1	0	1.25	1	96.1036398750002	96.3267952030001	"3"	13903.070549141	13901.01658537	1.5	0.1
0.01	1	0.244565960998443	1	97	129.696907472	NA	1	0	1.25	1	96.5543573150007	96.7989232759992	"3"	13903.070549141	13901.01658537	1.5	0.1
0.01	1	0.183662154000558	1	97	129.696907472	NA	1	0	1.25	1	97.0385459099998	97.2222080640004	"3"	13903.070549141	13901.01658537	1.5	0.1
0.01	1	0.205405181999595	1	97	129.696907472	NA	1	0	1.25	1	97.4559526749999	97.6613578569995	"3"	13903.070549141	13901.01658537	1.5	0.1
0.01	1	0.20487766000042	1	97	129.696907472	NA	1	0	1.25	1	97.8899571319998	98.0948347920003	"3"	13903.070549141	13901.01658537	1.5	0.1
0.01	1	0.225890977000745	1	97	129.696907472	NA	1	0	1.25	1	98.3241673949997	98.5500583720004	"3"	13903.070549141	13901.01658537	1.5	0.1
0.01	1	0.231878566000887	1	97	129.696907472	NA	1	0	1.25	1	98.7747560299995	99.0066345960004	"3"	13903.070549141	13901.01658537	1.5	0.1
0.01	1	0.27573257199947	1	97	129.696907472	NA	1	0	1.25	1	99.2423106700007	99.5180432420002	"3"	13903.070549141	13901.01658537	1.5	0.1
0.01	1	0.287832595000509	1	97	129.696907472	NA	1	0	1.25	1	99.7430852639991	100.030917859	"3"	13903.070549141	13901.01658537	1.5	0.1
0.01	1	0.218146804998469	1	97	129.696907472	NA	1	0	1.25	1	100.260603377001	100.478750181999	"3"	13903.070549141	13901.01658537	1.5	0.1
0.01	1	0.189528730999882	1	97	129.696907472	NA	1	0	1.25	1	100.711338962001	100.900867693001	"3"	13903.070549141	13901.01658537	1.5	0.1
0.01	1	0.17273693199968	1	97	129.696907472	NA	1	0	1.25	1	101.128638287	101.301375219	"3"	13903.070549141	13901.01658537	1.5	0.1
0.01	1	0.165230226999483	1	97	129.696907472	NA	1	0	1.25	1	101.529501495001	101.694731722	"3"	13903.070549141	13901.01658537	1.5	0.1
0.01	1	0.180130930999439	1	97	129.696907472	NA	1	0	1.25	1	101.930056822001	102.110187753	"3"	13903.070549141	13901.01658537	1.5	0.1
0.01	1	0.235194801000034	1	97	129.696907472	NA	1	0	1.25	1	102.34750263	102.582697431	"3"	13903.070549141	13901.01658537	1.5	0.1
0.01	1	0.184039584999482	1	97	129.696907472	NA	1	0	1.25	1	102.81495518	102.998994764999	"3"	13903.070549141	13901.01658537	1.5	0.1
0.01	1	0.358398700998805	1	97	129.696907472	NA	1	0	1.25	1	103.232339710001	103.590738411	"3"	13903.070549141	13901.01658537	1.5	0.1
0.01	1	0.196596559999307	1	97	129.696907472	NA	1	0	1.25	1	103.81660143	104.01319799	"3"	13903.070549141	13901.01658537	1.5	0.1
0.01	1	0.211757787999886	1	97	129.696907472	NA	1	0	1.25	1	104.250632395	104.462390183	"3"	13903.070549141	13901.01658537	1.5	0.1
0.01	1	0.161803001999942	1	97	129.696907472	NA	1	0	1.25	1	104.68485938	104.846662382	"3"	13903.070549141	13901.01658537	1.5	0.1
0.01	1	0.17007660300078	1	97	129.696907472	NA	1	0	1.25	1	105.068649682	105.238726285001	"3"	13903.070549141	13901.01658537	1.5	0.1
0.01	1	0.313327027999549	1	97	129.696907472	NA	1	0	1.25	1	105.469397575	105.782724602999	"3"	13903.070549141	13901.01658537	1.5	0.1
0.01	1	0.402297160000671	1	97	129.696907472	NA	1	0	1.25	1	106.020336371999	106.422633532	"3"	13903.070549141	13901.01658537	1.5	0.1
0.01	1	0.270934615999067	1	97	129.696907472	NA	1	0	1.25	1	106.654640545001	106.925575161	"3"	13903.070549141	13901.01658537	1.5	0.1
0.01	1	0.259331960998679	1	97	129.696907472	NA	1	0	1.25	1	107.15560383	107.414935790999	"3"	13903.070549141	13901.01658537	1.5	0.1
0.01	1	0.269645062999189	1	97	129.696907472	NA	1	0	1.25	1	107.639787307	107.909432369999	"3"	13903.070549141	13901.01658537	1.5	0.1
0.01	1	0.3301570980002	1	97	129.696907472	NA	1	0	1.25	1	108.140653781	108.470810879	"3"	13903.070549141	13901.01658537	1.5	0.1
0.01	1	0.322283872001208	1	97	129.696907472	NA	1	0	1.25	1	108.70815868	109.030442552001	"3"	13903.070549141	13901.01658537	1.5	0.1
0.01	1	0.30730479399972	1	97	129.696907472	NA	1	0	1.25	1	109.25911755	109.566422344	"3"	13903.070549141	13901.01658537	1.5	0.1
0.01	1	0.333415506000165	1	97	129.696907472	NA	1	0	1.25	1	109.793375785001	110.126791291001	"3"	13903.070549141	13901.01658537	1.5	0.1
0.01	1	0.316846751000412	1	97	129.696907472	NA	1	0	1.25	1	110.36094905	110.677795801001	"3"	13903.070549141	13901.01658537	1.5	0.1
0.01	1	0.310045542999433	1	97	129.696907472	NA	1	0	1.25	1	110.911931905001	111.221977448	"3"	13903.070549141	13901.01658537	1.5	0.1
0.01	1	2.5110645470013	1	97	129.696907472	NA	1	0	1.25	1	111.446008049999	113.957072597001	"3"	13903.070549141	13901.01658537	1.5	0.1
0.01	1	0.294949106000786	1	97	129.696907472	NA	1	0	1.25	1	114.184018034999	114.478967141	"3"	13903.070549141	13901.01658537	1.5	0.1
0.01	1	0.272335382000165	1	97	129.696907472	NA	1	0	1.25	1	114.718311281	114.990646663	"3"	13903.070549141	13901.01658537	1.5	0.1
0.01	1	0.258673293999891	1	97	129.696907472	NA	1	0	1.25	1	115.2191052	115.477778494	"3"	13903.070549141	13901.01658537	1.5	0.1
0.01	1	0.334197833999497	1	97	129.696907472	NA	1	0	1.25	1	115.703283675	116.037481509	"3"	13903.070549141	13901.01658537	1.5	0.1
0.01	1	1.24759192300007	1	97	129.696907472	NA	1	0	1.25	1	116.270850618001	117.518442541001	"3"	13903.070549141	13901.01658537	1.5	0.1
0.01	1	0.00215354600004503	1	97	129.696907472	NA	1	0	1.25	1	117.756806005	117.758959551	"3"	13903.070549141	13901.01658537	1.5	0.1
0.01	1	0.00406844499957515	1	97	129.696907472	NA	1	0	1.25	1	117.99050575	117.994574195	"3"	13903.070549141	13901.01658537	1.5	0.1
0.01	1	0.00413035199926526	1	97	129.696907472	NA	1	0	1.25	1	118.224173675	118.228304026999	"3"	13903.070549141	13901.01658537	1.5	0.1
0.01	1	0.00486301599994476	1	97	129.696907472	NA	1	0	1.25	1	118.457947474	118.46281049	"3"	13903.070549141	13901.01658537	1.5	0.1
0.01	1	1.67525265299992	1	97	129.696907472	NA	1	0	1.25	1	118.691827015	120.367079668	"3"	13903.070549141	13901.01658537	1.5	0.1
0.01	1	0.00323071399907349	1	97	129.696907472	NA	1	0	1.25	1	120.594867439	120.598098152999	"3"	13903.070549141	13901.01658537	1.5	0.1
0.01	1	0.00281143099891779	1	97	129.696907472	NA	1	0	1.25	1	120.828559293001	120.831370723999	"3"	13903.070549141	13901.01658537	1.5	0.1
0.01	1	0.00214750100167294	1	97	129.696907472	NA	1	0	1.25	1	121.062350828999	121.064498330001	"3"	13903.070549141	13901.01658537	1.5	0.1
0.01	1	0.00368374199933896	1	97	129.696907472	NA	1	0	1.25	1	121.296017637	121.299701378999	"3"	13903.070549141	13901.01658537	1.5	0.1
0.01	1	4.73993016799977	1	97	129.696907472	NA	1	0	1.25	1	121.529772955	126.269703123	"3"	13903.070549141	13901.01658537	1.5	0.1
0.01	1	0.00217072399937024	1	97	129.696907472	NA	1	0	1.25	1	126.50477455	126.506945273999	"3"	13903.070549141	13901.01658537	1.5	0.1
0.01	1	0.00220207200072764	1	97	129.696907472	NA	1	0	1.25	1	126.738451959	126.740654031	"3"	13903.070549141	13901.01658537	1.5	0.1
0.01	1	0.00232177399993816	1	97	129.696907472	NA	1	0	1.25	1	126.972240360999	126.974562134999	"3"	13903.070549141	13901.01658537	1.5	0.1
0.01	1	0.0022460879990831	1	97	129.696907472	NA	1	0	1.25	1	127.205921105	127.208167192999	"3"	13903.070549141	13901.01658537	1.5	0.1
0.01	1	1.63803502300107	1	97	129.696907472	NA	1	0	1.25	1	127.439700505	129.077735528001	"3"	13903.070549141	13901.01658537	1.5	0.1
0.01	1	0.27875930799928	1	97	129.696907472	NA	1	0	1.25	1	129.309425697	129.588185004999	"3"	13903.070549141	13901.01658537	1.5	0.1
0.01	1	1.19439941500059	1	51	NA	149.623189432999	0	0.49	1.74	1	131.746965996999	132.941365412	"4"	13903.070549141	13901.01658537	1.5	0.1
0.01	1	0.00225084299927403	1	51	NA	149.623189432999	0	0.49	1.74	1	133.166069274001	133.168320117	"4"	13903.070549141	13901.01658537	1.5	0.1
0.01	1	0.00399122099952365	1	51	NA	149.623189432999	0	0.49	1.74	1	133.399755140001	133.403746361	"4"	13903.070549141	13901.01658537	1.5	0.1
0.01	1	0.130437173000246	1	51	NA	149.623189432999	0	0.49	1.74	1	133.63339832	133.763835493	"4"	13903.070549141	13901.01658537	1.5	0.1
0.01	1	0.0021653680014424	1	51	NA	149.623189432999	0	0.49	1.74	1	134.000657258999	134.002822627001	"4"	13903.070549141	13901.01658537	1.5	0.1
0.01	1	0.00444661300025473	1	51	NA	149.623189432999	0	0.49	1.74	1	134.234537502	134.238984115	"4"	13903.070549141	13901.01658537	1.5	0.1
0.01	1	0.00392218200067873	1	51	NA	149.623189432999	0	0.49	1.74	1	134.468145884999	134.472068067	"4"	13903.070549141	13901.01658537	1.5	0.1
0.01	1	0.00395521200152871	1	51	NA	149.623189432999	0	0.49	1.74	1	134.701935974999	134.705891187001	"4"	13903.070549141	13901.01658537	1.5	0.1
0.01	1	0.00412318300004699	1	51	NA	149.623189432999	0	0.49	1.74	1	134.935581012	134.939704195	"4"	13903.070549141	13901.01658537	1.5	0.1
0.01	1	0.00229222699999809	1	51	NA	149.623189432999	0	0.49	1.74	1	135.169387432001	135.171679659001	"4"	13903.070549141	13901.01658537	1.5	0.1
0.01	1	0.0256109549991379	1	51	NA	149.623189432999	0	0.49	1.74	1	135.403066933	135.428677888	"4"	13903.070549141	13901.01658537	1.5	0.1
0.01	1	0.0482713880010124	1	51	NA	149.623189432999	0	0.49	1.74	1	135.653473291999	135.70174468	"4"	13903.070549141	13901.01658537	1.5	0.1
0.01	1	0.0590781390001212	1	51	NA	149.623189432999	0	0.49	1.74	1	135.937401395	135.996479534	"4"	13903.070549141	13901.01658537	1.5	0.1
0.01	1	0.0562917879997258	1	51	NA	149.623189432999	0	0.49	1.74	1	136.221181442001	136.27747323	"4"	13903.070549141	13901.01658537	1.5	0.1
0.01	1	0.0589657799991983	1	51	NA	149.623189432999	0	0.49	1.74	1	136.505015377001	136.563981157	"4"	13903.070549141	13901.01658537	1.5	0.1
0.01	1	0.0566523170000437	1	51	NA	149.623189432999	0	0.49	1.74	1	136.78874828	136.845400597	"4"	13903.070549141	13901.01658537	1.5	0.1
0.01	1	0.0529110959996615	1	51	NA	149.623189432999	0	0.49	1.74	1	137.072571507	137.125482603	"4"	13903.070549141	13901.01658537	1.5	0.1
0.01	1	0.0477461130012671	1	51	NA	149.623189432999	0	0.49	1.74	1	137.356420730999	137.404166844	"4"	13903.070549141	13901.01658537	1.5	0.1
0.01	1	0.0524425319999864	1	51	NA	149.623189432999	0	0.49	1.74	1	137.640122549999	137.692565081999	"4"	13903.070549141	13901.01658537	1.5	0.1
0.01	1	0.0976290729995526	1	51	NA	149.623189432999	0	0.49	1.74	1	137.923977412	138.021606484999	"4"	13903.070549141	13901.01658537	1.5	0.1
0.01	1	0.1228975239992	1	51	NA	149.623189432999	0	0.49	1.74	1	138.257939625	138.380837148999	"4"	13903.070549141	13901.01658537	1.5	0.1
0.01	1	0.124614126998495	1	51	NA	149.623189432999	0	0.49	1.74	1	138.608569964001	138.733184090999	"4"	13903.070549141	13901.01658537	1.5	0.1
0.01	1	0.109573638999791	1	51	NA	149.623189432999	0	0.49	1.74	1	138.95909428	139.068667919	"4"	13903.070549141	13901.01658537	1.5	0.1
0.01	1	0.0871854670003813	1	51	NA	149.623189432999	0	0.49	1.74	1	139.309693519999	139.396878987	"4"	13903.070549141	13901.01658537	1.5	0.1
0.01	1	0.114849847999722	1	51	NA	149.623189432999	0	0.49	1.74	1	139.626766305	139.741616153	"4"	13903.070549141	13901.01658537	1.5	0.1
0.01	1	0.138937576999524	1	51	NA	149.623189432999	0	0.49	1.74	1	139.977453517	140.116391093999	"4"	13903.070549141	13901.01658537	1.5	0.1
0.01	1	0.180523945000459	1	51	NA	149.623189432999	0	0.49	1.74	1	140.3446731	140.525197045001	"4"	13903.070549141	13901.01658537	1.5	0.1
0.01	1	0.106352278000486	1	51	NA	149.623189432999	0	0.49	1.74	1	140.762064869999	140.868417148	"4"	13903.070549141	13901.01658537	1.5	0.1
0.01	1	0.13181497000005	1	51	NA	149.623189432999	0	0.49	1.74	1	141.095929380001	141.227744350001	"4"	13903.070549141	13901.01658537	1.5	0.1
0.01	1	0.14167291800004	1	51	NA	149.623189432999	0	0.49	1.74	1	141.463362504999	141.605035422999	"4"	13903.070549141	13901.01658537	1.5	0.1
0.01	1	0.165777306001473	1	51	NA	149.623189432999	0	0.49	1.74	1	141.830535130999	141.996312437001	"4"	13903.070549141	13901.01658537	1.5	0.1
0.01	1	0.0781090230011614	1	51	NA	149.623189432999	0	0.49	1.74	1	142.231222799999	142.309331823	"4"	13903.070549141	13901.01658537	1.5	0.1
0.01	1	0.159890308001195	1	51	NA	149.623189432999	0	0.49	1.74	1	142.531784344999	142.691674653001	"4"	13903.070549141	13901.01658537	1.5	0.1
0.01	1	0.130219351000051	1	51	NA	149.623189432999	0	0.49	1.74	1	142.915630195001	143.045849546001	"4"	13903.070549141	13901.01658537	1.5	0.1
0.01	1	0.113226729999951	1	51	NA	149.623189432999	0	0.49	1.74	1	143.282930795	143.396157525	"4"	13903.070549141	13901.01658537	1.5	0.1
0.01	1	0.147804017999078	1	51	NA	149.623189432999	0	0.49	1.74	1	143.633624755001	143.781428773	"4"	13903.070549141	13901.01658537	1.5	0.1
0.01	1	0.178674845001296	1	51	NA	149.623189432999	0	0.49	1.74	1	144.017692093999	144.196366939001	"4"	13903.070549141	13901.01658537	1.5	0.1
0.01	1	0.185633285000222	1	51	NA	149.623189432999	0	0.49	1.74	1	144.434868111	144.620501396001	"4"	13903.070549141	13901.01658537	1.5	0.1
0.01	1	0.143397269001071	1	51	NA	149.623189432999	0	0.49	1.74	1	144.852247794999	144.995645064	"4"	13903.070549141	13901.01658537	1.5	0.1
0.01	1	0.159743538999464	1	51	NA	149.623189432999	0	0.49	1.74	1	145.236283212	145.396026750999	"4"	13903.070549141	13901.01658537	1.5	0.1
0.01	1	0.169423244999052	1	51	NA	149.623189432999	0	0.49	1.74	1	145.620299935001	145.78972318	"4"	13903.070549141	13901.01658537	1.5	0.1
0.01	1	0.135636635999617	1	51	NA	149.623189432999	0	0.49	1.74	1	146.020926687001	146.156563323	"4"	13903.070549141	13901.01658537	1.5	0.1
0.01	1	0.167994752999221	1	51	NA	149.623189432999	0	0.49	1.74	1	146.388231727	146.556226479999	"4"	13903.070549141	13901.01658537	1.5	0.1
0.01	1	0.167877470999883	1	51	NA	149.623189432999	0	0.49	1.74	1	146.78888102	146.956758491	"4"	13903.070549141	13901.01658537	1.5	0.1
0.01	1	0.152439150000646	1	51	NA	149.623189432999	0	0.49	1.74	1	147.18966821	147.34210736	"4"	13903.070549141	13901.01658537	1.5	0.1
0.01	1	0.158282096999756	1	51	NA	149.623189432999	0	0.49	1.74	1	147.573577130001	147.731859227	"4"	13903.070549141	13901.01658537	1.5	0.1
0.01	1	0.198316164000062	1	51	NA	149.623189432999	0	0.49	1.74	1	147.957556232999	148.155872396999	"4"	13903.070549141	13901.01658537	1.5	0.1
0.01	1	0.140376208999442	1	51	NA	149.623189432999	0	0.49	1.74	1	148.39153035	148.531906558999	"4"	13903.070549141	13901.01658537	1.5	0.1
0.01	1	0.334933825000917	1	51	NA	149.623189432999	0	0.49	1.74	1	148.758855765	149.093789590001	"4"	13903.070549141	13901.01658537	1.5	0.1
0.01	1	0.295140034999349	2	51	NA	149.623189432999	0	0.49	1.74	1	149.326487550001	149.621627585	"4"	13903.070549141	13901.01658537	1.5	0.1
0.01	1	0.276908607000223	1	116	NA	176.981651384	0	0.74	2.48	1	151.64705224	151.923960847	"5"	13903.070549141	13901.01658537	1.5	0.1
0.01	1	0.0042659470000217	1	116	NA	176.981651384	0	0.74	2.48	1	152.164608682	152.168874629	"5"	13903.070549141	13901.01658537	1.5	0.1
0.01	1	0.00497372199970414	1	116	NA	176.981651384	0	0.74	2.48	1	152.398431715001	152.403405437	"5"	13903.070549141	13901.01658537	1.5	0.1
0.01	1	0.093915964000189	1	116	NA	176.981651384	0	0.74	2.48	1	152.632130526999	152.726046491	"5"	13903.070549141	13901.01658537	1.5	0.1
0.01	1	0.00217976400017506	1	116	NA	176.981651384	0	0.74	2.48	1	152.949361503001	152.951541267001	"5"	13903.070549141	13901.01658537	1.5	0.1
0.01	1	0.00217918599992117	1	116	NA	176.981651384	0	0.74	2.48	1	153.182986831	153.185166017	"5"	13903.070549141	13901.01658537	1.5	0.1
0.01	1	0.00215388000106032	1	116	NA	176.981651384	0	0.74	2.48	1	153.416718938999	153.418872819	"5"	13903.070549141	13901.01658537	1.5	0.1
0.01	1	0.00214094699913403	1	116	NA	176.981651384	0	0.74	2.48	1	153.650420280001	153.652561227	"5"	13903.070549141	13901.01658537	1.5	0.1
0.01	1	0.00483601000087219	1	116	NA	176.981651384	0	0.74	2.48	1	153.884209264999	153.889045275	"5"	13903.070549141	13901.01658537	1.5	0.1
0.01	1	0.00497265699959826	1	116	NA	176.981651384	0	0.74	2.48	1	154.11795813	154.122930787	"5"	13903.070549141	13901.01658537	1.5	0.1
0.01	1	0.0022120649991848	1	116	NA	176.981651384	0	0.74	2.48	1	154.351611898001	154.353823963	"5"	13903.070549141	13901.01658537	1.5	0.1
0.01	1	0.00219610600106535	1	116	NA	176.981651384	0	0.74	2.48	1	154.585394538999	154.587590645	"5"	13903.070549141	13901.01658537	1.5	0.1
0.01	1	0.00239245200100413	1	116	NA	176.981651384	0	0.74	2.48	1	154.819083181999	154.821475634	"5"	13903.070549141	13901.01658537	1.5	0.1
0.01	1	0.00218520300040836	1	116	NA	176.981651384	0	0.74	2.48	1	155.052839791	155.055024994001	"5"	13903.070549141	13901.01658537	1.5	0.1
0.01	1	0.00239896300081455	1	116	NA	176.981651384	0	0.74	2.48	1	155.286476015999	155.288874979	"5"	13903.070549141	13901.01658537	1.5	0.1
0.01	1	0.00862626900016039	1	116	NA	176.981651384	0	0.74	2.48	1	155.520346789999	155.528973058999	"5"	13903.070549141	13901.01658537	1.5	0.1
0.01	1	0.02619000499908	1	116	NA	176.981651384	0	0.74	2.48	1	155.753984105	155.780174109999	"5"	13903.070549141	13901.01658537	1.5	0.1
0.01	1	0.0256266569995205	1	116	NA	176.981651384	0	0.74	2.48	1	156.004324482001	156.029951139	"5"	13903.070549141	13901.01658537	1.5	0.1
0.01	1	0.0382765389986162	1	116	NA	176.981651384	0	0.74	2.48	1	156.254740382001	156.293016920999	"5"	13903.070549141	13901.01658537	1.5	0.1
0.01	1	0.0423733560000983	1	116	NA	176.981651384	0	0.74	2.48	1	156.521881375	156.564254731	"5"	13903.070549141	13901.01658537	1.5	0.1
0.01	1	0.175908379000248	1	116	NA	176.981651384	0	0.74	2.48	1	156.789032098999	156.964940477999	"5"	13903.070549141	13901.01658537	1.5	0.1
0.01	1	0.111001074999876	1	116	NA	176.981651384	0	0.74	2.48	1	157.189652040001	157.300653115	"5"	13903.070549141	13901.01658537	1.5	0.1
0.01	1	0.145712808000098	1	116	NA	176.981651384	0	0.74	2.48	1	157.523656404999	157.669369212999	"5"	13903.070549141	13901.01658537	1.5	0.1
0.01	1	0.162532162999923	1	116	NA	176.981651384	0	0.74	2.48	1	157.891013521999	158.053545684999	"5"	13903.070549141	13901.01658537	1.5	0.1
0.01	1	0.145682186001068	1	116	NA	176.981651384	0	0.74	2.48	1	158.291564093999	158.43724628	"5"	13903.070549141	13901.01658537	1.5	0.1
0.01	1	0.168450408998979	1	116	NA	176.981651384	0	0.74	2.48	1	158.675486550001	158.843936959	"5"	13903.070549141	13901.01658537	1.5	0.1
0.01	1	0.224080443998901	1	116	NA	176.981651384	0	0.74	2.48	1	159.07614291	159.300223353999	"5"	13903.070549141	13901.01658537	1.5	0.1
0.01	1	0.158173894998981	1	116	NA	176.981651384	0	0.74	2.48	1	159.526935305001	159.6851092	"5"	13903.070549141	13901.01658537	1.5	0.1
0.01	1	0.125524217999555	1	116	NA	176.981651384	0	0.74	2.48	1	159.910985967001	160.036510185	"5"	13903.070549141	13901.01658537	1.5	0.1
0.01	1	0.159964184998898	1	116	NA	176.981651384	0	0.74	2.48	1	160.261513305	160.421477489999	"5"	13903.070549141	13901.01658537	1.5	0.1
0.01	1	0.143144417999792	1	116	NA	176.981651384	0	0.74	2.48	1	160.645602478	160.788746896	"5"	13903.070549141	13901.01658537	1.5	0.1
0.01	1	0.151938016000713	1	116	NA	176.981651384	0	0.74	2.48	1	161.012874667	161.164812683	"5"	13903.070549141	13901.01658537	1.5	0.1
0.01	1	0.176466356000674	1	116	NA	176.981651384	0	0.74	2.48	1	161.396802665	161.573269021001	"5"	13903.070549141	13901.01658537	1.5	0.1
0.01	1	0.159012924999843	1	116	NA	176.981651384	0	0.74	2.48	1	161.797463432	161.956476357	"5"	13903.070549141	13901.01658537	1.5	0.1
0.01	1	0.135923488998742	1	116	NA	176.981651384	0	0.74	2.48	1	162.181484160001	162.317407649	"5"	13903.070549141	13901.01658537	1.5	0.1
0.01	1	0.176532009998482	1	116	NA	176.981651384	0	0.74	2.48	1	162.548777800001	162.725309809999	"5"	13903.070549141	13901.01658537	1.5	0.1
0.01	1	0.222985531001541	1	116	NA	176.981651384	0	0.74	2.48	1	162.949395469999	163.172381001001	"5"	13903.070549141	13901.01658537	1.5	0.1
0.01	1	0.229492430999017	1	116	NA	176.981651384	0	0.74	2.48	1	163.400281312001	163.629773743	"5"	13903.070549141	13901.01658537	1.5	0.1
0.01	1	0.192441291999785	1	116	NA	176.981651384	0	0.74	2.48	1	163.867630254999	164.060071546999	"5"	13903.070549141	13901.01658537	1.5	0.1
0.01	1	0.248677098999906	1	116	NA	176.981651384	0	0.74	2.48	1	164.285039572	164.533716671	"5"	13903.070549141	13901.01658537	1.5	0.1
0.01	1	0.194712215999971	1	116	NA	176.981651384	0	0.74	2.48	1	164.769053194999	164.963765410999	"5"	13903.070549141	13901.01658537	1.5	0.1
0.01	1	0.218198365000717	1	116	NA	176.981651384	0	0.74	2.48	1	165.186497797	165.404696162001	"5"	13903.070549141	13901.01658537	1.5	0.1
0.01	1	0.223819965000075	1	116	NA	176.981651384	0	0.74	2.48	1	165.637284365001	165.861104330001	"5"	13903.070549141	13901.01658537	1.5	0.1
0.01	1	0.228288738999254	1	116	NA	176.981651384	0	0.74	2.48	1	166.088017165001	166.316305904	"5"	13903.070549141	13901.01658537	1.5	0.1
0.01	1	0.305781473000025	1	116	NA	176.981651384	0	0.74	2.48	1	166.53876111	166.844542583	"5"	13903.070549141	13901.01658537	1.5	0.1
0.01	1	0.236770348001301	1	116	NA	176.981651384	0	0.74	2.48	1	167.073044325	167.309814673001	"5"	13903.070549141	13901.01658537	1.5	0.1
0.01	1	0.200134275999517	1	116	NA	176.981651384	0	0.74	2.48	1	167.540488301	167.740622576999	"5"	13903.070549141	13901.01658537	1.5	0.1
0.01	1	0.21315291800056	1	116	NA	176.981651384	0	0.74	2.48	1	167.974564135	168.187717053001	"5"	13903.070549141	13901.01658537	1.5	0.1
0.01	1	0.180390026998793	1	116	NA	176.981651384	0	0.74	2.48	1	168.425356440001	168.605746466999	"5"	13903.070549141	13901.01658537	1.5	0.1
0.01	1	0.978292871999656	1	116	NA	176.981651384	0	0.74	2.48	1	168.842670352	169.820963224	"5"	13903.070549141	13901.01658537	1.5	0.1
0.01	1	0.00399855099931301	1	116	NA	176.981651384	0	0.74	2.48	1	170.044608212	170.048606762999	"5"	13903.070549141	13901.01658537	1.5	0.1
0.01	1	0.00395960400055628	1	116	NA	176.981651384	0	0.74	2.48	1	170.278404094999	170.282363699	"5"	13903.070549141	13901.01658537	1.5	0.1
0.01	1	0.00351304599826108	1	116	NA	176.981651384	0	0.74	2.48	1	170.512055753001	170.515568798999	"5"	13903.070549141	13901.01658537	1.5	0.1
0.01	1	0.0102267790007318	1	116	NA	176.981651384	0	0.74	2.48	1	170.745919339999	170.756146119	"5"	13903.070549141	13901.01658537	1.5	0.1
0.01	1	0.00318801400135271	1	116	NA	176.981651384	0	0.74	2.48	1	170.996197238999	170.999385253001	"5"	13903.070549141	13901.01658537	1.5	0.1
0.01	1	0.0221919539999362	1	116	NA	176.981651384	0	0.74	2.48	1	171.22994961	171.252141564	"5"	13903.070549141	13901.01658537	1.5	0.1
0.01	1	0.0204367380010808	1	116	NA	176.981651384	0	0.74	2.48	1	171.480443985	171.500880723001	"5"	13903.070549141	13901.01658537	1.5	0.1
0.01	1	0.018587139000374	1	116	NA	176.981651384	0	0.74	2.48	1	171.730856335	171.749443474	"5"	13903.070549141	13901.01658537	1.5	0.1
0.01	1	0.0385716749988205	1	116	NA	176.981651384	0	0.74	2.48	1	171.981262375	172.019834049999	"5"	13903.070549141	13901.01658537	1.5	0.1
0.01	1	0.380184417999772	1	116	NA	176.981651384	0	0.74	2.48	1	172.248467646999	172.628652064999	"5"	13903.070549141	13901.01658537	1.5	0.1
0.01	1	0.0677728680002474	1	116	NA	176.981651384	0	0.74	2.48	1	172.849296328999	172.917069196999	"5"	13903.070549141	13901.01658537	1.5	0.1
0.01	1	0.00223966399971687	1	116	NA	176.981651384	0	0.74	2.48	1	173.149897435	173.152137098999	"5"	13903.070549141	13901.01658537	1.5	0.1
0.01	1	0.00497976500082586	1	116	NA	176.981651384	0	0.74	2.48	1	173.383720315	173.38870008	"5"	13903.070549141	13901.01658537	1.5	0.1
0.01	1	0.00524046200007433	1	116	NA	176.981651384	0	0.74	2.48	1	173.61741051	173.622650972	"5"	13903.070549141	13901.01658537	1.5	0.1
0.01	1	0.00239699399935489	1	116	NA	176.981651384	0	0.74	2.48	1	173.851133298	173.853530291999	"5"	13903.070549141	13901.01658537	1.5	0.1
0.01	1	0.00238420499954373	1	116	NA	176.981651384	0	0.74	2.48	1	174.084790101	174.087174306	"5"	13903.070549141	13901.01658537	1.5	0.1
0.01	1	0.00344987800053786	1	116	NA	176.981651384	0	0.74	2.48	1	174.318509063	174.321958941	"5"	13903.070549141	13901.01658537	1.5	0.1
0.01	1	0.0284656989988434	1	116	NA	176.981651384	0	0.74	2.48	1	174.552182825	174.580648523999	"5"	13903.070549141	13901.01658537	1.5	0.1
0.01	1	0.0265677940005844	1	116	NA	176.981651384	0	0.74	2.48	1	174.802732135	174.829299929001	"5"	13903.070549141	13901.01658537	1.5	0.1
0.01	1	0.431333562999498	1	116	NA	176.981651384	0	0.74	2.48	1	175.053055042001	175.484388605	"5"	13903.070549141	13901.01658537	1.5	0.1
0.01	1	0.00476076199993258	1	116	NA	176.981651384	0	0.74	2.48	1	175.721014195	175.725774957	"5"	13903.070549141	13901.01658537	1.5	0.1
0.01	1	0.00293239500024356	1	116	NA	176.981651384	0	0.74	2.48	1	175.954630339	175.957562734	"5"	13903.070549141	13901.01658537	1.5	0.1
0.01	1	0.00239890099874174	1	116	NA	176.981651384	0	0.74	2.48	1	176.18832997	176.190728870999	"5"	13903.070549141	13901.01658537	1.5	0.1
0.01	1	0.0307591849996243	1	116	NA	176.981651384	0	0.74	2.48	1	176.422052947	176.452812132	"5"	13903.070549141	13901.01658537	1.5	0.1
0.01	1	0.290991039999426	2	116	NA	176.981651384	0	0.74	2.48	1	176.68914506	176.980136099999	"5"	13903.070549141	13901.01658537	1.5	0.1
0.01	1	0.0112884459995257	1	118	NA	205.357465435	0	1.07	3.55	1	179.026434641	179.037723087	"6"	13903.070549141	13901.01658537	1.5	0.1
0.01	1	0.0549039170000469	1	118	NA	205.357465435	0	1.07	3.55	1	179.2768206	179.331724517	"6"	13903.070549141	13901.01658537	1.5	0.1
0.01	1	0.0370681730000797	1	118	NA	205.357465435	0	1.07	3.55	1	179.560713659999	179.597781832999	"6"	13903.070549141	13901.01658537	1.5	0.1
0.01	1	0.03242646200124	1	118	NA	205.357465435	0	1.07	3.55	1	179.827732911999	179.860159374	"6"	13903.070549141	13901.01658537	1.5	0.1
0.01	1	0.0221128600005613	1	118	NA	205.357465435	0	1.07	3.55	1	180.094842605	180.116955465001	"6"	13903.070549141	13901.01658537	1.5	0.1
0.01	1	0.0188218069997674	1	118	NA	205.357465435	0	1.07	3.55	1	180.345386325	180.364208131999	"6"	13903.070549141	13901.01658537	1.5	0.1
0.01	1	0.00226090899923292	1	118	NA	205.357465435	0	1.07	3.55	1	180.595869142	180.598130050999	"6"	13903.070549141	13901.01658537	1.5	0.1
0.01	1	0.00224383100066916	1	118	NA	205.357465435	0	1.07	3.55	1	180.829526103	180.831769934	"6"	13903.070549141	13901.01658537	1.5	0.1
0.01	1	0.00219117999949958	1	118	NA	205.357465435	0	1.07	3.55	1	181.063232885001	181.065424065	"6"	13903.070549141	13901.01658537	1.5	0.1
0.01	1	0.00413683299848344	1	118	NA	205.357465435	0	1.07	3.55	1	181.296992150001	181.301128982999	"6"	13903.070549141	13901.01658537	1.5	0.1
0.01	1	0.00215957500040531	1	118	NA	205.357465435	0	1.07	3.55	1	181.53060455	181.532764125001	"6"	13903.070549141	13901.01658537	1.5	0.1
0.01	1	0.00410135299898684	1	118	NA	205.357465435	0	1.07	3.55	1	181.764516040001	181.768617393	"6"	13903.070549141	13901.01658537	1.5	0.1
0.01	1	0.00400778699986404	1	118	NA	205.357465435	0	1.07	3.55	1	181.998121639999	182.002129426999	"6"	13903.070549141	13901.01658537	1.5	0.1
0.01	1	0.00460212199868693	1	118	NA	205.357465435	0	1.07	3.55	1	182.231912605001	182.236514726999	"6"	13903.070549141	13901.01658537	1.5	0.1
0.01	1	0.003879166999468	1	118	NA	205.357465435	0	1.07	3.55	1	182.465543782	182.469422949	"6"	13903.070549141	13901.01658537	1.5	0.1
0.01	1	0.00424103700061096	1	118	NA	205.357465435	0	1.07	3.55	1	182.699305552	182.703546589	"6"	13903.070549141	13901.01658537	1.5	0.1
0.01	1	0.00491107699963322	1	118	NA	205.357465435	0	1.07	3.55	1	182.933025115	182.937936192	"6"	13903.070549141	13901.01658537	1.5	0.1
0.01	1	0.0048793250007293	1	118	NA	205.357465435	0	1.07	3.55	1	183.166755965	183.17163529	"6"	13903.070549141	13901.01658537	1.5	0.1
0.01	1	0.00215563300116628	1	118	NA	205.357465435	0	1.07	3.55	1	183.400480222999	183.402635856	"6"	13903.070549141	13901.01658537	1.5	0.1
0.01	1	0.00220442899990303	1	118	NA	205.357465435	0	1.07	3.55	1	183.634249166	183.636453595	"6"	13903.070549141	13901.01658537	1.5	0.1
0.01	1	0.00270708400057629	1	118	NA	205.357465435	0	1.07	3.55	1	183.867873071	183.870580155	"6"	13903.070549141	13901.01658537	1.5	0.1
0.01	1	0.00734014100089553	1	118	NA	205.357465435	0	1.07	3.55	1	184.101744379999	184.109084521	"6"	13903.070549141	13901.01658537	1.5	0.1
0.01	1	0.0368105190009373	1	118	NA	205.357465435	0	1.07	3.55	1	184.335497337999	184.372307857	"6"	13903.070549141	13901.01658537	1.5	0.1
0.01	1	0.0176512229991204	1	118	NA	205.357465435	0	1.07	3.55	1	184.60248435	184.620135572999	"6"	13903.070549141	13901.01658537	1.5	0.1
0.01	1	0.0237049400002434	1	118	NA	205.357465435	0	1.07	3.55	1	184.852987759999	184.8766927	"6"	13903.070549141	13901.01658537	1.5	0.1
0.01	1	0.0224732989991026	1	118	NA	205.357465435	0	1.07	3.55	1	185.10334044	185.125813739	"6"	13903.070549141	13901.01658537	1.5	0.1
0.01	1	0.00216714100133686	1	118	NA	205.357465435	0	1.07	3.55	1	185.353842672999	185.356009814001	"6"	13903.070549141	13901.01658537	1.5	0.1
0.01	1	0.0650731990008353	1	118	NA	205.357465435	0	1.07	3.55	1	185.587541204999	185.652614404	"6"	13903.070549141	13901.01658537	1.5	0.1
0.01	1	0.0047948119990906	1	118	NA	205.357465435	0	1.07	3.55	1	185.887959883001	185.892754695	"6"	13903.070549141	13901.01658537	1.5	0.1
0.01	1	0.0502456630001689	1	118	NA	205.357465435	0	1.07	3.55	1	186.121789184999	186.172034847999	"6"	13903.070549141	13901.01658537	1.5	0.1
0.01	1	0.00245627299955231	1	118	NA	205.357465435	0	1.07	3.55	1	186.405548757	186.40800503	"6"	13903.070549141	13901.01658537	1.5	0.1
0.01	1	0.00423072900048282	1	118	NA	205.357465435	0	1.07	3.55	1	186.63929777	186.643528499	"6"	13903.070549141	13901.01658537	1.5	0.1
0.01	1	0.108308550999936	1	118	NA	205.357465435	0	1.07	3.55	1	186.872979784999	186.981288335999	"6"	13903.070549141	13901.01658537	1.5	0.1
0.01	1	0.00421224300043832	1	118	NA	205.357465435	0	1.07	3.55	1	187.206951172	187.211163415001	"6"	13903.070549141	13901.01658537	1.5	0.1
0.01	1	0.00235469300059776	1	118	NA	205.357465435	0	1.07	3.55	1	187.440610186999	187.44296488	"6"	13903.070549141	13901.01658537	1.5	0.1
0.01	1	0.115282392000154	1	118	NA	205.357465435	0	1.07	3.55	1	187.674352475	187.789634867	"6"	13903.070549141	13901.01658537	1.5	0.1
0.01	1	0.00225270900045871	1	118	NA	205.357465435	0	1.07	3.55	1	188.024913301	188.027166010001	"6"	13903.070549141	13901.01658537	1.5	0.1
0.01	1	0.00417523699979938	1	118	NA	205.357465435	0	1.07	3.55	1	188.25864944	188.262824677	"6"	13903.070549141	13901.01658537	1.5	0.1
0.01	1	0.10484996300147	1	118	NA	205.357465435	0	1.07	3.55	1	188.492445071999	188.597295035001	"6"	13903.070549141	13901.01658537	1.5	0.1
0.01	1	0.00223136200111185	1	118	NA	205.357465435	0	1.07	3.55	1	188.826301767	188.828533129001	"6"	13903.070549141	13901.01658537	1.5	0.1
0.01	1	0.00409203300114314	1	118	NA	205.357465435	0	1.07	3.55	1	189.05993256	189.064024593001	"6"	13903.070549141	13901.01658537	1.5	0.1
0.01	1	0.00424334200033627	1	118	NA	205.357465435	0	1.07	3.55	1	189.293714365	189.297957707	"6"	13903.070549141	13901.01658537	1.5	0.1
0.01	1	0.109242919999815	1	118	NA	205.357465435	0	1.07	3.55	1	189.52748239	189.63672531	"6"	13903.070549141	13901.01658537	1.5	0.1
0.01	1	0.00236940000104369	1	118	NA	205.357465435	0	1.07	3.55	1	189.861375136999	189.863744537	"6"	13903.070549141	13901.01658537	1.5	0.1
0.01	1	0.00226291199942352	1	118	NA	205.357465435	0	1.07	3.55	1	190.095045222	190.097308134	"6"	13903.070549141	13901.01658537	1.5	0.1
0.01	1	0.00451333900127793	1	118	NA	205.357465435	0	1.07	3.55	1	190.328780002999	190.333293342001	"6"	13903.070549141	13901.01658537	1.5	0.1
0.01	1	0.00490624499980186	1	118	NA	205.357465435	0	1.07	3.55	1	190.562525145	190.56743139	"6"	13903.070549141	13901.01658537	1.5	0.1
0.01	1	0.00412102499831235	1	118	NA	205.357465435	0	1.07	3.55	1	190.796232332001	190.800353356999	"6"	13903.070549141	13901.01658537	1.5	0.1
0.01	1	0.118557265001073	1	118	NA	205.357465435	0	1.07	3.55	1	191.029983072	191.148540337001	"6"	13903.070549141	13901.01658537	1.5	0.1
0.01	1	0.00222414000018034	1	118	NA	205.357465435	0	1.07	3.55	1	191.380546312999	191.382770452999	"6"	13903.070549141	13901.01658537	1.5	0.1
0.01	1	0.00239899999905901	1	118	NA	205.357465435	0	1.07	3.55	1	191.614230695001	191.616629695	"6"	13903.070549141	13901.01658537	1.5	0.1
0.01	1	0.00222073099939735	1	118	NA	205.357465435	0	1.07	3.55	1	191.848010010001	191.850230741	"6"	13903.070549141	13901.01658537	1.5	0.1
0.01	1	0.00482219500008796	1	118	NA	205.357465435	0	1.07	3.55	1	192.081832865	192.08665506	"6"	13903.070549141	13901.01658537	1.5	0.1
0.01	1	0.00229173600018839	1	118	NA	205.357465435	0	1.07	3.55	1	192.315543044	192.31783478	"6"	13903.070549141	13901.01658537	1.5	0.1
0.01	1	0.00215035299879673	1	118	NA	205.357465435	0	1.07	3.55	1	192.549177433	192.551327785999	"6"	13903.070549141	13901.01658537	1.5	0.1
0.01	1	0.00422407099904376	1	118	NA	205.357465435	0	1.07	3.55	1	192.782902982	192.787127052999	"6"	13903.070549141	13901.01658537	1.5	0.1
0.01	1	0.00223835999895527	1	118	NA	205.357465435	0	1.07	3.55	1	193.016634219	193.018872578999	"6"	13903.070549141	13901.01658537	1.5	0.1
0.01	1	0.00413682099861035	1	118	NA	205.357465435	0	1.07	3.55	1	193.250403632001	193.254540452999	"6"	13903.070549141	13901.01658537	1.5	0.1
0.01	1	0.00401659400085919	1	118	NA	205.357465435	0	1.07	3.55	1	193.484185486999	193.488202081	"6"	13903.070549141	13901.01658537	1.5	0.1
0.01	1	0.0049070599998231	1	118	NA	205.357465435	0	1.07	3.55	1	193.717992845	193.722899905	"6"	13903.070549141	13901.01658537	1.5	0.1
0.01	1	0.00409678500000155	1	118	NA	205.357465435	0	1.07	3.55	1	193.951535460001	193.955632245001	"6"	13903.070549141	13901.01658537	1.5	0.1
0.01	1	0.131921010999577	1	118	NA	205.357465435	0	1.07	3.55	1	194.185322159999	194.317243170999	"6"	13903.070549141	13901.01658537	1.5	0.1
0.01	1	0.00240083500102628	1	118	NA	205.357465435	0	1.07	3.55	1	194.552657314	194.555058149001	"6"	13903.070549141	13901.01658537	1.5	0.1
0.01	1	0.00352987599944754	1	118	NA	205.357465435	0	1.07	3.55	1	194.786369865	194.789899740999	"6"	13903.070549141	13901.01658537	1.5	0.1
0.01	1	0.00238251999871864	1	118	NA	205.357465435	0	1.07	3.55	1	195.020111464	195.022493983999	"6"	13903.070549141	13901.01658537	1.5	0.1
0.01	1	0.00253847200110613	1	118	NA	205.357465435	0	1.07	3.55	1	195.253753286999	195.256291759	"6"	13903.070549141	13901.01658537	1.5	0.1
0.01	1	0.00242803599940089	1	118	NA	205.357465435	0	1.07	3.55	1	195.487385892	195.489813927999	"6"	13903.070549141	13901.01658537	1.5	0.1
0.01	1	0.00218303099973127	1	118	NA	205.357465435	0	1.07	3.55	1	195.721302358999	195.723485389999	"6"	13903.070549141	13901.01658537	1.5	0.1
0.01	1	0.00218963799852645	1	118	NA	205.357465435	0	1.07	3.55	1	195.954927512001	195.957117149999	"6"	13903.070549141	13901.01658537	1.5	0.1
0.01	1	0.00253824100036582	1	118	NA	205.357465435	0	1.07	3.55	1	196.188593851999	196.191132092999	"6"	13903.070549141	13901.01658537	1.5	0.1
0.01	1	0.0022420269997383	1	118	NA	205.357465435	0	1.07	3.55	1	196.422490465	196.424732492	"6"	13903.070549141	13901.01658537	1.5	0.1
0.01	1	0.00345006799943803	1	118	NA	205.357465435	0	1.07	3.55	1	196.656057067001	196.659507135	"6"	13903.070549141	13901.01658537	1.5	0.1
0.01	1	0.00421053799982474	1	118	NA	205.357465435	0	1.07	3.55	1	196.889805645	196.894016183	"6"	13903.070549141	13901.01658537	1.5	0.1
0.01	1	0.0172432279996428	1	118	NA	205.357465435	0	1.07	3.55	1	197.12361208	197.140855308	"6"	13903.070549141	13901.01658537	1.5	0.1
0.01	1	0.00234673900013149	1	118	NA	205.357465435	0	1.07	3.55	1	197.373912208999	197.376258947999	"6"	13903.070549141	13901.01658537	1.5	0.1
0.01	1	0.00223797699982242	1	118	NA	205.357465435	0	1.07	3.55	1	197.607727279999	197.609965256999	"6"	13903.070549141	13901.01658537	1.5	0.1
0.01	1	0.00216158700095548	1	118	NA	205.357465435	0	1.07	3.55	1	197.841412612999	197.8435742	"6"	13903.070549141	13901.01658537	1.5	0.1
0.01	1	0.00221431200043298	1	118	NA	205.357465435	0	1.07	3.55	1	198.075204493	198.077418805	"6"	13903.070549141	13901.01658537	1.5	0.1
0.01	1	0.0025236750007025	1	118	NA	205.357465435	0	1.07	3.55	1	198.308893912999	198.311417588	"6"	13903.070549141	13901.01658537	1.5	0.1
0.01	1	0.00227901600010227	1	118	NA	205.357465435	0	1.07	3.55	1	198.542557475001	198.544836491001	"6"	13903.070549141	13901.01658537	1.5	0.1
0.01	1	0.0021605499987345	1	118	NA	205.357465435	0	1.07	3.55	1	198.776274854001	198.778435404	"6"	13903.070549141	13901.01658537	1.5	0.1
0.01	1	0.00495122199936304	1	118	NA	205.357465435	0	1.07	3.55	1	199.010090010001	199.015041232	"6"	13903.070549141	13901.01658537	1.5	0.1
0.01	1	0.00496865000059188	1	118	NA	205.357465435	0	1.07	3.55	1	199.243945905	199.248914555001	"6"	13903.070549141	13901.01658537	1.5	0.1
0.01	1	0.00220330899901455	1	118	NA	205.357465435	0	1.07	3.55	1	199.477524591	199.479727899999	"6"	13903.070549141	13901.01658537	1.5	0.1
0.01	1	0.00240702300106932	1	118	NA	205.357465435	0	1.07	3.55	1	199.711215101999	199.713622125	"6"	13903.070549141	13901.01658537	1.5	0.1
0.01	1	0.00328312999954505	1	118	NA	205.357465435	0	1.07	3.55	1	199.944911385001	199.948194515	"6"	13903.070549141	13901.01658537	1.5	0.1
0.01	1	0.00416710900026374	1	118	NA	205.357465435	0	1.07	3.55	1	200.178621972	200.182789081	"6"	13903.070549141	13901.01658537	1.5	0.1
0.01	1	0.0173296439988917	1	118	NA	205.357465435	0	1.07	3.55	1	200.412402275	200.429731918999	"6"	13903.070549141	13901.01658537	1.5	0.1
0.01	1	0.0143755070002953	1	118	NA	205.357465435	0	1.07	3.55	1	200.662916447	200.677291954	"6"	13903.070549141	13901.01658537	1.5	0.1
0.01	1	0.0201868709991686	1	118	NA	205.357465435	0	1.07	3.55	1	200.913316345001	200.933503216	"6"	13903.070549141	13901.01658537	1.5	0.1
0.01	1	0.0106502029993862	1	118	NA	205.357465435	0	1.07	3.55	1	201.16369327	201.174343473	"6"	13903.070549141	13901.01658537	1.5	0.1
0.01	1	0.00757413499923132	1	118	NA	205.357465435	0	1.07	3.55	1	201.397415722	201.404989856999	"6"	13903.070549141	13901.01658537	1.5	0.1
0.01	1	0.0128074389995163	1	118	NA	205.357465435	0	1.07	3.55	1	201.63120018	201.644007618999	"6"	13903.070549141	13901.01658537	1.5	0.1
0.01	1	0.00416195800062269	1	118	NA	205.357465435	0	1.07	3.55	1	201.881560706999	201.885722665	"6"	13903.070549141	13901.01658537	1.5	0.1
0.01	1	0.025952170999517	1	118	NA	205.357465435	0	1.07	3.55	1	202.115313285	202.141265455999	"6"	13903.070549141	13901.01658537	1.5	0.1
0.01	1	0.0148287290012377	1	118	NA	205.357465435	0	1.07	3.55	1	202.365695701999	202.380524431001	"6"	13903.070549141	13901.01658537	1.5	0.1
0.01	1	0.0361681560007128	1	118	NA	205.357465435	0	1.07	3.55	1	202.616121094999	202.652289251	"6"	13903.070549141	13901.01658537	1.5	0.1
0.01	1	0.0102375830010715	1	118	NA	205.357465435	0	1.07	3.55	1	202.88325096	202.893488543001	"6"	13903.070549141	13901.01658537	1.5	0.1
0.01	1	0.0164302100001805	1	118	NA	205.357465435	0	1.07	3.55	1	203.13365896	203.15008917	"6"	13903.070549141	13901.01658537	1.5	0.1
0.01	1	0.0202541999988171	1	118	NA	205.357465435	0	1.07	3.55	1	203.384067847001	203.404322046999	"6"	13903.070549141	13901.01658537	1.5	0.1
0.01	1	0.010490837999896	1	118	NA	205.357465435	0	1.07	3.55	1	203.634467641999	203.644958479999	"6"	13903.070549141	13901.01658537	1.5	0.1
0.01	1	0.0102394989989989	1	118	NA	205.357465435	0	1.07	3.55	1	203.868237430001	203.878476929	"6"	13903.070549141	13901.01658537	1.5	0.1
0.01	1	0.0229283659991779	1	118	NA	205.357465435	0	1.07	3.55	1	204.102086965	204.125015330999	"6"	13903.070549141	13901.01658537	1.5	0.1
0.01	1	0.020921997998812	1	118	NA	205.357465435	0	1.07	3.55	1	204.352419855	204.373341852999	"6"	13903.070549141	13901.01658537	1.5	0.1
0.01	1	0.0188025130009919	1	118	NA	205.357465435	0	1.07	3.55	1	204.602822659999	204.621625173	"6"	13903.070549141	13901.01658537	1.5	0.1
0.01	1	0.0163658180008497	1	118	NA	205.357465435	0	1.07	3.55	1	204.853197187	204.869563005001	"6"	13903.070549141	13901.01658537	1.5	0.1
0.01	1	0.00237671700051578	1	118	NA	205.357465435	0	1.07	3.55	1	205.103580199	205.105956916001	"6"	13903.070549141	13901.01658537	1.5	0.1
0.01	1	0.018560967000667	2	118	NA	205.357465435	0	1.07	3.55	1	205.33737582	205.355936787	"6"	13903.070549141	13901.01658537	1.5	0.1
0.01	1	0.00221036000039021	1	87	229.647738739999	NA	1	0	3.55	1	207.407529038999	207.409739399	"7"	13903.070549141	13901.01658537	1.5	0.1
0.01	1	0.00501226700180268	1	87	229.647738739999	NA	1	0	3.55	1	207.641227529999	207.646239797001	"7"	13903.070549141	13901.01658537	1.5	0.1
0.01	1	0.00357101800000237	1	87	229.647738739999	NA	1	0	3.55	1	207.874991069	207.878562087	"7"	13903.070549141	13901.01658537	1.5	0.1
0.01	1	0.0711159210004553	1	87	229.647738739999	NA	1	0	3.55	1	208.108755560999	208.179871482	"7"	13903.070549141	13901.01658537	1.5	0.1
0.01	1	0.00219197899969004	1	87	229.647738739999	NA	1	0	3.55	1	208.40915965	208.411351629	"7"	13903.070549141	13901.01658537	1.5	0.1
0.01	1	0.112854922001134	1	87	229.647738739999	NA	1	0	3.55	1	208.642960802999	208.755815725001	"7"	13903.070549141	13901.01658537	1.5	0.1
0.01	1	0.00396469000042998	1	87	229.647738739999	NA	1	0	3.55	1	208.993531295	208.997495985001	"7"	13903.070549141	13901.01658537	1.5	0.1
0.01	1	0.0970280719993752	1	87	229.647738739999	NA	1	0	3.55	1	209.22726071	209.324288782	"7"	13903.070549141	13901.01658537	1.5	0.1
0.01	1	0.00236392199985858	1	87	229.647738739999	NA	1	0	3.55	1	209.561110703	209.563474625	"7"	13903.070549141	13901.01658537	1.5	0.1
0.01	1	0.138604412000859	1	87	229.647738739999	NA	1	0	3.55	1	209.794789866999	209.933394279	"7"	13903.070549141	13901.01658537	1.5	0.1
0.01	1	0.00216779599941219	1	87	229.647738739999	NA	1	0	3.55	1	210.16214631	210.164314105999	"7"	13903.070549141	13901.01658537	1.5	0.1
0.01	1	0.00468305599861196	1	87	229.647738739999	NA	1	0	3.55	1	210.395903614	210.400586669999	"7"	13903.070549141	13901.01658537	1.5	0.1
0.01	1	0.00418262600032904	1	87	229.647738739999	NA	1	0	3.55	1	210.629659647	210.633842273	"7"	13903.070549141	13901.01658537	1.5	0.1
0.01	1	0.00425945200004207	1	87	229.647738739999	NA	1	0	3.55	1	210.863406445	210.867665897	"7"	13903.070549141	13901.01658537	1.5	0.1
0.01	1	0.116515236999476	1	87	229.647738739999	NA	1	0	3.55	1	211.09722111	211.213736346999	"7"	13903.070549141	13901.01658537	1.5	0.1
0.01	1	0.00218631900133914	1	87	229.647738739999	NA	1	0	3.55	1	211.447625381999	211.449811701001	"7"	13903.070549141	13901.01658537	1.5	0.1
0.01	1	0.00223739799912437	1	87	229.647738739999	NA	1	0	3.55	1	211.681415794001	211.683653192	"7"	13903.070549141	13901.01658537	1.5	0.1
0.01	1	0.00403354599984596	1	87	229.647738739999	NA	1	0	3.55	1	211.915142295	211.919175841	"7"	13903.070549141	13901.01658537	1.5	0.1
0.01	1	0.119563632000791	1	87	229.647738739999	NA	1	0	3.55	1	212.148804592	212.268368224	"7"	13903.070549141	13901.01658537	1.5	0.1
0.01	1	0.00407994400120515	1	87	229.647738739999	NA	1	0	3.55	1	212.499508614999	212.503588559	"7"	13903.070549141	13901.01658537	1.5	0.1
0.01	1	0.0966496999990341	1	87	229.647738739999	NA	1	0	3.55	1	212.733125770001	212.82977547	"7"	13903.070549141	13901.01658537	1.5	0.1
0.01	1	0.00240935200054082	1	87	229.647738739999	NA	1	0	3.55	1	213.066898743	213.069308095	"7"	13903.070549141	13901.01658537	1.5	0.1
0.01	1	0.00498015199991642	1	87	229.647738739999	NA	1	0	3.55	1	213.300869495	213.305849647	"7"	13903.070549141	13901.01658537	1.5	0.1
0.01	1	0.00419173999944178	1	87	229.647738739999	NA	1	0	3.55	1	213.534472375	213.538664115	"7"	13903.070549141	13901.01658537	1.5	0.1
0.01	1	0.060246698998526	1	87	229.647738739999	NA	1	0	3.55	1	213.768284047001	213.828530745999	"7"	13903.070549141	13901.01658537	1.5	0.1
0.01	1	0.00214676799987501	1	87	229.647738739999	NA	1	0	3.55	1	214.052051840001	214.054198608001	"7"	13903.070549141	13901.01658537	1.5	0.1
0.01	1	0.00273227000070619	1	87	229.647738739999	NA	1	0	3.55	1	214.285800725	214.288532995	"7"	13903.070549141	13901.01658537	1.5	0.1
0.01	1	0.00213223399987328	1	87	229.647738739999	NA	1	0	3.55	1	214.519549433	214.521681667	"7"	13903.070549141	13901.01658537	1.5	0.1
0.01	1	0.139917604001312	1	87	229.647738739999	NA	1	0	3.55	1	214.753227146999	214.893144751	"7"	13903.070549141	13901.01658537	1.5	0.1
0.01	1	0.0021909869992669	1	87	229.647738739999	NA	1	0	3.55	1	215.120494351	215.122685337999	"7"	13903.070549141	13901.01658537	1.5	0.1
0.01	1	0.0040077100002236	1	87	229.647738739999	NA	1	0	3.55	1	215.354211546999	215.358219256999	"7"	13903.070549141	13901.01658537	1.5	0.1
0.01	1	0.00520302499899117	1	87	229.647738739999	NA	1	0	3.55	1	215.588005535001	215.59320856	"7"	13903.070549141	13901.01658537	1.5	0.1
0.01	1	0.127770184000838	1	87	229.647738739999	NA	1	0	3.55	1	215.821678546999	215.949448731	"7"	13903.070549141	13901.01658537	1.5	0.1
0.01	1	0.00490035700022418	1	87	229.647738739999	NA	1	0	3.55	1	216.172243249999	216.177143606999	"7"	13903.070549141	13901.01658537	1.5	0.1
0.01	1	0.00495570500061149	1	87	229.647738739999	NA	1	0	3.55	1	216.405929035	216.41088474	"7"	13903.070549141	13901.01658537	1.5	0.1
0.01	1	0.124560083999313	1	87	229.647738739999	NA	1	0	3.55	1	216.639714313	216.764274396999	"7"	13903.070549141	13901.01658537	1.5	0.1
0.01	1	0.00217631299892673	1	87	229.647738739999	NA	1	0	3.55	1	216.990337391	216.992513703999	"7"	13903.070549141	13901.01658537	1.5	0.1
0.01	1	0.00407316499877197	1	87	229.647738739999	NA	1	0	3.55	1	217.224061982	217.228135146999	"7"	13903.070549141	13901.01658537	1.5	0.1
0.01	1	0.147387811000954	1	87	229.647738739999	NA	1	0	3.55	1	217.457768759999	217.605156571	"7"	13903.070549141	13901.01658537	1.5	0.1
0.01	1	0.00253635300032329	1	87	229.647738739999	NA	1	0	3.55	1	217.841668474999	217.844204827999	"7"	13903.070549141	13901.01658537	1.5	0.1
0.01	1	0.00220510500003002	1	87	229.647738739999	NA	1	0	3.55	1	218.075483545001	218.077688650001	"7"	13903.070549141	13901.01658537	1.5	0.1
0.01	1	0.159539739999673	1	87	229.647738739999	NA	1	0	3.55	1	218.30916959	218.46870933	"7"	13903.070549141	13901.01658537	1.5	0.1
0.01	1	0.00241082700085826	1	87	229.647738739999	NA	1	0	3.55	1	218.693094312999	218.69550514	"7"	13903.070549141	13901.01658537	1.5	0.1
0.01	1	0.00391203199978918	1	87	229.647738739999	NA	1	0	3.55	1	218.926866689	218.930778721	"7"	13903.070549141	13901.01658537	1.5	0.1
0.01	1	0.00486584000100265	1	87	229.647738739999	NA	1	0	3.55	1	219.160710869999	219.16557671	"7"	13903.070549141	13901.01658537	1.5	0.1
0.01	1	0.00223651099986455	1	87	229.647738739999	NA	1	0	3.55	1	219.39434017	219.396576681	"7"	13903.070549141	13901.01658537	1.5	0.1
0.01	1	0.00224060400068993	1	87	229.647738739999	NA	1	0	3.55	1	219.62807626	219.630316864001	"7"	13903.070549141	13901.01658537	1.5	0.1
0.01	1	0.00414513800023997	1	87	229.647738739999	NA	1	0	3.55	1	219.861780157	219.865925295	"7"	13903.070549141	13901.01658537	1.5	0.1
0.01	1	0.276440532999914	1	87	229.647738739999	NA	1	0	3.55	1	220.095534911999	220.371975444999	"7"	13903.070549141	13901.01658537	1.5	0.1
0.01	1	0.0040949529993668	1	87	229.647738739999	NA	1	0	3.55	1	220.596323080001	220.600418033	"7"	13903.070549141	13901.01658537	1.5	0.1
0.01	1	0.0145062339997821	1	87	229.647738739999	NA	1	0	3.55	1	220.83014072	220.844646953999	"7"	13903.070549141	13901.01658537	1.5	0.1
0.01	1	0.00243366500035336	1	87	229.647738739999	NA	1	0	3.55	1	221.080537542	221.082971207001	"7"	13903.070549141	13901.01658537	1.5	0.1
0.01	1	0.00402651600052195	1	87	229.647738739999	NA	1	0	3.55	1	221.314321947	221.318348463001	"7"	13903.070549141	13901.01658537	1.5	0.1
0.01	1	0.00408846699974674	1	87	229.647738739999	NA	1	0	3.55	1	221.54805992	221.552148387	"7"	13903.070549141	13901.01658537	1.5	0.1
0.01	1	0.00407165499927942	1	87	229.647738739999	NA	1	0	3.55	1	221.7816946	221.785766255	"7"	13903.070549141	13901.01658537	1.5	0.1
0.01	1	0.00423541599957389	1	87	229.647738739999	NA	1	0	3.55	1	222.015462325	222.019697741	"7"	13903.070549141	13901.01658537	1.5	0.1
0.01	1	0.00396453199937241	1	87	229.647738739999	NA	1	0	3.55	1	222.249105055	222.253069586999	"7"	13903.070549141	13901.01658537	1.5	0.1
0.01	1	0.136885783998878	1	87	229.647738739999	NA	1	0	3.55	1	222.482914385	222.619800168999	"7"	13903.070549141	13901.01658537	1.5	0.1
0.01	1	0.00225580299957073	1	87	229.647738739999	NA	1	0	3.55	1	222.850244709	222.852500511999	"7"	13903.070549141	13901.01658537	1.5	0.1
0.01	1	0.00218403299913916	1	87	229.647738739999	NA	1	0	3.55	1	223.083931122001	223.086115155	"7"	13903.070549141	13901.01658537	1.5	0.1
0.01	1	0.00220313800127769	1	87	229.647738739999	NA	1	0	3.55	1	223.317589976999	223.319793115001	"7"	13903.070549141	13901.01658537	1.5	0.1
0.01	1	0.00213620300019102	1	87	229.647738739999	NA	1	0	3.55	1	223.55138228	223.553518483001	"7"	13903.070549141	13901.01658537	1.5	0.1
0.01	1	0.00493952500073647	1	87	229.647738739999	NA	1	0	3.55	1	223.785076585	223.790016110001	"7"	13903.070549141	13901.01658537	1.5	0.1
0.01	1	0.00404886700016505	1	87	229.647738739999	NA	1	0	3.55	1	224.018825252	224.022874119	"7"	13903.070549141	13901.01658537	1.5	0.1
0.01	1	0.00217961899943475	1	87	229.647738739999	NA	1	0	3.55	1	224.2524856	224.254665218999	"7"	13903.070549141	13901.01658537	1.5	0.1
0.01	1	0.00386498599982588	1	87	229.647738739999	NA	1	0	3.55	1	224.486241527	224.490106513	"7"	13903.070549141	13901.01658537	1.5	0.1
0.01	1	0.00409512099940912	1	87	229.647738739999	NA	1	0	3.55	1	224.719985682001	224.724080803	"7"	13903.070549141	13901.01658537	1.5	0.1
0.01	1	0.114543122001123	1	87	229.647738739999	NA	1	0	3.55	1	224.953673372	225.068216494001	"7"	13903.070549141	13901.01658537	1.5	0.1
0.01	1	0.00224106299901905	1	87	229.647738739999	NA	1	0	3.55	1	225.30433094	225.306572002999	"7"	13903.070549141	13901.01658537	1.5	0.1
0.01	1	0.0047662830002082	1	87	229.647738739999	NA	1	0	3.55	1	225.538121374	225.542887657	"7"	13903.070549141	13901.01658537	1.5	0.1
0.01	1	0.00216116400042665	1	87	229.647738739999	NA	1	0	3.55	1	225.771731157	225.773892321	"7"	13903.070549141	13901.01658537	1.5	0.1
0.01	1	0.00866019899876846	1	87	229.647738739999	NA	1	0	3.55	1	226.005478233001	226.014138432	"7"	13903.070549141	13901.01658537	1.5	0.1
0.01	1	0.012607446000402	1	87	229.647738739999	NA	1	0	3.55	1	226.239147066999	226.251754512999	"7"	13903.070549141	13901.01658537	1.5	0.1
0.01	1	0.00324635799915995	1	87	229.647738739999	NA	1	0	3.55	1	226.489556867	226.492803224999	"7"	13903.070549141	13901.01658537	1.5	0.1
0.01	1	0.010398073000033	1	87	229.647738739999	NA	1	0	3.55	1	226.723377827	226.7337759	"7"	13903.070549141	13901.01658537	1.5	0.1
0.01	1	0.00993800200012629	1	87	229.647738739999	NA	1	0	3.55	1	226.957078412001	226.967016414001	"7"	13903.070549141	13901.01658537	1.5	0.1
0.01	1	0.00393031400017207	1	87	229.647738739999	NA	1	0	3.55	1	227.190829895	227.194760209	"7"	13903.070549141	13901.01658537	1.5	0.1
0.01	1	0.00370586800090678	1	87	229.647738739999	NA	1	0	3.55	1	227.424561014999	227.428266883	"7"	13903.070549141	13901.01658537	1.5	0.1
0.01	1	0.00240644299992709	1	87	229.647738739999	NA	1	0	3.55	1	227.658320085	227.660726528	"7"	13903.070549141	13901.01658537	1.5	0.1
0.01	1	0.00469405700096104	1	87	229.647738739999	NA	1	0	3.55	1	227.892087849999	227.896781907	"7"	13903.070549141	13901.01658537	1.5	0.1
0.01	1	0.00226024300172867	1	87	229.647738739999	NA	1	0	3.55	1	228.125759778999	228.128020022001	"7"	13903.070549141	13901.01658537	1.5	0.1
0.01	1	0.00217452399920148	1	87	229.647738739999	NA	1	0	3.55	1	228.359487239	228.361661763	"7"	13903.070549141	13901.01658537	1.5	0.1
0.01	1	0.00486456200087559	1	87	229.647738739999	NA	1	0	3.55	1	228.593089259999	228.597953822	"7"	13903.070549141	13901.01658537	1.5	0.1
0.01	1	0.00242126000011922	1	87	229.647738739999	NA	1	0	3.55	1	228.82688092	228.82930218	"7"	13903.070549141	13901.01658537	1.5	0.1
0.01	1	0.00224754000009852	1	87	229.647738739999	NA	1	0	3.55	1	229.060613905	229.062861445	"7"	13903.070549141	13901.01658537	1.5	0.1
0.01	1	0.00445397899966338	1	87	229.647738739999	NA	1	0	3.55	1	229.29433287	229.298786849	"7"	13903.070549141	13901.01658537	1.5	0.1
0.01	1	0.0022634310007561	1	87	229.647738739999	NA	1	0	3.55	1	229.528025254	229.530288685	"7"	13903.070549141	13901.01658537	1.5	0.1
0.01	1	0.00502486699951987	1	6	232.986911866999	NA	1	0	3.55	1	231.698373985	231.703398852	"8"	13903.070549141	13901.01658537	1.5	0.1
0.01	1	0.00463140800093242	1	6	232.986911866999	NA	1	0	3.55	1	231.932166393999	231.936797802	"8"	13903.070549141	13901.01658537	1.5	0.1
0.01	1	0.00398484400102461	1	6	232.986911866999	NA	1	0	3.55	1	232.165882314999	232.169867159	"8"	13903.070549141	13901.01658537	1.5	0.1
0.01	1	0.00359104199924332	1	6	232.986911866999	NA	1	0	3.55	1	232.399600715	232.403191756999	"8"	13903.070549141	13901.01658537	1.5	0.1
0.01	1	0.00404207500105258	1	6	232.986911866999	NA	1	0	3.55	1	232.633321879999	232.637363955	"8"	13903.070549141	13901.01658537	1.5	0.1
0.01	1	0.0041390570004296	1	6	232.986911866999	NA	1	0	3.55	1	232.867077702	232.871216759	"8"	13903.070549141	13901.01658537	1.5	0.1
0.01	1	0.377123584999936	1	106	262.369680260001	NA	1	0	3.55	1	235.020740537	235.397864122	"9"	13903.070549141	13901.01658537	1.5	0.1
0.01	1	0.00229589000082342	1	106	262.369680260001	NA	1	0	3.55	1	235.638388633999	235.640684524	"9"	13903.070549141	13901.01658537	1.5	0.1
0.01	1	0.00491887000134739	1	106	262.369680260001	NA	1	0	3.55	1	235.872124199999	235.877043070001	"9"	13903.070549141	13901.01658537	1.5	0.1
0.01	1	0.00477923499965982	1	106	262.369680260001	NA	1	0	3.55	1	236.105852889999	236.110632124999	"9"	13903.070549141	13901.01658537	1.5	0.1
0.01	1	0.00215818499964371	1	106	262.369680260001	NA	1	0	3.55	1	236.339558539999	236.341716724999	"9"	13903.070549141	13901.01658537	1.5	0.1
0.01	1	0.00216152500070166	1	106	262.369680260001	NA	1	0	3.55	1	236.573206501	236.575368026	"9"	13903.070549141	13901.01658537	1.5	0.1
0.01	1	0.00215928200123017	1	106	262.369680260001	NA	1	0	3.55	1	236.806963499999	236.809122782	"9"	13903.070549141	13901.01658537	1.5	0.1
0.01	1	0.00501289499879931	1	106	262.369680260001	NA	1	0	3.55	1	237.040808325	237.045821219999	"9"	13903.070549141	13901.01658537	1.5	0.1
0.01	1	0.00432355100019777	1	106	262.369680260001	NA	1	0	3.55	1	237.274407651999	237.278731203	"9"	13903.070549141	13901.01658537	1.5	0.1
0.01	1	0.00414408199867466	1	106	262.369680260001	NA	1	0	3.55	1	237.508152037	237.512296118999	"9"	13903.070549141	13901.01658537	1.5	0.1
0.01	1	0.00239867200070876	1	106	262.369680260001	NA	1	0	3.55	1	237.741832426	237.744231098	"9"	13903.070549141	13901.01658537	1.5	0.1
0.01	1	0.00224929900105053	1	106	262.369680260001	NA	1	0	3.55	1	237.975563036	237.977812335001	"9"	13903.070549141	13901.01658537	1.5	0.1
0.01	1	0.00226189199929649	1	106	262.369680260001	NA	1	0	3.55	1	238.209309718	238.21157161	"9"	13903.070549141	13901.01658537	1.5	0.1
0.01	1	0.0102444199983438	1	106	262.369680260001	NA	1	0	3.55	1	238.442979445001	238.453223864999	"9"	13903.070549141	13901.01658537	1.5	0.1
0.01	1	0.00877119100005075	1	106	262.369680260001	NA	1	0	3.55	1	238.676960860001	238.685732051001	"9"	13903.070549141	13901.01658537	1.5	0.1
0.01	1	0.00745921599991561	1	106	262.369680260001	NA	1	0	3.55	1	238.910535155001	238.917994371001	"9"	13903.070549141	13901.01658537	1.5	0.1
0.01	1	0.00756817299952672	1	106	262.369680260001	NA	1	0	3.55	1	239.144260380001	239.151828553	"9"	13903.070549141	13901.01658537	1.5	0.1
0.01	1	0.0266767060002167	1	106	262.369680260001	NA	1	0	3.55	1	239.377998014999	239.404674721	"9"	13903.070549141	13901.01658537	1.5	0.1
0.01	1	0.00409321799997997	1	106	262.369680260001	NA	1	0	3.55	1	239.628261747001	239.632354965001	"9"	13903.070549141	13901.01658537	1.5	0.1
0.01	1	0.00407547100076044	1	106	262.369680260001	NA	1	0	3.55	1	239.86210547	239.866180941	"9"	13903.070549141	13901.01658537	1.5	0.1
0.01	1	0.00363504400047532	1	106	262.369680260001	NA	1	0	3.55	1	240.095763646999	240.099398691	"9"	13903.070549141	13901.01658537	1.5	0.1
0.01	1	0.00234348800040607	1	106	262.369680260001	NA	1	0	3.55	1	240.329596582	240.33194007	"9"	13903.070549141	13901.01658537	1.5	0.1
0.01	1	0.00407165099932172	1	106	262.369680260001	NA	1	0	3.55	1	240.563271572	240.567343223	"9"	13903.070549141	13901.01658537	1.5	0.1
0.01	1	0.0151120360005734	1	106	262.369680260001	NA	1	0	3.55	1	240.797095332	240.812207368001	"9"	13903.070549141	13901.01658537	1.5	0.1
0.01	1	0.0207305700005236	1	106	262.369680260001	NA	1	0	3.55	1	241.047445815	241.068176385001	"9"	13903.070549141	13901.01658537	1.5	0.1
0.01	1	0.0117806899997959	1	106	262.369680260001	NA	1	0	3.55	1	241.297873973001	241.309654663	"9"	13903.070549141	13901.01658537	1.5	0.1
0.01	1	0.00874190600006841	1	106	262.369680260001	NA	1	0	3.55	1	241.548325545	241.557067451	"9"	13903.070549141	13901.01658537	1.5	0.1
0.01	1	0.0221737499996379	1	106	262.369680260001	NA	1	0	3.55	1	241.781999192001	241.804172942	"9"	13903.070549141	13901.01658537	1.5	0.1
0.01	1	0.027937925000515	1	106	262.369680260001	NA	1	0	3.55	1	242.032435072	242.060372997001	"9"	13903.070549141	13901.01658537	1.5	0.1
0.01	1	0.0425484030001826	1	106	262.369680260001	NA	1	0	3.55	1	242.282912389999	242.325460792999	"9"	13903.070549141	13901.01658537	1.5	0.1
0.01	1	0.0390361649988336	1	106	262.369680260001	NA	1	0	3.55	1	242.549986025	242.589022189999	"9"	13903.070549141	13901.01658537	1.5	0.1
0.01	1	0.0282375770002545	1	106	262.369680260001	NA	1	0	3.55	1	242.817084304999	242.845321882	"9"	13903.070549141	13901.01658537	1.5	0.1
0.01	1	0.040658682000867	1	106	262.369680260001	NA	1	0	3.55	1	243.06745988	243.108118562001	"9"	13903.070549141	13901.01658537	1.5	0.1
0.01	1	0.0379777170001034	1	106	262.369680260001	NA	1	0	3.55	1	243.334570974999	243.372548691999	"9"	13903.070549141	13901.01658537	1.5	0.1
0.01	1	0.0188414549993468	1	106	262.369680260001	NA	1	0	3.55	1	243.601799847	243.620641301999	"9"	13903.070549141	13901.01658537	1.5	0.1
0.01	1	0.0327156479997939	1	106	262.369680260001	NA	1	0	3.55	1	243.852122532	243.88483818	"9"	13903.070549141	13901.01658537	1.5	0.1
0.01	1	0.00773581899920828	1	106	262.369680260001	NA	1	0	3.55	1	244.1194326	244.127168419	"9"	13903.070549141	13901.01658537	1.5	0.1
0.01	1	0.0118285489988921	1	106	262.369680260001	NA	1	0	3.55	1	244.353174620001	244.365003168999	"9"	13903.070549141	13901.01658537	1.5	0.1
0.01	1	0.0250354210002115	1	106	262.369680260001	NA	1	0	3.55	1	244.603420042	244.628455463	"9"	13903.070549141	13901.01658537	1.5	0.1
0.01	1	0.0386067280014686	1	106	262.369680260001	NA	1	0	3.55	1	244.853863996999	244.892470725001	"9"	13903.070549141	13901.01658537	1.5	0.1
0.01	1	0.0590087209984631	1	106	262.369680260001	NA	1	0	3.55	1	245.120906067001	245.179914787999	"9"	13903.070549141	13901.01658537	1.5	0.1
0.01	1	0.047029556999405	1	106	262.369680260001	NA	1	0	3.55	1	245.40473384	245.451763396999	"9"	13903.070549141	13901.01658537	1.5	0.1
0.01	1	0.0833086829989043	1	106	262.369680260001	NA	1	0	3.55	1	245.688616805	245.771925487999	"9"	13903.070549141	13901.01658537	1.5	0.1
0.01	1	0.0240526230008982	1	106	262.369680260001	NA	1	0	3.55	1	246.005785382	246.029838005001	"9"	13903.070549141	13901.01658537	1.5	0.1
0.01	1	0.0840688219996082	1	106	262.369680260001	NA	1	0	3.55	1	246.256135067	246.340203889	"9"	13903.070549141	13901.01658537	1.5	0.1
0.01	1	0.00413463800032332	1	106	262.369680260001	NA	1	0	3.55	1	246.573378625	246.577513263001	"9"	13903.070549141	13901.01658537	1.5	0.1
0.01	1	0.0448524929997802	1	106	262.369680260001	NA	1	0	3.55	1	246.807170202001	246.852022695	"9"	13903.070549141	13901.01658537	1.5	0.1
0.01	1	0.0512926419996802	1	106	262.369680260001	NA	1	0	3.55	1	247.074188765	247.125481407	"9"	13903.070549141	13901.01658537	1.5	0.1
0.01	1	0.0464367610002228	1	106	262.369680260001	NA	1	0	3.55	1	247.35798522	247.404421981	"9"	13903.070549141	13901.01658537	1.5	0.1
0.01	1	0.0592962070004432	1	106	262.369680260001	NA	1	0	3.55	1	247.64198583	247.701282037	"9"	13903.070549141	13901.01658537	1.5	0.1
0.01	1	0.0702698080003756	1	106	262.369680260001	NA	1	0	3.55	1	247.925593492	247.995863300001	"9"	13903.070549141	13901.01658537	1.5	0.1
0.01	1	0.0498984229998314	1	106	262.369680260001	NA	1	0	3.55	1	248.22616577	248.276064193	"9"	13903.070549141	13901.01658537	1.5	0.1
0.01	1	0.0478287780006212	1	106	262.369680260001	NA	1	0	3.55	1	248.510069726999	248.557898505	"9"	13903.070549141	13901.01658537	1.5	0.1
0.01	1	0.0272246990007261	1	106	262.369680260001	NA	1	0	3.55	1	248.793827461999	248.821052161	"9"	13903.070549141	13901.01658537	1.5	0.1
0.01	1	0.136155923000842	1	106	262.369680260001	NA	1	0	3.55	1	249.044189341999	249.180345265	"9"	13903.070549141	13901.01658537	1.5	0.1
0.01	1	0.0893333940002776	1	106	262.369680260001	NA	1	0	3.55	1	249.411393936	249.50072733	"9"	13903.070549141	13901.01658537	1.5	0.1
0.01	1	0.0758936210004322	1	106	262.369680260001	NA	1	0	3.55	1	249.728743359999	249.804636981	"9"	13903.070549141	13901.01658537	1.5	0.1
0.01	1	0.0707205710004928	1	106	262.369680260001	NA	1	0	3.55	1	250.029210491999	250.099931063	"9"	13903.070549141	13901.01658537	1.5	0.1
0.01	1	0.026567894999971	1	106	262.369680260001	NA	1	0	3.55	1	250.329741107	250.356309002	"9"	13903.070549141	13901.01658537	1.5	0.1
0.01	1	0.040576906001661	1	106	262.369680260001	NA	1	0	3.55	1	250.596796968999	250.637373875001	"9"	13903.070549141	13901.01658537	1.5	0.1
0.01	1	0.00761688300008245	1	106	262.369680260001	NA	1	0	3.55	1	250.863981532	250.871598415	"9"	13903.070549141	13901.01658537	1.5	0.1
0.01	1	0.0271918550006376	1	106	262.369680260001	NA	1	0	3.55	1	251.097634281999	251.124826137	"9"	13903.070549141	13901.01658537	1.5	0.1
0.01	1	0.0325707130014052	1	106	262.369680260001	NA	1	0	3.55	1	251.348140599999	251.380711313001	"9"	13903.070549141	13901.01658537	1.5	0.1
0.01	1	0.0219067800007906	1	106	262.369680260001	NA	1	0	3.55	1	251.615266215	251.637172995001	"9"	13903.070549141	13901.01658537	1.5	0.1
0.01	1	0.0599067820003256	1	106	262.369680260001	NA	1	0	3.55	1	251.865690619999	251.925597402	"9"	13903.070549141	13901.01658537	1.5	0.1
0.01	1	0.0468513239993626	1	106	262.369680260001	NA	1	0	3.55	1	252.14943718	252.196288503999	"9"	13903.070549141	13901.01658537	1.5	0.1
0.01	1	0.0282689180003217	1	106	262.369680260001	NA	1	0	3.55	1	252.433317395	252.461586313	"9"	13903.070549141	13901.01658537	1.5	0.1
0.01	1	0.0409842549997848	1	106	262.369680260001	NA	1	0	3.55	1	252.683639867	252.724624122	"9"	13903.070549141	13901.01658537	1.5	0.1
0.01	1	0.0311516480014689	1	106	262.369680260001	NA	1	0	3.55	1	252.950723939999	252.981875588001	"9"	13903.070549141	13901.01658537	1.5	0.1
0.01	1	0.0185044929985452	1	106	262.369680260001	NA	1	0	3.55	1	253.217882090001	253.236386582999	"9"	13903.070549141	13901.01658537	1.5	0.1
0.01	1	0.039440555998226	1	106	262.369680260001	NA	1	0	3.55	1	253.468354320001	253.507794875999	"9"	13903.070549141	13901.01658537	1.5	0.1
0.01	1	0.0287930440008495	1	106	262.369680260001	NA	1	0	3.55	1	253.735485075	253.764278119001	"9"	13903.070549141	13901.01658537	1.5	0.1
0.01	1	0.0179121340006532	1	106	262.369680260001	NA	1	0	3.55	1	254.002585926999	254.020498061	"9"	13903.070549141	13901.01658537	1.5	0.1
0.01	1	0.0325240050005959	1	106	262.369680260001	NA	1	0	3.55	1	254.25289602	254.285420025	"9"	13903.070549141	13901.01658537	1.5	0.1
0.01	1	0.0365049800002453	1	106	262.369680260001	NA	1	0	3.55	1	254.52013544	254.55664042	"9"	13903.070549141	13901.01658537	1.5	0.1
0.01	1	0.00995456199962064	1	106	262.369680260001	NA	1	0	3.55	1	254.787190707	254.797145269	"9"	13903.070549141	13901.01658537	1.5	0.1
0.01	1	0.0794533150001371	1	106	262.369680260001	NA	1	0	3.55	1	255.020957985	255.1004113	"9"	13903.070549141	13901.01658537	1.5	0.1
0.01	1	0.00223657300011837	1	106	262.369680260001	NA	1	0	3.55	1	255.338114742	255.340351315001	"9"	13903.070549141	13901.01658537	1.5	0.1
0.01	1	0.00239309300013701	1	106	262.369680260001	NA	1	0	3.55	1	255.571854059001	255.574247152001	"9"	13903.070549141	13901.01658537	1.5	0.1
0.01	1	0.0303462550000404	1	106	262.369680260001	NA	1	0	3.55	1	255.805621604999	255.835967859999	"9"	13903.070549141	13901.01658537	1.5	0.1
0.01	1	0.0276675519999117	1	106	262.369680260001	NA	1	0	3.55	1	256.072663251	256.100330802999	"9"	13903.070549141	13901.01658537	1.5	0.1
0.01	1	0.016518119000466	1	106	262.369680260001	NA	1	0	3.55	1	256.33985463	256.356372749	"9"	13903.070549141	13901.01658537	1.5	0.1
0.01	1	0.00861750700096309	1	106	262.369680260001	NA	1	0	3.55	1	256.590348149999	256.598965657	"9"	13903.070549141	13901.01658537	1.5	0.1
0.01	1	0.0122801249999611	1	106	262.369680260001	NA	1	0	3.55	1	256.823943519999	256.836223644999	"9"	13903.070549141	13901.01658537	1.5	0.1
0.01	1	0.0420588289998705	1	106	262.369680260001	NA	1	0	3.55	1	257.074365207	257.116424035999	"9"	13903.070549141	13901.01658537	1.5	0.1
0.01	1	0.00754296199920645	1	106	262.369680260001	NA	1	0	3.55	1	257.341474285	257.349017246999	"9"	13903.070549141	13901.01658537	1.5	0.1
0.01	1	0.0306789700007357	1	106	262.369680260001	NA	1	0	3.55	1	257.57523719	257.605916160001	"9"	13903.070549141	13901.01658537	1.5	0.1
0.01	1	0.00971176300117804	1	106	262.369680260001	NA	1	0	3.55	1	257.842296587	257.852008350001	"9"	13903.070549141	13901.01658537	1.5	0.1
0.01	1	0.0247115659985866	1	106	262.369680260001	NA	1	0	3.55	1	258.076123037001	258.100834602999	"9"	13903.070549141	13901.01658537	1.5	0.1
0.01	1	0.00758465000035358	1	106	262.369680260001	NA	1	0	3.55	1	258.326447587	258.334032237	"9"	13903.070549141	13901.01658537	1.5	0.1
0.01	1	0.0124697609990108	1	106	262.369680260001	NA	1	0	3.55	1	258.560248247	258.572718007999	"9"	13903.070549141	13901.01658537	1.5	0.1
0.01	1	0.0190378420011257	1	106	262.369680260001	NA	1	0	3.55	1	258.810643544999	258.829681387	"9"	13903.070549141	13901.01658537	1.5	0.1
0.01	1	0.00405451900041953	1	106	262.369680260001	NA	1	0	3.55	1	259.061055861999	259.065110381	"9"	13903.070549141	13901.01658537	1.5	0.1
0.01	1	0.0150402929994016	1	106	262.369680260001	NA	1	0	3.55	1	259.294799060001	259.309839353	"9"	13903.070549141	13901.01658537	1.5	0.1
0.01	1	0.0123901890001434	1	106	262.369680260001	NA	1	0	3.55	1	259.545214532	259.557604721	"9"	13903.070549141	13901.01658537	1.5	0.1
0.01	1	0.0265037810004287	1	106	262.369680260001	NA	1	0	3.55	1	259.79556823	259.822072011	"9"	13903.070549141	13901.01658537	1.5	0.1
0.01	1	0.0312005989999307	1	106	262.369680260001	NA	1	0	3.55	1	260.046137047	260.077337646	"9"	13903.070549141	13901.01658537	1.5	0.1
0.01	1	0.0365869770012068	1	106	262.369680260001	NA	1	0	3.55	1	260.313202159999	260.349789137001	"9"	13903.070549141	13901.01658537	1.5	0.1
0.01	1	0.00214731899905019	1	106	262.369680260001	NA	1	0	3.55	1	260.580299953001	260.582447272	"9"	13903.070549141	13901.01658537	1.5	0.1
0.01	1	0.00366841200047929	1	106	262.369680260001	NA	1	0	3.55	1	260.813976771	260.817645183	"9"	13903.070549141	13901.01658537	1.5	0.1
0.01	1	0.00241395900047792	1	106	262.369680260001	NA	1	0	3.55	1	261.047683762999	261.050097722	"9"	13903.070549141	13901.01658537	1.5	0.1
0.01	1	0.00322790300015185	1	106	262.369680260001	NA	1	0	3.55	1	261.281434671	261.284662574	"9"	13903.070549141	13901.01658537	1.5	0.1
0.01	1	0.00404143500054488	1	106	262.369680260001	NA	1	0	3.55	1	261.51528095	261.519322385	"9"	13903.070549141	13901.01658537	1.5	0.1
0.01	1	0.0170656890004466	1	106	262.369680260001	NA	1	0	3.55	1	261.748855804999	261.765921493999	"9"	13903.070549141	13901.01658537	1.5	0.1
0.01	1	0.0209909120003431	1	106	262.369680260001	NA	1	0	3.55	1	261.999415369999	262.020406281999	"9"	13903.070549141	13901.01658537	1.5	0.1
0.01	1	0.00312668900005519	1	106	262.369680260001	NA	1	0	3.55	1	262.249693173	262.252819862	"9"	13903.070549141	13901.01658537	1.5	0.1
0.01	1	0.857753726999363	NA	21	NA	265.279346251	0	0	3.55	1	264.420032475	265.277786201999	"10"	13903.070549141	13901.01658537	1.5	0.1
0.01	1	0.494823816999997	1	19	272.686975336999	NA	1	0	3.55	1	267.324937560001	267.819761377001	"11"	13903.070549141	13901.01658537	1.5	0.1
0.01	1	0.00427078000029724	1	19	272.686975336999	NA	1	0	3.55	1	268.059469076999	268.063739857	"11"	13903.070549141	13901.01658537	1.5	0.1
0.01	1	0.103495612000188	1	19	272.686975336999	NA	1	0	3.55	1	268.293230179999	268.396725791999	"11"	13903.070549141	13901.01658537	1.5	0.1
0.01	1	0.00233493899941095	1	19	272.686975336999	NA	1	0	3.55	1	268.627258742001	268.629593681	"11"	13903.070549141	13901.01658537	1.5	0.1
0.01	1	0.00372153399985109	1	19	272.686975336999	NA	1	0	3.55	1	268.860914157	268.864635690999	"11"	13903.070549141	13901.01658537	1.5	0.1
0.01	1	0.00489221200041356	1	19	272.686975336999	NA	1	0	3.55	1	269.09470394	269.099596152	"11"	13903.070549141	13901.01658537	1.5	0.1
0.01	1	0.109178344999236	1	19	272.686975336999	NA	1	0	3.55	1	269.328359658	269.437538003	"11"	13903.070549141	13901.01658537	1.5	0.1
0.01	1	0.00231492400052957	1	19	272.686975336999	NA	1	0	3.55	1	269.662229763	269.664544687001	"11"	13903.070549141	13901.01658537	1.5	0.1
0.01	1	0.00218792899977416	1	19	272.686975336999	NA	1	0	3.55	1	269.895999136999	269.898187065999	"11"	13903.070549141	13901.01658537	1.5	0.1
0.01	1	0.114407037999626	1	19	272.686975336999	NA	1	0	3.55	1	270.129617335	270.244024373	"11"	13903.070549141	13901.01658537	1.5	0.1
0.01	1	0.00521784000011394	1	19	272.686975336999	NA	1	0	3.55	1	270.480340014999	270.485557855	"11"	13903.070549141	13901.01658537	1.5	0.1
0.01	1	0.00401921100092295	1	19	272.686975336999	NA	1	0	3.55	1	270.713940082	270.717959293001	"11"	13903.070549141	13901.01658537	1.5	0.1
0.01	1	0.113995394000085	1	19	272.686975336999	NA	1	0	3.55	1	270.94775392	271.061749314	"11"	13903.070549141	13901.01658537	1.5	0.1
0.01	1	0.00485621700136107	1	19	272.686975336999	NA	1	0	3.55	1	271.298279299999	271.303135517001	"11"	13903.070549141	13901.01658537	1.5	0.1
0.01	1	0.00351626600058808	1	19	272.686975336999	NA	1	0	3.55	1	271.532060635	271.535576901	"11"	13903.070549141	13901.01658537	1.5	0.1
0.01	1	0.110500679000324	1	19	272.686975336999	NA	1	0	3.55	1	271.76577466	271.876275339	"11"	13903.070549141	13901.01658537	1.5	0.1
0.01	1	0.00217141499888385	1	19	272.686975336999	NA	1	0	3.55	1	272.099695319001	272.101866733999	"11"	13903.070549141	13901.01658537	1.5	0.1
0.01	1	0.00215207300061593	1	19	272.686975336999	NA	1	0	3.55	1	272.333428844	272.335580917001	"11"	13903.070549141	13901.01658537	1.5	0.1
0.01	1	0.00217616100053419	1	19	272.686975336999	NA	1	0	3.55	1	272.567048473	272.569224634	"11"	13903.070549141	13901.01658537	1.5	0.1
0.01	1	0.00221608500032744	1	63	NA	290.134489693999	0	0.52	4.07	1	274.737527926	274.739744011	"12"	13903.070549141	13901.01658537	1.5	0.1
0.01	1	0.0021511550003197	1	63	NA	290.134489693999	0	0.52	4.07	1	274.971199395999	274.973350550999	"12"	13903.070549141	13901.01658537	1.5	0.1
0.01	1	0.00228150799921423	1	63	NA	290.134489693999	0	0.52	4.07	1	275.204957481001	275.207238989	"12"	13903.070549141	13901.01658537	1.5	0.1
0.01	1	0.00402409799971792	1	63	NA	290.134489693999	0	0.52	4.07	1	275.438511535	275.442535632999	"12"	13903.070549141	13901.01658537	1.5	0.1
0.01	1	0.00417491999905906	1	63	NA	290.134489693999	0	0.52	4.07	1	275.672342935	275.676517854999	"12"	13903.070549141	13901.01658537	1.5	0.1
0.01	1	0.107236458999978	1	63	NA	290.134489693999	0	0.52	4.07	1	275.906078501999	276.013314960999	"12"	13903.070549141	13901.01658537	1.5	0.1
0.01	1	0.00338501000078395	1	63	NA	290.134489693999	0	0.52	4.07	1	276.239969824999	276.243354835	"12"	13903.070549141	13901.01658537	1.5	0.1
0.01	1	0.0022858680003992	1	63	NA	290.134489693999	0	0.52	4.07	1	276.473739727	276.476025595	"12"	13903.070549141	13901.01658537	1.5	0.1
0.01	1	0.00258112499977869	1	63	NA	290.134489693999	0	0.52	4.07	1	276.707366717001	276.709947842	"12"	13903.070549141	13901.01658537	1.5	0.1
0.01	1	0.00230616500084579	1	63	NA	290.134489693999	0	0.52	4.07	1	276.941107971999	276.943414137	"12"	13903.070549141	13901.01658537	1.5	0.1
0.01	1	0.00372659300046507	1	63	NA	290.134489693999	0	0.52	4.07	1	277.174816999999	277.178543593	"12"	13903.070549141	13901.01658537	1.5	0.1
0.01	1	0.0120345949999319	1	63	NA	290.134489693999	0	0.52	4.07	1	277.408560152	277.420594747	"12"	13903.070549141	13901.01658537	1.5	0.1
0.01	1	0.0119132760009961	1	63	NA	290.134489693999	0	0.52	4.07	1	277.659171814999	277.671085091	"12"	13903.070549141	13901.01658537	1.5	0.1
0.01	1	0.0226811430002272	1	63	NA	290.134489693999	0	0.52	4.07	1	277.909437507	277.93211865	"12"	13903.070549141	13901.01658537	1.5	0.1
0.01	1	0.0127599870011181	1	63	NA	290.134489693999	0	0.52	4.07	1	278.159891064999	278.172651052	"12"	13903.070549141	13901.01658537	1.5	0.1
0.01	1	0.0431671280002774	1	63	NA	290.134489693999	0	0.52	4.07	1	278.410213691999	278.453380819999	"12"	13903.070549141	13901.01658537	1.5	0.1
0.01	1	0.0479634290004469	1	63	NA	290.134489693999	0	0.52	4.07	1	278.677370220999	278.72533365	"12"	13903.070549141	13901.01658537	1.5	0.1
0.01	1	0.0286541869991197	1	63	NA	290.134489693999	0	0.52	4.07	1	278.961212812001	278.989866999	"12"	13903.070549141	13901.01658537	1.5	0.1
0.01	1	0.0419774490001146	1	63	NA	290.134489693999	0	0.52	4.07	1	279.211602490001	279.253579939001	"12"	13903.070549141	13901.01658537	1.5	0.1
0.01	1	0.038528901999598	1	63	NA	290.134489693999	0	0.52	4.07	1	279.47871994	279.517248841999	"12"	13903.070549141	13901.01658537	1.5	0.1
0.01	1	0.114871015999597	1	63	NA	290.134489693999	0	0.52	4.07	1	279.745844383	279.860715399	"12"	13903.070549141	13901.01658537	1.5	0.1
0.01	1	0.125014111999917	1	63	NA	290.134489693999	0	0.52	4.07	1	280.096466165	280.221480277	"12"	13903.070549141	13901.01658537	1.5	0.1
0.01	1	0.0865358840001136	1	63	NA	290.134489693999	0	0.52	4.07	1	280.447043484999	280.533579368999	"12"	13903.070549141	13901.01658537	1.5	0.1
0.01	1	0.048768475999168	1	63	NA	290.134489693999	0	0.52	4.07	1	280.764156247	280.812924722999	"12"	13903.070549141	13901.01658537	1.5	0.1
0.01	1	0.0607703999994555	1	63	NA	290.134489693999	0	0.52	4.07	1	281.04801223	281.108782629999	"12"	13903.070549141	13901.01658537	1.5	0.1
0.01	1	0.0655364319991349	1	63	NA	290.134489693999	0	0.52	4.07	1	281.331843005	281.397379436999	"12"	13903.070549141	13901.01658537	1.5	0.1
0.01	1	0.029624127999341	1	63	NA	290.134489693999	0	0.52	4.07	1	281.632301931	281.661926059	"12"	13903.070549141	13901.01658537	1.5	0.1
0.01	1	0.0262506769995525	1	63	NA	290.134489693999	0	0.52	4.07	1	281.899444494	281.925695170999	"12"	13903.070549141	13901.01658537	1.5	0.1
0.01	1	0.0631215590001375	1	63	NA	290.134489693999	0	0.52	4.07	1	282.149951994999	282.213073553999	"12"	13903.070549141	13901.01658537	1.5	0.1
0.01	1	0.0586350520006818	1	63	NA	290.134489693999	0	0.52	4.07	1	282.450405435	282.509040487001	"12"	13903.070549141	13901.01658537	1.5	0.1
0.01	1	0.0934398389999842	1	63	NA	290.134489693999	0	0.52	4.07	1	282.734271449001	282.827711288001	"12"	13903.070549141	13901.01658537	1.5	0.1
0.01	1	0.0565054950002377	1	63	NA	290.134489693999	0	0.52	4.07	1	283.051397724999	283.10790322	"12"	13903.070549141	13901.01658537	1.5	0.1
0.01	1	0.0698041670002567	1	63	NA	290.134489693999	0	0.52	4.07	1	283.33525387	283.405058037	"12"	13903.070549141	13901.01658537	1.5	0.1
0.01	1	0.0324896410002111	1	63	NA	290.134489693999	0	0.52	4.07	1	283.635797909999	283.668287551	"12"	13903.070549141	13901.01658537	1.5	0.1
0.01	1	0.0701857580006617	1	63	NA	290.134489693999	0	0.52	4.07	1	283.902837784999	283.973023543	"12"	13903.070549141	13901.01658537	1.5	0.1
0.01	1	0.121589798998684	1	63	NA	290.134489693999	0	0.52	4.07	1	284.203440515001	284.325030313999	"12"	13903.070549141	13901.01658537	1.5	0.1
0.01	1	0.0985844299993914	1	63	NA	290.134489693999	0	0.52	4.07	1	284.55397483	284.652559259999	"12"	13903.070549141	13901.01658537	1.5	0.1
0.01	1	0.0844740019983874	1	63	NA	290.134489693999	0	0.52	4.07	1	284.887898237001	284.972372238999	"12"	13903.070549141	13901.01658537	1.5	0.1
0.01	1	0.0727037930009828	1	63	NA	290.134489693999	0	0.52	4.07	1	285.205084114999	285.277787908	"12"	13903.070549141	13901.01658537	1.5	0.1
0.01	1	0.0836148090002098	1	63	NA	290.134489693999	0	0.52	4.07	1	285.505502742	285.589117551001	"12"	13903.070549141	13901.01658537	1.5	0.1
0.01	1	0.0784211530008179	1	63	NA	290.134489693999	0	0.52	4.07	1	285.82280115	285.901222303	"12"	13903.070549141	13901.01658537	1.5	0.1
0.01	1	0.0569069900011527	1	63	NA	290.134489693999	0	0.52	4.07	1	286.123204834999	286.180111825	"12"	13903.070549141	13901.01658537	1.5	0.1
0.01	1	0.148829596000724	1	63	NA	290.134489693999	0	0.52	4.07	1	286.407003902999	286.555833499	"12"	13903.070549141	13901.01658537	1.5	0.1
0.01	1	0.037478509999346	1	63	NA	290.134489693999	0	0.52	4.07	1	286.791070055	286.828548564999	"12"	13903.070549141	13901.01658537	1.5	0.1
0.01	1	0.0817332949991396	1	63	NA	290.134489693999	0	0.52	4.07	1	287.058185172	287.139918466999	"12"	13903.070549141	13901.01658537	1.5	0.1
0.01	1	0.0452892700013763	1	63	NA	290.134489693999	0	0.52	4.07	1	287.375392219999	287.420681490001	"12"	13903.070549141	13901.01658537	1.5	0.1
0.01	1	0.0664046949987096	1	63	NA	290.134489693999	0	0.52	4.07	1	287.642384872001	287.708789566999	"12"	13903.070549141	13901.01658537	1.5	0.1
0.01	1	0.062191848999646	1	63	NA	290.134489693999	0	0.52	4.07	1	287.94293573	288.005127578999	"12"	13903.070549141	13901.01658537	1.5	0.1
0.01	1	0.0258419000001595	1	63	NA	290.134489693999	0	0.52	4.07	1	288.243500811001	288.269342711001	"12"	13903.070549141	13901.01658537	1.5	0.1
0.01	1	0.054785054999229	1	63	NA	290.134489693999	0	0.52	4.07	1	288.49382376	288.548608814999	"12"	13903.070549141	13901.01658537	1.5	0.1
0.01	1	0.107540934999633	1	63	NA	290.134489693999	0	0.52	4.07	1	288.777713562	288.885254497	"12"	13903.070549141	13901.01658537	1.5	0.1
0.01	1	0.0857627030000003	1	63	NA	290.134489693999	0	0.52	4.07	1	289.111577235	289.197339938	"12"	13903.070549141	13901.01658537	1.5	0.1
0.01	1	0.704005867000888	2	63	NA	290.134489693999	0	0.52	4.07	1	289.428918455	290.132924322001	"12"	13903.070549141	13901.01658537	1.5	0.1
0.01	1	0.00495190999936312	1	54	305.408716391999	NA	1	0	4.07	1	292.18342727	292.188379179999	"13"	13903.070549141	13901.01658537	1.5	0.1
