"payoff.level"	"balloon"	"rt"	"resp"	"explode.trial"	"explode.time"	"finish.time"	"exploded"	"trial.total"	"cumulative.total"	"finished"	"trial.start"	"trial.end"	"trial.num"	"secs"	"start.time"	"iti"	"isi"
0.01	1	1.98891696300416	1	64	67.1896155640061	NA	1	0	0	1	0.00727381400065497	1.99619077700481	"1"	47581.830211662	47579.392339051	1.5	0.1
0.01	1	0.93015747499885	1	64	67.1896155640061	NA	1	0	0	1	2.36113252900395	3.2912900040028	"1"	47581.830211662	47579.392339051	1.5	0.1
0.01	1	0.706552527000895	1	64	67.1896155640061	NA	1	0	0	1	3.52977762900264	4.23633015600353	"1"	47581.830211662	47579.392339051	1.5	0.1
0.01	1	0.475911993002228	1	64	67.1896155640061	NA	1	0	0	1	4.46459158200014	4.94050357500237	"1"	47581.830211662	47579.392339051	1.5	0.1
0.01	1	2.53375732399581	1	64	67.1896155640061	NA	1	0	0	1	5.16587062000326	7.69962794399908	"1"	47581.830211662	47579.392339051	1.5	0.1
0.01	1	0.650734135000675	1	64	67.1896155640061	NA	1	0	0	1	7.93715735099977	8.58789148600044	"1"	47581.830211662	47579.392339051	1.5	0.1
0.01	1	0.662471618998097	1	64	67.1896155640061	NA	1	0	0	1	8.8219918820032	9.4844635010013	"1"	47581.830211662	47579.392339051	1.5	0.1
0.01	1	0.576169166997715	1	64	67.1896155640061	NA	1	0	0	1	9.7068710090025	10.2830401760002	"1"	47581.830211662	47579.392339051	1.5	0.1
0.01	1	0.600209778000135	1	64	67.1896155640061	NA	1	0	0	1	10.508093784003	11.1083035620031	"1"	47581.830211662	47579.392339051	1.5	0.1
0.01	1	0.493281882001611	1	64	67.1896155640061	NA	1	0	0	1	11.3428055280019	11.8360874100035	"1"	47581.830211662	47579.392339051	1.5	0.1
0.01	1	0.5263274070021	1	64	67.1896155640061	NA	1	0	0	1	12.0774400320006	12.6037674390027	"1"	47581.830211662	47579.392339051	1.5	0.1
0.01	1	0.583640659002413	1	64	67.1896155640061	NA	1	0	0	1	12.8286497820009	13.4122904410033	"1"	47581.830211662	47579.392339051	1.5	0.1
0.01	1	0.565842347998114	1	64	67.1896155640061	NA	1	0	0	1	13.6467233290023	14.2125656770004	"1"	47581.830211662	47579.392339051	1.5	0.1
0.01	1	0.500121256001876	1	64	67.1896155640061	NA	1	0	0	1	14.4480822719997	14.9482035280016	"1"	47581.830211662	47579.392339051	1.5	0.1
0.01	1	0.541668496000057	1	64	67.1896155640061	NA	1	0	0	1	15.1826108740061	15.7242793700061	"1"	47581.830211662	47579.392339051	1.5	0.1
0.01	1	0.509241170002497	1	64	67.1896155640061	NA	1	0	0	1	15.9505307799991	16.4597719500016	"1"	47581.830211662	47579.392339051	1.5	0.1
0.01	1	0.510874198000238	1	64	67.1896155640061	NA	1	0	0	1	16.6851825289996	17.1960567269998	"1"	47581.830211662	47579.392339051	1.5	0.1
0.01	1	0.536796086002141	1	64	67.1896155640061	NA	1	0	0	1	17.4197327729999	17.956528859002	"1"	47581.830211662	47579.392339051	1.5	0.1
0.01	1	0.49616439500096	1	64	67.1896155640061	NA	1	0	0	1	18.1876947580022	18.6838591530031	"1"	47581.830211662	47579.392339051	1.5	0.1
0.01	1	0.47388539500389	1	64	67.1896155640061	NA	1	0	0	1	18.9055757640017	19.3794611590056	"1"	47581.830211662	47579.392339051	1.5	0.1
0.01	1	1.02064098999836	1	64	67.1896155640061	NA	1	0	0	1	19.6067131920063	20.6273541820046	"1"	47581.830211662	47579.392339051	1.5	0.1
0.01	1	0.616190843000368	1	64	67.1896155640061	NA	1	0	0	1	20.8589419609998	21.4751328040002	"1"	47581.830211662	47579.392339051	1.5	0.1
0.01	1	0.549360168995918	1	64	67.1896155640061	NA	1	0	0	1	21.7102890700044	22.2596492390003	"1"	47581.830211662	47579.392339051	1.5	0.1
0.01	1	0.461446201996296	1	64	67.1896155640061	NA	1	0	0	1	22.4949439590055	22.9563901610018	"1"	47581.830211662	47579.392339051	1.5	0.1
0.01	1	0.440600227004325	1	64	67.1896155640061	NA	1	0	0	1	23.1793856270015	23.6199858540058	"1"	47581.830211662	47579.392339051	1.5	0.1
0.01	1	3.14031110899668	1	64	67.1896155640061	NA	1	0	0	1	23.8472512780063	26.987562387003	"1"	47581.830211662	47579.392339051	1.5	0.1
0.01	1	0.783180844002345	1	64	67.1896155640061	NA	1	0	0	1	27.2195694399998	28.0027502840021	"1"	47581.830211662	47579.392339051	1.5	0.1
0.01	1	0.636921513993002	1	64	67.1896155640061	NA	1	0	0	1	28.2379983320061	28.8749198459991	"1"	47581.830211662	47579.392339051	1.5	0.1
0.01	1	0.633962814994447	1	64	67.1896155640061	NA	1	0	0	1	29.1060674040054	29.7400302189999	"1"	47581.830211662	47579.392339051	1.5	0.1
0.01	1	0.68540078499791	1	64	67.1896155640061	NA	1	0	0	1	29.9742405690049	30.6596413540028	"1"	47581.830211662	47579.392339051	1.5	0.1
0.01	1	2.99073718599539	1	64	67.1896155640061	NA	1	0	0	1	30.8924029610062	33.8831401470015	"1"	47581.830211662	47579.392339051	1.5	0.1
0.01	1	0.570064193998405	1	64	67.1896155640061	NA	1	0	0	1	34.1144224790041	34.6844866730025	"1"	47581.830211662	47579.392339051	1.5	0.1
0.01	1	0.510916237995843	1	64	67.1896155640061	NA	1	0	0	1	34.9158021200055	35.4267183580014	"1"	47581.830211662	47579.392339051	1.5	0.1
0.01	1	0.536409000000276	1	64	67.1896155640061	NA	1	0	0	1	35.6504119790043	36.1868209790046	"1"	47581.830211662	47579.392339051	1.5	0.1
0.01	1	0.49762075599574	1	64	67.1896155640061	NA	1	0	0	1	36.4183316800045	36.9159524360002	"1"	47581.830211662	47579.392339051	1.5	0.1
0.01	1	1.05011901100079	1	64	67.1896155640061	NA	1	0	0	1	37.1529100789994	38.2030290900002	"1"	47581.830211662	47579.392339051	1.5	0.1
0.01	1	0.47679775999859	1	64	67.1896155640061	NA	1	0	0	1	38.4384050120061	38.9152027720047	"1"	47581.830211662	47579.392339051	1.5	0.1
0.01	1	0.504143415004364	1	64	67.1896155640061	NA	1	0	0	1	39.1396201509997	39.6437635660041	"1"	47581.830211662	47579.392339051	1.5	0.1
0.01	1	0.489582422997046	1	64	67.1896155640061	NA	1	0	0	1	39.8742199530025	40.3638023759995	"1"	47581.830211662	47579.392339051	1.5	0.1
0.01	1	0.580064366004081	1	64	67.1896155640061	NA	1	0	0	1	40.5921146830005	41.1721790490046	"1"	47581.830211662	47579.392339051	1.5	0.1
0.01	1	1.48055871799443	1	64	67.1896155640061	NA	1	0	0	1	41.4101400870059	42.8906988050003	"1"	47581.830211662	47579.392339051	1.5	0.1
0.01	1	0.563434167001105	1	64	67.1896155640061	NA	1	0	0	1	43.1129532190025	43.6763873860036	"1"	47581.830211662	47579.392339051	1.5	0.1
0.01	1	0.568538019993866	1	64	67.1896155640061	NA	1	0	0	1	43.9142699870063	44.4828080070001	"1"	47581.830211662	47579.392339051	1.5	0.1
0.01	1	0.488239795995469	1	64	67.1896155640061	NA	1	0	0	1	44.7156843820048	45.2039241780003	"1"	47581.830211662	47579.392339051	1.5	0.1
0.01	1	0.569512462003331	1	64	67.1896155640061	NA	1	0	0	1	45.4335521989997	46.003064661003	"1"	47581.830211662	47579.392339051	1.5	0.1
0.01	1	0.504651175004255	1	64	67.1896155640061	NA	1	0	0	1	46.2350417859998	46.739692961004	"1"	47581.830211662	47579.392339051	1.5	0.1
0.01	1	0.539249417000974	1	64	67.1896155640061	NA	1	0	0	1	46.969414182	47.508663599001	"1"	47581.830211662	47579.392339051	1.5	0.1
0.01	1	0.513306701002875	1	64	67.1896155640061	NA	1	0	0	1	47.7374882270014	48.2507949280043	"1"	47581.830211662	47579.392339051	1.5	0.1
0.01	1	0.506981684993661	1	64	67.1896155640061	NA	1	0	0	1	48.4888661030054	48.9958477879991	"1"	47581.830211662	47579.392339051	1.5	0.1
0.01	1	0.516071842001111	1	64	67.1896155640061	NA	1	0	0	1	49.2231955730022	49.7392674150033	"1"	47581.830211662	47579.392339051	1.5	0.1
0.01	1	5.09244565600238	1	64	67.1896155640061	NA	1	0	0	1	49.9746658590011	55.0671115150035	"1"	47581.830211662	47579.392339051	1.5	0.1
0.01	1	0.639871656996547	1	64	67.1896155640061	NA	1	0	0	1	55.3001767540045	55.940048411001	"1"	47581.830211662	47579.392339051	1.5	0.1
0.01	1	0.588969748001546	1	64	67.1896155640061	NA	1	0	0	1	56.1682886519993	56.7572584000009	"1"	47581.830211662	47579.392339051	1.5	0.1
0.01	1	0.553635905998817	1	64	67.1896155640061	NA	1	0	0	1	56.9863173520062	57.539953258005	"1"	47581.830211662	47579.392339051	1.5	0.1
0.01	1	0.585243025998352	1	64	67.1896155640061	NA	1	0	0	1	57.7709801430028	58.3562231690012	"1"	47581.830211662	47579.392339051	1.5	0.1
0.01	1	0.607137831997534	1	64	67.1896155640061	NA	1	0	0	1	58.5890736370056	59.1962114690032	"1"	47581.830211662	47579.392339051	1.5	0.1
0.01	1	0.628304675003164	1	64	67.1896155640061	NA	1	0	0	1	59.4237369629991	60.0520416380023	"1"	47581.830211662	47579.392339051	1.5	0.1
0.01	1	0.560332085995469	1	64	67.1896155640061	NA	1	0	0	1	60.2753221860039	60.8356542719994	"1"	47581.830211662	47579.392339051	1.5	0.1
0.01	1	0.576017902996682	1	64	67.1896155640061	NA	1	0	0	1	61.059937308004	61.6359552110007	"1"	47581.830211662	47579.392339051	1.5	0.1
0.01	1	0.454253721996793	1	64	67.1896155640061	NA	1	0	0	1	61.8612400660058	62.3154937880026	"1"	47581.830211662	47579.392339051	1.5	0.1
0.01	1	2.37064078099502	1	64	67.1896155640061	NA	1	0	0	1	62.5456605830041	64.9163013639991	"1"	47581.830211662	47579.392339051	1.5	0.1
0.01	1	0.485200028997497	1	64	67.1896155640061	NA	1	0	0	1	65.1501608090039	65.6353608380014	"1"	47581.830211662	47579.392339051	1.5	0.1
0.01	1	0.526871581998421	1	64	67.1896155640061	NA	1	0	0	1	65.8679704240058	66.3948420060042	"1"	47581.830211662	47579.392339051	1.5	0.1
0.01	1	0.45558421700116	1	64	67.1896155640061	NA	1	0	0	1	66.6192117390019	67.0747959560031	"1"	47581.830211662	47579.392339051	1.5	0.1
0.01	1	0.496868777001509	1	102	NA	84.2293317020012	0	0.3	0.3	1	69.2402841790026	69.7371529560041	"2"	47581.830211662	47579.392339051	1.5	0.1
0.01	1	0.48566152699641	1	102	NA	84.2293317020012	0	0.3	0.3	1	69.9747859120034	70.4604474389998	"2"	47581.830211662	47579.392339051	1.5	0.1
0.01	1	0.358507964003365	1	102	NA	84.2293317020012	0	0.3	0.3	1	70.6926839660009	71.0511919300043	"2"	47581.830211662	47579.392339051	1.5	0.1
0.01	1	0.294953343996895	1	102	NA	84.2293317020012	0	0.3	0.3	1	71.2770347540063	71.5719880980032	"2"	47581.830211662	47579.392339051	1.5	0.1
0.01	1	0.249241680001433	1	102	NA	84.2293317020012	0	0.3	0.3	1	71.7947633860022	72.0440050660036	"2"	47581.830211662	47579.392339051	1.5	0.1
0.01	1	0.244030269997893	1	102	NA	84.2293317020012	0	0.3	0.3	1	72.2788612440054	72.5228915140033	"2"	47581.830211662	47579.392339051	1.5	0.1
0.01	1	0.225277106001158	1	102	NA	84.2293317020012	0	0.3	0.3	1	72.7461431010015	72.9714202070027	"2"	47581.830211662	47579.392339051	1.5	0.1
0.01	1	0.239665551998769	1	102	NA	84.2293317020012	0	0.3	0.3	1	73.1969177010033	73.436583253002	"2"	47581.830211662	47579.392339051	1.5	0.1
0.01	1	0.235644218002562	1	102	NA	84.2293317020012	0	0.3	0.3	1	73.6645562920021	73.9002005100047	"2"	47581.830211662	47579.392339051	1.5	0.1
0.01	1	0.231221205998736	1	102	NA	84.2293317020012	0	0.3	0.3	1	74.1318552660014	74.3630764720001	"2"	47581.830211662	47579.392339051	1.5	0.1
0.01	1	0.236077295005089	1	102	NA	84.2293317020012	0	0.3	0.3	1	74.5993843169999	74.835461612005	"2"	47581.830211662	47579.392339051	1.5	0.1
0.01	1	0.19390339399979	1	102	NA	84.2293317020012	0	0.3	0.3	1	75.066736163004	75.2606395570037	"2"	47581.830211662	47579.392339051	1.5	0.1
0.01	1	0.216223783005262	1	102	NA	84.2293317020012	0	0.3	0.3	1	75.4841569470009	75.7003807300061	"2"	47581.830211662	47579.392339051	1.5	0.1
0.01	1	0.197529639001004	1	102	NA	84.2293317020012	0	0.3	0.3	1	75.9349183650047	76.1324480040057	"2"	47581.830211662	47579.392339051	1.5	0.1
0.01	1	0.186369287999696	1	102	NA	84.2293317020012	0	0.3	0.3	1	76.3690422220025	76.5554115100022	"2"	47581.830211662	47579.392339051	1.5	0.1
0.01	1	0.273759623996739	1	102	NA	84.2293317020012	0	0.3	0.3	1	76.7863088850063	77.060068509003	"2"	47581.830211662	47579.392339051	1.5	0.1
0.01	1	0.236008428000787	1	102	NA	84.2293317020012	0	0.3	0.3	1	77.287105772004	77.5231142000048	"2"	47581.830211662	47579.392339051	1.5	0.1
0.01	1	0.209121177002089	1	102	NA	84.2293317020012	0	0.3	0.3	1	77.754637115002	77.9637582920041	"2"	47581.830211662	47579.392339051	1.5	0.1
0.01	1	0.263102740995237	1	102	NA	84.2293317020012	0	0.3	0.3	1	78.1886496420047	78.451752383	"2"	47581.830211662	47579.392339051	1.5	0.1
0.01	1	0.234992812998826	1	102	NA	84.2293317020012	0	0.3	0.3	1	78.6895312300039	78.9245240430027	"2"	47581.830211662	47579.392339051	1.5	0.1
0.01	1	0.21410881599877	1	102	NA	84.2293317020012	0	0.3	0.3	1	79.1569503170031	79.3710591330018	"2"	47581.830211662	47579.392339051	1.5	0.1
0.01	1	0.235536304004199	1	102	NA	84.2293317020012	0	0.3	0.3	1	79.6077671259991	79.8433034300033	"2"	47581.830211662	47579.392339051	1.5	0.1
0.01	1	0.26491539899871	1	102	NA	84.2293317020012	0	0.3	0.3	1	80.0751487330053	80.340064132004	"2"	47581.830211662	47579.392339051	1.5	0.1
0.01	1	0.275851333004539	1	102	NA	84.2293317020012	0	0.3	0.3	1	80.5760639159998	80.8519152490044	"2"	47581.830211662	47579.392339051	1.5	0.1
0.01	1	0.214505430005374	1	102	NA	84.2293317020012	0	0.3	0.3	1	81.0769229889993	81.2914284190047	"2"	47581.830211662	47579.392339051	1.5	0.1
0.01	1	0.332641072003753	1	102	NA	84.2293317020012	0	0.3	0.3	1	81.5276170500001	81.8602581220039	"2"	47581.830211662	47579.392339051	1.5	0.1
0.01	1	0.22973203699803	1	102	NA	84.2293317020012	0	0.3	0.3	1	82.0951928960058	82.3249249330038	"2"	47581.830211662	47579.392339051	1.5	0.1
0.01	1	0.264384959999006	1	102	NA	84.2293317020012	0	0.3	0.3	1	82.5628382990035	82.8272232590025	"2"	47581.830211662	47579.392339051	1.5	0.1
0.01	1	0.196065390999138	1	102	NA	84.2293317020012	0	0.3	0.3	1	83.063540384006	83.2596057750052	"2"	47581.830211662	47579.392339051	1.5	0.1
0.01	1	0.235028593000607	1	102	NA	84.2293317020012	0	0.3	0.3	1	83.4976205720013	83.7326491650019	"2"	47581.830211662	47579.392339051	1.5	0.1
0.01	1	0.262765478997608	2	102	NA	84.2293317020012	0	0.3	0.3	1	83.9650128100038	84.2277782890014	"2"	47581.830211662	47579.392339051	1.5	0.1
0.01	1	0.248063535000256	1	97	NA	120.148503938006	0	0.7	1	1	86.268917348003	86.5169808830033	"3"	47581.830211662	47579.392339051	1.5	0.1
0.01	1	0.115513359996839	1	97	NA	120.148503938006	0	0.7	1	1	86.7531584320022	86.8686717919991	"3"	47581.830211662	47579.392339051	1.5	0.1
0.01	1	0.107201416998578	1	97	NA	120.148503938006	0	0.7	1	1	87.1036133020025	87.2108147190011	"3"	47581.830211662	47579.392339051	1.5	0.1
0.01	1	0.190190920002351	1	97	NA	120.148503938006	0	0.7	1	1	87.4375572920035	87.6277482120058	"3"	47581.830211662	47579.392339051	1.5	0.1
0.01	1	0.148550432000775	1	97	NA	120.148503938006	0	0.7	1	1	87.8549122270051	88.0034626590059	"3"	47581.830211662	47579.392339051	1.5	0.1
0.01	1	0.34015332099807	1	97	NA	120.148503938006	0	0.7	1	1	88.238862187005	88.5790155080031	"3"	47581.830211662	47579.392339051	1.5	0.1
0.01	1	0.252082822000375	1	97	NA	120.148503938006	0	0.7	1	1	88.8066087480038	89.0586915700042	"3"	47581.830211662	47579.392339051	1.5	0.1
0.01	1	0.210150637001789	1	97	NA	120.148503938006	0	0.7	1	1	89.2907142050026	89.5008648420044	"3"	47581.830211662	47579.392339051	1.5	0.1
0.01	1	0.21485218199814	1	97	NA	120.148503938006	0	0.7	1	1	89.7414409840057	89.9562931660039	"3"	47581.830211662	47579.392339051	1.5	0.1
0.01	1	0.211556443005975	1	97	NA	120.148503938006	0	0.7	1	1	90.1921838859998	90.4037403290058	"3"	47581.830211662	47579.392339051	1.5	0.1
0.01	1	0.242659370996989	1	97	NA	120.148503938006	0	0.7	1	1	90.6262823710058	90.8689417420028	"3"	47581.830211662	47579.392339051	1.5	0.1
0.01	1	0.151193419005722	1	97	NA	120.148503938006	0	0.7	1	1	91.0937673049993	91.2449607240051	"3"	47581.830211662	47579.392339051	1.5	0.1
0.01	1	0.294775470996683	1	97	NA	120.148503938006	0	0.7	1	1	91.4776893490052	91.7724648200019	"3"	47581.830211662	47579.392339051	1.5	0.1
0.01	1	0.232312166001066	1	97	NA	120.148503938006	0	0.7	1	1	91.995303061005	92.227615227006	"3"	47581.830211662	47579.392339051	1.5	0.1
0.01	1	0.276828529997147	1	97	NA	120.148503938006	0	0.7	1	1	92.4626280770026	92.7394566069997	"3"	47581.830211662	47579.392339051	1.5	0.1
0.01	1	0.24030694099929	1	97	NA	120.148503938006	0	0.7	1	1	92.9801983920042	93.2205053330035	"3"	47581.830211662	47579.392339051	1.5	0.1
0.01	1	0.259130477999861	1	97	NA	120.148503938006	0	0.7	1	1	93.4477257760009	93.7068562540007	"3"	47581.830211662	47579.392339051	1.5	0.1
0.01	1	0.200658563000616	1	97	NA	120.148503938006	0	0.7	1	1	93.9318070160007	94.1324655790013	"3"	47581.830211662	47579.392339051	1.5	0.1
0.01	1	0.26949852600228	1	97	NA	120.148503938006	0	0.7	1	1	94.3659264660018	94.6354249920041	"3"	47581.830211662	47579.392339051	1.5	0.1
0.01	1	0.162764825996419	1	97	NA	120.148503938006	0	0.7	1	1	94.866835548004	95.0296003740004	"3"	47581.830211662	47579.392339051	1.5	0.1
0.01	1	0.345310062999488	1	97	NA	120.148503938006	0	0.7	1	1	95.2508600280053	95.5961700910048	"3"	47581.830211662	47579.392339051	1.5	0.1
0.01	1	0.208661452998058	1	97	NA	120.148503938006	0	0.7	1	1	95.8185321890051	96.0271936420031	"3"	47581.830211662	47579.392339051	1.5	0.1
0.01	1	0.191981311996642	1	97	NA	120.148503938006	0	0.7	1	1	96.2524509140057	96.4444322260024	"3"	47581.830211662	47579.392339051	1.5	0.1
0.01	1	0.341673953997088	1	97	NA	120.148503938006	0	0.7	1	1	96.6698352840031	97.0115092380001	"3"	47581.830211662	47579.392339051	1.5	0.1
0.01	1	0.278647173996433	1	97	NA	120.148503938006	0	0.7	1	1	97.2373906440043	97.5160378180008	"3"	47581.830211662	47579.392339051	1.5	0.1
0.01	1	0.272059061004256	1	97	NA	120.148503938006	0	0.7	1	1	97.7548470120018	98.0269060730061	"3"	47581.830211662	47579.392339051	1.5	0.1
0.01	1	0.262060009001289	1	97	NA	120.148503938006	0	0.7	1	1	98.2557950789997	98.5178550880009	"3"	47581.830211662	47579.392339051	1.5	0.1
0.01	1	0.223925926999073	1	97	NA	120.148503938006	0	0.7	1	1	98.7400045260001	98.9639304529992	"3"	47581.830211662	47579.392339051	1.5	0.1
0.01	1	0.301352079004573	1	97	NA	120.148503938006	0	0.7	1	1	99.1907836300015	99.4921357090061	"3"	47581.830211662	47579.392339051	1.5	0.1
0.01	1	0.262921765999636	1	97	NA	120.148503938006	0	0.7	1	1	99.724924744005	99.9878465100046	"3"	47581.830211662	47579.392339051	1.5	0.1
0.01	1	0.312986550998176	1	97	NA	120.148503938006	0	0.7	1	1	100.225804555004	100.538791106002	"3"	47581.830211662	47579.392339051	1.5	0.1
0.01	1	0.235517935005191	1	97	NA	120.148503938006	0	0.7	1	1	100.776761822999	101.012279758004	"3"	47581.830211662	47579.392339051	1.5	0.1
0.01	1	0.271636726996803	1	97	NA	120.148503938006	0	0.7	1	1	101.244096393006	101.515733120003	"3"	47581.830211662	47579.392339051	1.5	0.1
0.01	1	0.306751099000394	1	97	NA	120.148503938006	0	0.7	1	1	101.745038453002	102.051789552002	"3"	47581.830211662	47579.392339051	1.5	0.1
0.01	1	0.259893878996081	1	97	NA	120.148503938006	0	0.7	1	1	102.279220998003	102.539114877	"3"	47581.830211662	47579.392339051	1.5	0.1
0.01	1	0.273366084002191	1	97	NA	120.148503938006	0	0.7	1	1	102.763323420004	103.036689504006	"3"	47581.830211662	47579.392339051	1.5	0.1
0.01	1	0.283052494000003	1	97	NA	120.148503938006	0	0.7	1	1	103.264273662004	103.547326156004	"3"	47581.830211662	47579.392339051	1.5	0.1
0.01	1	0.270183089000056	1	97	NA	120.148503938006	0	0.7	1	1	103.781886124001	104.052069213001	"3"	47581.830211662	47579.392339051	1.5	0.1
0.01	1	0.0812792020005872	1	97	NA	120.148503938006	0	0.7	1	1	104.282682472003	104.363961674004	"3"	47581.830211662	47579.392339051	1.5	0.1
0.01	1	0.269631310999102	1	97	NA	120.148503938006	0	0.7	1	1	104.599752516006	104.869383827005	"3"	47581.830211662	47579.392339051	1.5	0.1
0.01	1	0.256484675999673	1	97	NA	120.148503938006	0	0.7	1	1	105.100609245004	105.357093921004	"3"	47581.830211662	47579.392339051	1.5	0.1
0.01	1	0.29184270100086	1	97	NA	120.148503938006	0	0.7	1	1	105.584821864002	105.876664565003	"3"	47581.830211662	47579.392339051	1.5	0.1
0.01	1	0.309694159004721	1	97	NA	120.148503938006	0	0.7	1	1	106.102313103002	106.412007262006	"3"	47581.830211662	47579.392339051	1.5	0.1
0.01	1	0.254956419994414	1	97	NA	120.148503938006	0	0.7	1	1	106.636602620005	106.891559039999	"3"	47581.830211662	47579.392339051	1.5	0.1
0.01	1	0.339616157005366	1	97	NA	120.148503938006	0	0.7	1	1	107.1206446	107.460260757005	"3"	47581.830211662	47579.392339051	1.5	0.1
0.01	1	0.258897009996872	1	97	NA	120.148503938006	0	0.7	1	1	107.688266809004	107.947163819001	"3"	47581.830211662	47579.392339051	1.5	0.1
0.01	1	0.263834233002854	1	97	NA	120.148503938006	0	0.7	1	1	108.172449256002	108.436283489005	"3"	47581.830211662	47579.392339051	1.5	0.1
0.01	1	0.226799131000007	1	97	NA	120.148503938006	0	0.7	1	1	108.673437179001	108.900236310001	"3"	47581.830211662	47579.392339051	1.5	0.1
0.01	1	0.287917722002021	1	97	NA	120.148503938006	0	0.7	1	1	109.124093926002	109.412011648004	"3"	47581.830211662	47579.392339051	1.5	0.1
0.01	1	0.29105686499679	1	97	NA	120.148503938006	0	0.7	1	1	109.641676942003	109.932733807	"3"	47581.830211662	47579.392339051	1.5	0.1
0.01	1	0.253372684004717	1	97	NA	120.148503938006	0	0.7	1	1	110.159184985001	110.412557669006	"3"	47581.830211662	47579.392339051	1.5	0.1
0.01	1	0.311574438994285	1	97	NA	120.148503938006	0	0.7	1	1	110.643330440005	110.954904879	"3"	47581.830211662	47579.392339051	1.5	0.1
0.01	1	0.274542022998503	1	97	NA	120.148503938006	0	0.7	1	1	111.177616079003	111.452158102002	"3"	47581.830211662	47579.392339051	1.5	0.1
0.01	1	0.253142227003991	1	97	NA	120.148503938006	0	0.7	1	1	111.678365799002	111.931508026006	"3"	47581.830211662	47579.392339051	1.5	0.1
0.01	1	0.288305417001538	1	97	NA	120.148503938006	0	0.7	1	1	112.162604522004	112.450909939005	"3"	47581.830211662	47579.392339051	1.5	0.1
0.01	1	0.339296174002811	1	97	NA	120.148503938006	0	0.7	1	1	112.680041268002	113.019337442005	"3"	47581.830211662	47579.392339051	1.5	0.1
0.01	1	0.293029849999584	1	97	NA	120.148503938006	0	0.7	1	1	113.247694239006	113.540724089005	"3"	47581.830211662	47579.392339051	1.5	0.1
0.01	1	0.199093882998568	1	97	NA	120.148503938006	0	0.7	1	1	113.765111428002	113.964205311	"3"	47581.830211662	47579.392339051	1.5	0.1
0.01	1	0.244742205999501	1	97	NA	120.148503938006	0	0.7	1	1	114.199290446006	114.444032652005	"3"	47581.830211662	47579.392339051	1.5	0.1
0.01	1	0.266048176999902	1	97	NA	120.148503938006	0	0.7	1	1	114.666689044003	114.932737221003	"3"	47581.830211662	47579.392339051	1.5	0.1
0.01	1	0.219786936999299	1	97	NA	120.148503938006	0	0.7	1	1	115.167610559001	115.387397496001	"3"	47581.830211662	47579.392339051	1.5	0.1
0.01	1	0.241799349998473	1	97	NA	120.148503938006	0	0.7	1	1	115.618335079002	115.860134429	"3"	47581.830211662	47579.392339051	1.5	0.1
0.01	1	0.238607117003994	1	97	NA	120.148503938006	0	0.7	1	1	116.085816145001	116.324423262005	"3"	47581.830211662	47579.392339051	1.5	0.1
0.01	1	0.258413110997935	1	97	NA	120.148503938006	0	0.7	1	1	116.553256055005	116.811669166003	"3"	47581.830211662	47579.392339051	1.5	0.1
0.01	1	0.286315949997515	1	97	NA	120.148503938006	0	0.7	1	1	117.037342722004	117.323658672001	"3"	47581.830211662	47579.392339051	1.5	0.1
0.01	1	0.240534910997667	1	97	NA	120.148503938006	0	0.7	1	1	117.554987874006	117.795522785003	"3"	47581.830211662	47579.392339051	1.5	0.1
0.01	1	0.228424879998784	1	97	NA	120.148503938006	0	0.7	1	1	118.022384142001	118.250809022	"3"	47581.830211662	47579.392339051	1.5	0.1
0.01	1	0.201677377997839	1	97	NA	120.148503938006	0	0.7	1	1	118.489836060005	118.691513438003	"3"	47581.830211662	47579.392339051	1.5	0.1
0.01	1	0.254959945996234	1	97	NA	120.148503938006	0	0.7	1	1	118.923869766004	119.178829712	"3"	47581.830211662	47579.392339051	1.5	0.1
0.01	1	0.243617961001291	1	97	NA	120.148503938006	0	0.7	1	1	119.408044058	119.651662019001	"3"	47581.830211662	47579.392339051	1.5	0.1
0.01	1	0.271484893994057	2	97	NA	120.148503938006	0	0.7	1	1	119.875473634005	120.146958527999	"3"	47581.830211662	47579.392339051	1.5	0.1
0.01	1	0.583521661996201	1	51	146.906827525003	NA	1	0	1	1	122.196213633004	122.779735295	"4"	47581.830211662	47579.392339051	1.5	0.1
0.01	1	0.199553464997734	1	51	146.906827525003	NA	1	0	1	1	123.014070667006	123.213624132004	"4"	47581.830211662	47579.392339051	1.5	0.1
0.01	1	0.258614049998869	1	51	146.906827525003	NA	1	0	1	1	123.448297069001	123.706911118999	"4"	47581.830211662	47579.392339051	1.5	0.1
0.01	1	0.174554462995729	1	51	146.906827525003	NA	1	0	1	1	123.932364516004	124.106918979	"4"	47581.830211662	47579.392339051	1.5	0.1
0.01	1	0.2223120369963	1	51	146.906827525003	NA	1	0	1	1	124.333005509005	124.555317546001	"4"	47581.830211662	47579.392339051	1.5	0.1
0.01	1	0.172443950003071	1	51	146.906827525003	NA	1	0	1	1	124.783752374002	124.956196324005	"4"	47581.830211662	47579.392339051	1.5	0.1
0.01	1	0.242640422002296	1	51	146.906827525003	NA	1	0	1	1	125.184376094003	125.427016516005	"4"	47581.830211662	47579.392339051	1.5	0.1
0.01	1	0.232147309005086	1	51	146.906827525003	NA	1	0	1	1	125.65201184	125.884159149005	"4"	47581.830211662	47579.392339051	1.5	0.1
0.01	1	0.213181054001325	1	51	146.906827525003	NA	1	0	1	1	126.119355970004	126.332537024005	"4"	47581.830211662	47579.392339051	1.5	0.1
0.01	1	0.187916957002017	1	51	146.906827525003	NA	1	0	1	1	126.570040812003	126.757957769005	"4"	47581.830211662	47579.392339051	1.5	0.1
0.01	1	0.20109601799777	1	51	146.906827525003	NA	1	0	1	1	126.987574041006	127.188670059004	"4"	47581.830211662	47579.392339051	1.5	0.1
0.01	1	0.190021950002119	1	51	146.906827525003	NA	1	0	1	1	127.421680632004	127.611702582006	"4"	47581.830211662	47579.392339051	1.5	0.1
0.01	1	0.205293336999603	1	51	146.906827525003	NA	1	0	1	1	127.839036484002	128.044329821001	"4"	47581.830211662	47579.392339051	1.5	0.1
0.01	1	0.210944102000212	1	51	146.906827525003	NA	1	0	1	1	128.273017703999	128.483961806	"4"	47581.830211662	47579.392339051	1.5	0.1
0.01	1	0.183823036997637	1	51	146.906827525003	NA	1	0	1	1	128.707046433003	128.89086947	"4"	47581.830211662	47579.392339051	1.5	0.1
0.01	1	0.328085855995596	1	51	146.906827525003	NA	1	0	1	1	129.124377044005	129.452462900001	"4"	47581.830211662	47579.392339051	1.5	0.1
0.01	1	0.284156870002334	1	51	146.906827525003	NA	1	0	1	1	129.675336328	129.959493198003	"4"	47581.830211662	47579.392339051	1.5	0.1
0.01	1	0.202383529001963	1	51	146.906827525003	NA	1	0	1	1	130.192854772002	130.395238301004	"4"	47581.830211662	47579.392339051	1.5	0.1
0.01	1	0.249316205001378	1	51	146.906827525003	NA	1	0	1	1	130.626977404005	130.876293609006	"4"	47581.830211662	47579.392339051	1.5	0.1
0.01	1	0.235640298000362	1	51	146.906827525003	NA	1	0	1	1	131.111159910004	131.346800208004	"4"	47581.830211662	47579.392339051	1.5	0.1
0.01	1	0.248925769003108	1	51	146.906827525003	NA	1	0	1	1	131.578650962001	131.827576731004	"4"	47581.830211662	47579.392339051	1.5	0.1
0.01	1	0.174172345999978	1	51	146.906827525003	NA	1	0	1	1	132.062694109001	132.236866455001	"4"	47581.830211662	47579.392339051	1.5	0.1
0.01	1	0.260715754004195	1	51	146.906827525003	NA	1	0	1	1	132.463405766001	132.724121520005	"4"	47581.830211662	47579.392339051	1.5	0.1
0.01	1	0.223363954995875	1	51	146.906827525003	NA	1	0	1	1	132.947425426006	133.170789381002	"4"	47581.830211662	47579.392339051	1.5	0.1
0.01	1	0.238251050999679	1	51	146.906827525003	NA	1	0	1	1	133.398295518004	133.636546569003	"4"	47581.830211662	47579.392339051	1.5	0.1
0.01	1	0.194761396000104	1	51	146.906827525003	NA	1	0	1	1	133.865770569006	134.060531965006	"4"	47581.830211662	47579.392339051	1.5	0.1
0.01	1	0.265824645000976	1	51	146.906827525003	NA	1	0	1	1	134.283012843	134.548837488001	"4"	47581.830211662	47579.392339051	1.5	0.1
0.01	1	0.308734992999234	1	51	146.906827525003	NA	1	0	1	1	134.783945436	135.092680428999	"4"	47581.830211662	47579.392339051	1.5	0.1
0.01	1	0.318245932998252	1	51	146.906827525003	NA	1	0	1	1	135.318213299004	135.636459232002	"4"	47581.830211662	47579.392339051	1.5	0.1
0.01	1	0.254471897002077	1	51	146.906827525003	NA	1	0	1	1	135.869033379	136.123505276002	"4"	47581.830211662	47579.392339051	1.5	0.1
0.01	1	0.234898535003595	1	51	146.906827525003	NA	1	0	1	1	136.353265833	136.588164368004	"4"	47581.830211662	47579.392339051	1.5	0.1
0.01	1	0.279648152994923	1	51	146.906827525003	NA	1	0	1	1	136.820721086006	137.100369239	"4"	47581.830211662	47579.392339051	1.5	0.1
0.01	1	0.235726642000373	1	51	146.906827525003	NA	1	0	1	1	137.321588635001	137.557315277001	"4"	47581.830211662	47579.392339051	1.5	0.1
0.01	1	0.191088624000258	1	51	146.906827525003	NA	1	0	1	1	137.788969856003	137.980058480003	"4"	47581.830211662	47579.392339051	1.5	0.1
0.01	1	0.326062410000304	1	51	146.906827525003	NA	1	0	1	1	138.206326836	138.532389246	"4"	47581.830211662	47579.392339051	1.5	0.1
0.01	1	0.278575528995134	1	51	146.906827525003	NA	1	0	1	1	138.757364847006	139.035940376001	"4"	47581.830211662	47579.392339051	1.5	0.1
0.01	1	0.271868603005714	1	51	146.906827525003	NA	1	0	1	1	139.27478752	139.546656123006	"4"	47581.830211662	47579.392339051	1.5	0.1
0.01	1	0.221061795004061	1	51	146.906827525003	NA	1	0	1	1	139.775604823	139.996666618004	"4"	47581.830211662	47579.392339051	1.5	0.1
0.01	1	0.200265020001098	1	51	146.906827525003	NA	1	0	1	1	140.226402674001	140.426667694002	"4"	47581.830211662	47579.392339051	1.5	0.1
0.01	1	0.224170800000138	1	51	146.906827525003	NA	1	0	1	1	140.660499153004	140.884669953004	"4"	47581.830211662	47579.392339051	1.5	0.1
0.01	1	0.203553482002462	1	51	146.906827525003	NA	1	0	1	1	141.111261580001	141.314815062004	"4"	47581.830211662	47579.392339051	1.5	0.1
0.01	1	0.250950331996137	1	51	146.906827525003	NA	1	0	1	1	141.545232690005	141.796183022001	"4"	47581.830211662	47579.392339051	1.5	0.1
0.01	1	0.230673119003768	1	51	146.906827525003	NA	1	0	1	1	142.029470565001	142.260143684005	"4"	47581.830211662	47579.392339051	1.5	0.1
0.01	1	0.242938628995034	1	51	146.906827525003	NA	1	0	1	1	142.497015969006	142.739954598001	"4"	47581.830211662	47579.392339051	1.5	0.1
0.01	1	0.230996176003828	1	51	146.906827525003	NA	1	0	1	1	142.964318594	143.195314770004	"4"	47581.830211662	47579.392339051	1.5	0.1
0.01	1	0.187099184993713	1	51	146.906827525003	NA	1	0	1	1	143.431801934006	143.618901119	"4"	47581.830211662	47579.392339051	1.5	0.1
0.01	1	0.262205271996208	1	51	146.906827525003	NA	1	0	1	1	143.849120342005	144.111325614002	"4"	47581.830211662	47579.392339051	1.5	0.1
0.01	1	0.214822718000505	1	51	146.906827525003	NA	1	0	1	1	144.333249720999	144.548072439	"4"	47581.830211662	47579.392339051	1.5	0.1
0.01	1	0.251024830999086	1	51	146.906827525003	NA	1	0	1	1	144.784186118006	145.035210949005	"4"	47581.830211662	47579.392339051	1.5	0.1
0.01	1	0.486745996997342	1	51	146.906827525003	NA	1	0	1	1	145.268242682003	145.754988679	"4"	47581.830211662	47579.392339051	1.5	0.1
0.01	1	0.809843007999007	1	51	146.906827525003	NA	1	0	1	1	145.98622192	146.796064927999	"4"	47581.830211662	47579.392339051	1.5	0.1
0.01	1	0.494336597002984	1	116	NA	179.356921889004	0	0.6	1.6	1	148.941103691999	149.435440289002	"5"	47581.830211662	47579.392339051	1.5	0.1
0.01	1	0.208286346001842	1	116	NA	179.356921889004	0	0.6	1.6	1	149.675576093003	149.883862439005	"5"	47581.830211662	47579.392339051	1.5	0.1
0.01	1	0.213618806999875	1	116	NA	179.356921889004	0	0.6	1.6	1	150.109789190006	150.323407997006	"5"	47581.830211662	47579.392339051	1.5	0.1
0.01	1	0.258418700999755	1	116	NA	179.356921889004	0	0.6	1.6	1	150.560469114003	150.818887815003	"5"	47581.830211662	47579.392339051	1.5	0.1
0.01	1	0.239571794001677	1	116	NA	179.356921889004	0	0.6	1.6	1	151.044659072002	151.284230866004	"5"	47581.830211662	47579.392339051	1.5	0.1
0.01	1	0.19597596800304	1	116	NA	179.356921889004	0	0.6	1.6	1	151.512092593999	151.708068562002	"5"	47581.830211662	47579.392339051	1.5	0.1
0.01	1	0.242449363002379	1	116	NA	179.356921889004	0	0.6	1.6	1	151.929543029	152.171992392003	"5"	47581.830211662	47579.392339051	1.5	0.1
0.01	1	0.207705075001286	1	116	NA	179.356921889004	0	0.6	1.6	1	152.396968238005	152.604673313006	"5"	47581.830211662	47579.392339051	1.5	0.1
0.01	1	0.237564824004949	1	116	NA	179.356921889004	0	0.6	1.6	1	152.830914038001	153.068478862006	"5"	47581.830211662	47579.392339051	1.5	0.1
0.01	1	0.233209323996562	1	116	NA	179.356921889004	0	0.6	1.6	1	153.298380919005	153.531590243001	"5"	47581.830211662	47579.392339051	1.5	0.1
0.01	1	0.245155682001496	1	116	NA	179.356921889004	0	0.6	1.6	1	153.765847066999	154.011002749001	"5"	47581.830211662	47579.392339051	1.5	0.1
0.01	1	0.193894201998773	1	116	NA	179.356921889004	0	0.6	1.6	1	154.233299790001	154.427193992	"5"	47581.830211662	47579.392339051	1.5	0.1
0.01	1	0.257586482999614	1	116	NA	179.356921889004	0	0.6	1.6	1	154.650574433006	154.908160916006	"5"	47581.830211662	47579.392339051	1.5	0.1
0.01	1	0.189074380999955	1	116	NA	179.356921889004	0	0.6	1.6	1	155.134904295002	155.323978676002	"5"	47581.830211662	47579.392339051	1.5	0.1
0.01	1	0.26709928499622	1	116	NA	179.356921889004	0	0.6	1.6	1	155.552157456004	155.819256741001	"5"	47581.830211662	47579.392339051	1.5	0.1
0.01	1	0.222346285001549	1	116	NA	179.356921889004	0	0.6	1.6	1	156.053010689	156.275356974002	"5"	47581.830211662	47579.392339051	1.5	0.1
0.01	1	0.300028049001412	1	116	NA	179.356921889004	0	0.6	1.6	1	156.503927616002	156.803955665004	"5"	47581.830211662	47579.392339051	1.5	0.1
0.01	1	0.262508949999756	1	116	NA	179.356921889004	0	0.6	1.6	1	157.037929231999	157.300438181999	"5"	47581.830211662	47579.392339051	1.5	0.1
0.01	1	0.273575809995236	1	116	NA	179.356921889004	0	0.6	1.6	1	157.538880484004	157.812456293999	"5"	47581.830211662	47579.392339051	1.5	0.1
0.01	1	0.235098961995391	1	116	NA	179.356921889004	0	0.6	1.6	1	158.039839444005	158.274938406001	"5"	47581.830211662	47579.392339051	1.5	0.1
0.01	1	0.216437062001205	1	116	NA	179.356921889004	0	0.6	1.6	1	158.507089216	158.723526278001	"5"	47581.830211662	47579.392339051	1.5	0.1
0.01	1	0.2301894609991	1	116	NA	179.356921889004	0	0.6	1.6	1	158.957898886001	159.188088347	"5"	47581.830211662	47579.392339051	1.5	0.1
0.01	1	0.242992765997769	1	116	NA	179.356921889004	0	0.6	1.6	1	159.425445874003	159.668438640001	"5"	47581.830211662	47579.392339051	1.5	0.1
0.01	1	0.271053407996078	1	116	NA	179.356921889004	0	0.6	1.6	1	159.909492707004	160.180546115	"5"	47581.830211662	47579.392339051	1.5	0.1
0.01	1	0.209739780002565	1	116	NA	179.356921889004	0	0.6	1.6	1	160.410390976002	160.620130756004	"5"	47581.830211662	47579.392339051	1.5	0.1
0.01	1	0.247659756998473	1	116	NA	179.356921889004	0	0.6	1.6	1	160.844354453002	161.09201421	"5"	47581.830211662	47579.392339051	1.5	0.1
0.01	1	0.250460097995528	1	116	NA	179.356921889004	0	0.6	1.6	1	161.328535812005	161.57899591	"5"	47581.830211662	47579.392339051	1.5	0.1
0.01	1	0.190776326002378	1	116	NA	179.356921889004	0	0.6	1.6	1	161.812770744	162.003547070002	"5"	47581.830211662	47579.392339051	1.5	0.1
0.01	1	0.254162545999861	1	116	NA	179.356921889004	0	0.6	1.6	1	162.230099812004	162.484262358004	"5"	47581.830211662	47579.392339051	1.5	0.1
0.01	1	0.290405537998595	1	116	NA	179.356921889004	0	0.6	1.6	1	162.714203154006	163.004608692005	"5"	47581.830211662	47579.392339051	1.5	0.1
0.01	1	0.324588449002476	1	116	NA	179.356921889004	0	0.6	1.6	1	163.231833104001	163.556421553003	"5"	47581.830211662	47579.392339051	1.5	0.1
0.01	1	0.181741861000773	1	116	NA	179.356921889004	0	0.6	1.6	1	163.782727780002	163.964469641003	"5"	47581.830211662	47579.392339051	1.5	0.1
0.01	1	0.219006615996477	1	116	NA	179.356921889004	0	0.6	1.6	1	164.200101222006	164.419107838003	"5"	47581.830211662	47579.392339051	1.5	0.1
0.01	1	0.264173752999341	1	116	NA	179.356921889004	0	0.6	1.6	1	164.650825674005	164.914999427005	"5"	47581.830211662	47579.392339051	1.5	0.1
0.01	1	0.22904806099541	1	116	NA	179.356921889004	0	0.6	1.6	1	165.151695611006	165.380743672002	"5"	47581.830211662	47579.392339051	1.5	0.1
0.01	1	0.217532039998332	1	116	NA	179.356921889004	0	0.6	1.6	1	165.619073396003	165.836605436001	"5"	47581.830211662	47579.392339051	1.5	0.1
0.01	1	0.285244847000286	1	116	NA	179.356921889004	0	0.6	1.6	1	166.069803734004	166.355048581005	"5"	47581.830211662	47579.392339051	1.5	0.1
0.01	1	0.241056979000859	1	116	NA	179.356921889004	0	0.6	1.6	1	166.587407204002	166.828464183003	"5"	47581.830211662	47579.392339051	1.5	0.1
0.01	1	0.261582582999836	1	116	NA	179.356921889004	0	0.6	1.6	1	167.054828580003	167.316411163003	"5"	47581.830211662	47579.392339051	1.5	0.1
0.01	1	0.255674904998159	1	116	NA	179.356921889004	0	0.6	1.6	1	167.539016161005	167.794691066003	"5"	47581.830211662	47579.392339051	1.5	0.1
0.01	1	0.221174646998406	1	116	NA	179.356921889004	0	0.6	1.6	1	168.023140945006	168.244315592005	"5"	47581.830211662	47579.392339051	1.5	0.1
0.01	1	0.272959948000789	1	116	NA	179.356921889004	0	0.6	1.6	1	168.473944924001	168.746904872001	"5"	47581.830211662	47579.392339051	1.5	0.1
0.01	1	0.285231310997915	1	116	NA	179.356921889004	0	0.6	1.6	1	168.974768181004	169.259999492002	"5"	47581.830211662	47579.392339051	1.5	0.1
0.01	1	0.270665704003477	1	116	NA	179.356921889004	0	0.6	1.6	1	169.492249165	169.762914869003	"5"	47581.830211662	47579.392339051	1.5	0.1
0.01	1	0.227255838995916	1	116	NA	179.356921889004	0	0.6	1.6	1	169.993039520006	170.220295359002	"5"	47581.830211662	47579.392339051	1.5	0.1
0.01	1	0.232317310998042	1	116	NA	179.356921889004	0	0.6	1.6	1	170.443878251004	170.676195562002	"5"	47581.830211662	47579.392339051	1.5	0.1
0.01	1	0.220220964001783	1	116	NA	179.356921889004	0	0.6	1.6	1	170.911324369001	171.131545333003	"5"	47581.830211662	47579.392339051	1.5	0.1
0.01	1	0.201333224998962	1	116	NA	179.356921889004	0	0.6	1.6	1	171.362077104	171.563410328999	"5"	47581.830211662	47579.392339051	1.5	0.1
0.01	1	0.214857760998711	1	116	NA	179.356921889004	0	0.6	1.6	1	171.796167975001	172.011025735999	"5"	47581.830211662	47579.392339051	1.5	0.1
0.01	1	0.236851493005815	1	116	NA	179.356921889004	0	0.6	1.6	1	172.246932226	172.483783719006	"5"	47581.830211662	47579.392339051	1.5	0.1
0.01	1	1.29731507000542	1	116	NA	179.356921889004	0	0.6	1.6	1	172.714450981999	174.011766052005	"5"	47581.830211662	47579.392339051	1.5	0.1
0.01	1	0.58088293900073	1	116	NA	179.356921889004	0	0.6	1.6	1	174.233563416004	174.814446355005	"5"	47581.830211662	47579.392339051	1.5	0.1
0.01	1	0.391533008994884	1	116	NA	179.356921889004	0	0.6	1.6	1	175.051759366004	175.443292374999	"5"	47581.830211662	47579.392339051	1.5	0.1
0.01	1	0.302855579997413	1	116	NA	179.356921889004	0	0.6	1.6	1	175.669297019005	175.972152599003	"5"	47581.830211662	47579.392339051	1.5	0.1
0.01	1	0.290942786996311	1	116	NA	179.356921889004	0	0.6	1.6	1	176.203746499006	176.494689286003	"5"	47581.830211662	47579.392339051	1.5	0.1
0.01	1	0.315631486999337	1	116	NA	179.356921889004	0	0.6	1.6	1	176.721171582001	177.036803069001	"5"	47581.830211662	47579.392339051	1.5	0.1
0.01	1	0.226653143996373	1	116	NA	179.356921889004	0	0.6	1.6	1	177.272129909004	177.498783053001	"5"	47581.830211662	47579.392339051	1.5	0.1
0.01	1	0.233767047000583	1	116	NA	179.356921889004	0	0.6	1.6	1	177.722928194002	177.956695241002	"5"	47581.830211662	47579.392339051	1.5	0.1
0.01	1	0.216174360000878	1	116	NA	179.356921889004	0	0.6	1.6	1	178.190269102	178.406443462001	"5"	47581.830211662	47579.392339051	1.5	0.1
0.01	1	0.202066492995073	1	116	NA	179.356921889004	0	0.6	1.6	1	178.641016949005	178.843083442	"5"	47581.830211662	47579.392339051	1.5	0.1
0.01	1	0.280401321004319	2	116	NA	179.356921889004	0	0.6	1.6	1	179.075009239001	179.355410560005	"5"	47581.830211662	47579.392339051	1.5	0.1
0.01	1	0.256241486000363	1	118	240.613708946003	NA	1	0	1.6	1	181.395607776001	181.651849262002	"6"	47581.830211662	47579.392339051	1.5	0.1
0.01	1	0.0127085109998006	1	118	240.613708946003	NA	1	0	1.6	1	181.879804405005	181.892512916005	"6"	47581.830211662	47579.392339051	1.5	0.1
0.01	1	0.0818578799953684	1	118	240.613708946003	NA	1	0	1.6	1	182.130241490006	182.212099370001	"6"	47581.830211662	47579.392339051	1.5	0.1
0.01	1	0.339541936999012	1	118	240.613708946003	NA	1	0	1.6	1	182.447540222005	182.787082159004	"6"	47581.830211662	47579.392339051	1.5	0.1
0.01	1	0.0127402549987892	1	118	240.613708946003	NA	1	0	1.6	1	183.015084029001	183.027824284	"6"	47581.830211662	47579.392339051	1.5	0.1
0.01	1	0.0105976849954459	1	118	240.613708946003	NA	1	0	1.6	1	183.265427820006	183.276025505002	"6"	47581.830211662	47579.392339051	1.5	0.1
0.01	1	0.217483036998601	1	118	240.613708946003	NA	1	0	1.6	1	183.499211622002	183.716694659	"6"	47581.830211662	47579.392339051	1.5	0.1
0.01	1	0.00225438300549285	1	118	240.613708946003	NA	1	0	1.6	1	183.950010127999	183.952264511005	"6"	47581.830211662	47579.392339051	1.5	0.1
0.01	1	0.0608425070022349	1	118	240.613708946003	NA	1	0	1.6	1	184.183619529002	184.244462036004	"6"	47581.830211662	47579.392339051	1.5	0.1
0.01	1	0.273371570001473	1	118	240.613708946003	NA	1	0	1.6	1	184.467475240002	184.740846810004	"6"	47581.830211662	47579.392339051	1.5	0.1
0.01	1	0.0426954439972178	1	118	240.613708946003	NA	1	0	1.6	1	184.968439884004	185.011135328001	"6"	47581.830211662	47579.392339051	1.5	0.1
0.01	1	0.0385161590020289	1	118	240.613708946003	NA	1	0	1.6	1	185.252176260001	185.290692419003	"6"	47581.830211662	47579.392339051	1.5	0.1
0.01	1	0.267799237000872	1	118	240.613708946003	NA	1	0	1.6	1	185.519219369002	185.787018606003	"6"	47581.830211662	47579.392339051	1.5	0.1
0.01	1	0.0238271170019289	1	118	240.613708946003	NA	1	0	1.6	1	186.020024363002	186.043851480004	"6"	47581.830211662	47579.392339051	1.5	0.1
0.01	1	0.0521486139987246	1	118	240.613708946003	NA	1	0	1.6	1	186.270559881006	186.322708495005	"6"	47581.830211662	47579.392339051	1.5	0.1
0.01	1	0.280426999001065	1	118	240.613708946003	NA	1	0	1.6	1	186.554271565001	186.834698564002	"6"	47581.830211662	47579.392339051	1.5	0.1
0.01	1	0.0024233189978986	1	118	240.613708946003	NA	1	0	1.6	1	187.071869999003	187.074293318001	"6"	47581.830211662	47579.392339051	1.5	0.1
0.01	1	0.0746786439995049	1	118	240.613708946003	NA	1	0	1.6	1	187.305617942002	187.380296586001	"6"	47581.830211662	47579.392339051	1.5	0.1
0.01	1	0.302486150998448	1	118	240.613708946003	NA	1	0	1.6	1	187.606190482002	187.908676633	"6"	47581.830211662	47579.392339051	1.5	0.1
0.01	1	0.311982193001313	1	118	240.613708946003	NA	1	0	1.6	1	188.140288556002	188.452270749003	"6"	47581.830211662	47579.392339051	1.5	0.1
0.01	1	0.280126027995721	1	118	240.613708946003	NA	1	0	1.6	1	188.674565853005	188.954691881001	"6"	47581.830211662	47579.392339051	1.5	0.1
0.01	1	0.299548741997569	1	118	240.613708946003	NA	1	0	1.6	1	189.175381081004	189.474929823002	"6"	47581.830211662	47579.392339051	1.5	0.1
0.01	1	0.287156338999921	1	118	240.613708946003	NA	1	0	1.6	1	189.709664823	189.996821162	"6"	47581.830211662	47579.392339051	1.5	0.1
0.01	1	0.305016823003825	1	118	240.613708946003	NA	1	0	1.6	1	190.227269939001	190.532286762005	"6"	47581.830211662	47579.392339051	1.5	0.1
0.01	1	0.309357524005463	1	118	240.613708946003	NA	1	0	1.6	1	190.761354980001	191.070712504006	"6"	47581.830211662	47579.392339051	1.5	0.1
0.01	1	0.323811414004012	1	118	240.613708946003	NA	1	0	1.6	1	191.295688352002	191.619499766006	"6"	47581.830211662	47579.392339051	1.5	0.1
0.01	1	0.285461442996166	1	118	240.613708946003	NA	1	0	1.6	1	191.846578036006	192.132039479002	"6"	47581.830211662	47579.392339051	1.5	0.1
0.01	1	0.287407047995657	1	118	240.613708946003	NA	1	0	1.6	1	192.364146028005	192.651553076001	"6"	47581.830211662	47579.392339051	1.5	0.1
0.01	1	0.305999542004429	1	118	240.613708946003	NA	1	0	1.6	1	192.881668593	193.187668135004	"6"	47581.830211662	47579.392339051	1.5	0.1
0.01	1	0.284178268004325	1	118	240.613708946003	NA	1	0	1.6	1	193.415881661	193.700059929004	"6"	47581.830211662	47579.392339051	1.5	0.1
0.01	1	0.254012905999843	1	118	240.613708946003	NA	1	0	1.6	1	193.933360155999	194.187373061999	"6"	47581.830211662	47579.392339051	1.5	0.1
0.01	1	0.293337491995771	1	118	240.613708946003	NA	1	0	1.6	1	194.417548638005	194.71088613	"6"	47581.830211662	47579.392339051	1.5	0.1
0.01	1	0.307690510002431	1	118	240.613708946003	NA	1	0	1.6	1	194.935092022002	195.242782532005	"6"	47581.830211662	47579.392339051	1.5	0.1
0.01	1	0.262741908001772	1	118	240.613708946003	NA	1	0	1.6	1	195.469372523999	195.732114432001	"6"	47581.830211662	47579.392339051	1.5	0.1
0.01	1	0.267075465002563	1	118	240.613708946003	NA	1	0	1.6	1	195.970321922003	196.237397387005	"6"	47581.830211662	47579.392339051	1.5	0.1
0.01	1	0.275818196001637	1	118	240.613708946003	NA	1	0	1.6	1	196.471010226	196.746828422001	"6"	47581.830211662	47579.392339051	1.5	0.1
0.01	1	0.263601440994535	1	118	240.613708946003	NA	1	0	1.6	1	196.971926467006	197.235527908	"6"	47581.830211662	47579.392339051	1.5	0.1
0.01	1	0.402777411996794	1	118	240.613708946003	NA	1	0	1.6	1	197.472641530003	197.875418942	"6"	47581.830211662	47579.392339051	1.5	0.1
0.01	1	0.232683378999354	1	118	240.613708946003	NA	1	0	1.6	1	198.107032131004	198.339715510003	"6"	47581.830211662	47579.392339051	1.5	0.1
0.01	1	0.317587926998385	1	118	240.613708946003	NA	1	0	1.6	1	198.574696246003	198.892284173002	"6"	47581.830211662	47579.392339051	1.5	0.1
0.01	1	0.278242289998161	1	118	240.613708946003	NA	1	0	1.6	1	199.125504341006	199.403746631004	"6"	47581.830211662	47579.392339051	1.5	0.1
0.01	1	0.313521987001877	1	118	240.613708946003	NA	1	0	1.6	1	199.626290362001	199.939812349003	"6"	47581.830211662	47579.392339051	1.5	0.1
0.01	1	0.267181858005642	1	118	240.613708946003	NA	1	0	1.6	1	200.160619128001	200.427800986006	"6"	47581.830211662	47579.392339051	1.5	0.1
0.01	1	0.270076986002096	1	118	240.613708946003	NA	1	0	1.6	1	200.661515714004	200.931592700006	"6"	47581.830211662	47579.392339051	1.5	0.1
0.01	1	0.272928139995201	1	118	240.613708946003	NA	1	0	1.6	1	201.162205379005	201.435133519	"6"	47581.830211662	47579.392339051	1.5	0.1
0.01	1	0.278541769002913	1	118	240.613708946003	NA	1	0	1.6	1	201.663088023	201.941629792003	"6"	47581.830211662	47579.392339051	1.5	0.1
0.01	1	0.279747159002	1	118	240.613708946003	NA	1	0	1.6	1	202.180737497001	202.460484656003	"6"	47581.830211662	47579.392339051	1.5	0.1
0.01	1	0.250000419997377	1	118	240.613708946003	NA	1	0	1.6	1	202.698292756002	202.948293175999	"6"	47581.830211662	47579.392339051	1.5	0.1
0.01	1	0.277269106001768	1	118	240.613708946003	NA	1	0	1.6	1	203.182416110001	203.459685216003	"6"	47581.830211662	47579.392339051	1.5	0.1
0.01	1	0.28074351700343	1	118	240.613708946003	NA	1	0	1.6	1	203.683196842001	203.963940359004	"6"	47581.830211662	47579.392339051	1.5	0.1
0.01	1	0.226096341997618	1	118	240.613708946003	NA	1	0	1.6	1	204.200646290003	204.426742632	"6"	47581.830211662	47579.392339051	1.5	0.1
0.01	1	0.327385051998135	1	118	240.613708946003	NA	1	0	1.6	1	204.651467421005	204.978852473003	"6"	47581.830211662	47579.392339051	1.5	0.1
0.01	1	0.336377017003542	1	118	240.613708946003	NA	1	0	1.6	1	205.218986366999	205.555363384003	"6"	47581.830211662	47579.392339051	1.5	0.1
0.01	1	0.296277123001346	1	118	240.613708946003	NA	1	0	1.6	1	205.786720084005	206.082997207006	"6"	47581.830211662	47579.392339051	1.5	0.1
0.01	1	0.299016520002624	1	118	240.613708946003	NA	1	0	1.6	1	206.320944352003	206.619960872005	"6"	47581.830211662	47579.392339051	1.5	0.1
0.01	1	0.293029068998294	1	118	240.613708946003	NA	1	0	1.6	1	206.855083566006	207.148112635005	"6"	47581.830211662	47579.392339051	1.5	0.1
0.01	1	0.311335312995652	1	118	240.613708946003	NA	1	0	1.6	1	207.372608891004	207.683944204	"6"	47581.830211662	47579.392339051	1.5	0.1
0.01	1	0.320444375000079	1	118	240.613708946003	NA	1	0	1.6	1	207.906865903002	208.227310278002	"6"	47581.830211662	47579.392339051	1.5	0.1
0.01	1	0.33093299799657	1	118	240.613708946003	NA	1	0	1.6	1	208.457888235003	208.788821233	"6"	47581.830211662	47579.392339051	1.5	0.1
0.01	1	0.290356511002756	1	118	240.613708946003	NA	1	0	1.6	1	209.025525056	209.315881567003	"6"	47581.830211662	47579.392339051	1.5	0.1
0.01	1	0.318200777997845	1	118	240.613708946003	NA	1	0	1.6	1	209.543053081004	209.861253859002	"6"	47581.830211662	47579.392339051	1.5	0.1
0.01	1	0.294599662003748	1	118	240.613708946003	NA	1	0	1.6	1	210.093865581999	210.388465244003	"6"	47581.830211662	47579.392339051	1.5	0.1
0.01	1	0.34441264400084	1	118	240.613708946003	NA	1	0	1.6	1	210.611473079	210.955885723	"6"	47581.830211662	47579.392339051	1.5	0.1
0.01	1	0.368642722001823	1	118	240.613708946003	NA	1	0	1.6	1	211.178995176	211.547637898002	"6"	47581.830211662	47579.392339051	1.5	0.1
0.01	1	0.351779317999899	1	118	240.613708946003	NA	1	0	1.6	1	211.780206724005	212.131986042004	"6"	47581.830211662	47579.392339051	1.5	0.1
0.01	1	0.350827057998686	1	118	240.613708946003	NA	1	0	1.6	1	212.364479763004	212.715306821003	"6"	47581.830211662	47579.392339051	1.5	0.1
0.01	1	0.311366463000013	1	118	240.613708946003	NA	1	0	1.6	1	212.948774506003	213.260140969003	"6"	47581.830211662	47579.392339051	1.5	0.1
0.01	1	0.415887643001042	1	118	240.613708946003	NA	1	0	1.6	1	213.483021647	213.898909290001	"6"	47581.830211662	47579.392339051	1.5	0.1
0.01	1	0.293159298998944	1	118	240.613708946003	NA	1	0	1.6	1	214.134071684006	214.427230983005	"6"	47581.830211662	47579.392339051	1.5	0.1
0.01	1	0.304157661994395	1	118	240.613708946003	NA	1	0	1.6	1	214.668195342005	214.972353003999	"6"	47581.830211662	47579.392339051	1.5	0.1
0.01	1	0.248248976997274	1	118	240.613708946003	NA	1	0	1.6	1	215.202527992005	215.450776969003	"6"	47581.830211662	47579.392339051	1.5	0.1
0.01	1	0.381366469002387	1	118	240.613708946003	NA	1	0	1.6	1	215.686725763	216.068092232003	"6"	47581.830211662	47579.392339051	1.5	0.1
0.01	1	0.116230199993879	1	118	240.613708946003	NA	1	0	1.6	1	216.304351449005	216.420581648999	"6"	47581.830211662	47579.392339051	1.5	0.1
0.01	1	0.500553513003979	1	118	240.613708946003	NA	1	0	1.6	1	216.654899884001	217.155453397005	"6"	47581.830211662	47579.392339051	1.5	0.1
0.01	1	0.341855329999817	1	118	240.613708946003	NA	1	0	1.6	1	217.389626346005	217.731481676004	"6"	47581.830211662	47579.392339051	1.5	0.1
0.01	1	0.294916007005668	1	118	240.613708946003	NA	1	0	1.6	1	217.957257501999	218.252173509005	"6"	47581.830211662	47579.392339051	1.5	0.1
0.01	1	0.312513495999156	1	118	240.613708946003	NA	1	0	1.6	1	218.491339791006	218.803853287005	"6"	47581.830211662	47579.392339051	1.5	0.1
0.01	1	0.306889341998613	1	118	240.613708946003	NA	1	0	1.6	1	219.025569434001	219.332458776	"6"	47581.830211662	47579.392339051	1.5	0.1
0.01	1	0.30022738599655	1	118	240.613708946003	NA	1	0	1.6	1	219.559768356004	219.859995742001	"6"	47581.830211662	47579.392339051	1.5	0.1
0.01	1	0.405424003998633	1	118	240.613708946003	NA	1	0	1.6	1	220.094069849001	220.499493853	"6"	47581.830211662	47579.392339051	1.5	0.1
0.01	1	0.243505749000178	1	118	240.613708946003	NA	1	0	1.6	1	220.728494801006	220.972000550006	"6"	47581.830211662	47579.392339051	1.5	0.1
0.01	1	0.313294530002167	1	118	240.613708946003	NA	1	0	1.6	1	221.195889271999	221.509183802002	"6"	47581.830211662	47579.392339051	1.5	0.1
0.01	1	0.31278166899574	1	118	240.613708946003	NA	1	0	1.6	1	221.746849817006	222.059631486001	"6"	47581.830211662	47579.392339051	1.5	0.1
0.01	1	0.370134254000732	1	118	240.613708946003	NA	1	0	1.6	1	222.297707926002	222.667842180002	"6"	47581.830211662	47579.392339051	1.5	0.1
0.01	1	0.328166266997869	1	118	240.613708946003	NA	1	0	1.6	1	222.898905537004	223.227071804002	"6"	47581.830211662	47579.392339051	1.5	0.1
0.01	1	0.40322319400002	1	118	240.613708946003	NA	1	0	1.6	1	223.449700122001	223.852923316001	"6"	47581.830211662	47579.392339051	1.5	0.1
0.01	1	0.35883213699708	1	118	240.613708946003	NA	1	0	1.6	1	224.084148122005	224.442980259002	"6"	47581.830211662	47579.392339051	1.5	0.1
0.01	1	0.454336661001435	1	118	240.613708946003	NA	1	0	1.6	1	224.668586694002	225.122923355004	"6"	47581.830211662	47579.392339051	1.5	0.1
0.01	1	0.290827000004356	1	118	240.613708946003	NA	1	0	1.6	1	225.353025021999	225.643852022004	"6"	47581.830211662	47579.392339051	1.5	0.1
0.01	1	0.39812514300138	1	118	240.613708946003	NA	1	0	1.6	1	225.870443339001	226.268568482003	"6"	47581.830211662	47579.392339051	1.5	0.1
0.01	1	0.33004958100355	1	118	240.613708946003	NA	1	0	1.6	1	226.504825554999	226.834875136003	"6"	47581.830211662	47579.392339051	1.5	0.1
0.01	1	0.322950791996846	1	118	240.613708946003	NA	1	0	1.6	1	227.072490862003	227.395441654	"6"	47581.830211662	47579.392339051	1.5	0.1
0.01	1	0.348086503996456	1	118	240.613708946003	NA	1	0	1.6	1	227.623408798005	227.971495302001	"6"	47581.830211662	47579.392339051	1.5	0.1
0.01	1	0.364193585002795	1	118	240.613708946003	NA	1	0	1.6	1	228.207796984003	228.571990569006	"6"	47581.830211662	47579.392339051	1.5	0.1
0.01	1	0.235557040003187	1	118	240.613708946003	NA	1	0	1.6	1	228.808812686002	229.044369726005	"6"	47581.830211662	47579.392339051	1.5	0.1
0.01	1	0.319478552999499	1	118	240.613708946003	NA	1	0	1.6	1	229.276136268003	229.595614821003	"6"	47581.830211662	47579.392339051	1.5	0.1
0.01	1	0.304178002996196	1	118	240.613708946003	NA	1	0	1.6	1	229.827065563004	230.131243566	"6"	47581.830211662	47579.392339051	1.5	0.1
0.01	1	0.353547257000173	1	118	240.613708946003	NA	1	0	1.6	1	230.361297424999	230.714844681999	"6"	47581.830211662	47579.392339051	1.5	0.1
0.01	1	0.298982230000547	1	118	240.613708946003	NA	1	0	1.6	1	230.945708819003	231.244691049003	"6"	47581.830211662	47579.392339051	1.5	0.1
0.01	1	0.284788796001521	1	118	240.613708946003	NA	1	0	1.6	1	231.479879456005	231.764668252006	"6"	47581.830211662	47579.392339051	1.5	0.1
0.01	1	0.465265061997343	1	118	240.613708946003	NA	1	0	1.6	1	231.997504361003	232.462769423	"6"	47581.830211662	47579.392339051	1.5	0.1
0.01	1	0.312810171999445	1	118	240.613708946003	NA	1	0	1.6	1	232.698650871003	233.011461043003	"6"	47581.830211662	47579.392339051	1.5	0.1
0.01	1	0.306293921996257	1	118	240.613708946003	NA	1	0	1.6	1	233.232803668005	233.539097590001	"6"	47581.830211662	47579.392339051	1.5	0.1
0.01	1	0.267622146006033	1	118	240.613708946003	NA	1	0	1.6	1	233.767089153	234.034711299006	"6"	47581.830211662	47579.392339051	1.5	0.1
0.01	1	0.279834825996659	1	118	240.613708946003	NA	1	0	1.6	1	234.267877816004	234.547712642001	"6"	47581.830211662	47579.392339051	1.5	0.1
0.01	1	0.233621270002914	1	118	240.613708946003	NA	1	0	1.6	1	234.785451983	235.019073253003	"6"	47581.830211662	47579.392339051	1.5	0.1
0.01	1	0.247864668999682	1	118	240.613708946003	NA	1	0	1.6	1	235.252947036002	235.500811705002	"6"	47581.830211662	47579.392339051	1.5	0.1
0.01	1	0.202347666003334	1	118	240.613708946003	NA	1	0	1.6	1	235.737064667002	235.939412333006	"6"	47581.830211662	47579.392339051	1.5	0.1
0.01	1	0.201368373993319	1	118	240.613708946003	NA	1	0	1.6	1	236.171139542006	236.372507915999	"6"	47581.830211662	47579.392339051	1.5	0.1
0.01	1	0.18320895099896	1	118	240.613708946003	NA	1	0	1.6	1	236.605319458002	236.788528409001	"6"	47581.830211662	47579.392339051	1.5	0.1
0.01	1	0.484913278996828	1	118	240.613708946003	NA	1	0	1.6	1	237.022536114004	237.507449393001	"6"	47581.830211662	47579.392339051	1.5	0.1
0.01	1	0.158982162000029	1	118	240.613708946003	NA	1	0	1.6	1	237.740382397002	237.899364559002	"6"	47581.830211662	47579.392339051	1.5	0.1
0.01	1	0.303383546997793	1	118	240.613708946003	NA	1	0	1.6	1	238.124492879004	238.427876426002	"6"	47581.830211662	47579.392339051	1.5	0.1
0.01	1	0.193415503003052	1	118	240.613708946003	NA	1	0	1.6	1	238.658714978999	238.852130482002	"6"	47581.830211662	47579.392339051	1.5	0.1
0.01	1	0.192328411001654	1	118	240.613708946003	NA	1	0	1.6	1	239.075964148004	239.268292559005	"6"	47581.830211662	47579.392339051	1.5	0.1
0.01	1	0.181432386998495	1	118	240.613708946003	NA	1	0	1.6	1	239.493321528003	239.674753915002	"6"	47581.830211662	47579.392339051	1.5	0.1
0.01	1	0.197880804997112	1	118	240.613708946003	NA	1	0	1.6	1	239.910715363003	240.108596168	"6"	47581.830211662	47579.392339051	1.5	0.1
0.01	1	0.162530102999881	1	118	240.613708946003	NA	1	0	1.6	1	240.344836470002	240.507366573001	"6"	47581.830211662	47579.392339051	1.5	0.1
0.01	1	0.394211247003113	1	87	NA	261.502078338002	0	0.64	2.24	1	242.665412260001	243.059623507004	"7"	47581.830211662	47579.392339051	1.5	0.1
0.01	1	0.0485707569969236	1	87	NA	261.502078338002	0	0.64	2.24	1	243.299748358004	243.348319115001	"7"	47581.830211662	47579.392339051	1.5	0.1
0.01	1	0.020584730002156	1	87	NA	261.502078338002	0	0.64	2.24	1	243.583598042002	243.604182772004	"7"	47581.830211662	47579.392339051	1.5	0.1
0.01	1	0.080766721002874	1	87	NA	261.502078338002	0	0.64	2.24	1	243.834043697003	243.914810418006	"7"	47581.830211662	47579.392339051	1.5	0.1
0.01	1	1.03731973499816	1	87	NA	261.502078338002	0	0.64	2.24	1	244.151244332003	245.188564067001	"7"	47581.830211662	47579.392339051	1.5	0.1
0.01	1	0.351531992004311	1	87	NA	261.502078338002	0	0.64	2.24	1	245.41996277	245.771494762004	"7"	47581.830211662	47579.392339051	1.5	0.1
0.01	1	0.00233666499843821	1	87	NA	261.502078338002	0	0.64	2.24	1	246.004313627003	246.006650292002	"7"	47581.830211662	47579.392339051	1.5	0.1
0.01	1	0.00247548599872971	1	87	NA	261.502078338002	0	0.64	2.24	1	246.238094860004	246.240570346003	"7"	47581.830211662	47579.392339051	1.5	0.1
0.01	1	0.00204631399537902	1	87	NA	261.502078338002	0	0.64	2.24	1	246.471839164005	246.473885478001	"7"	47581.830211662	47579.392339051	1.5	0.1
0.01	1	0.00205471200024476	1	87	NA	261.502078338002	0	0.64	2.24	1	246.705606854004	246.707661566004	"7"	47581.830211662	47579.392339051	1.5	0.1
0.01	1	0.103655657003401	1	87	NA	261.502078338002	0	0.64	2.24	1	246.939286496003	247.042942153006	"7"	47581.830211662	47579.392339051	1.5	0.1
0.01	1	0.00220235000597313	1	87	NA	261.502078338002	0	0.64	2.24	1	247.273161416	247.275363766006	"7"	47581.830211662	47579.392339051	1.5	0.1
0.01	1	0.00220319500658661	1	87	NA	261.502078338002	0	0.64	2.24	1	247.506792572	247.508995767006	"7"	47581.830211662	47579.392339051	1.5	0.1
0.01	1	0.150236617999326	1	87	NA	261.502078338002	0	0.64	2.24	1	247.740496333005	247.890732951004	"7"	47581.830211662	47579.392339051	1.5	0.1
0.01	1	0.200530574998993	1	87	NA	261.502078338002	0	0.64	2.24	1	248.124579141004	248.325109716003	"7"	47581.830211662	47579.392339051	1.5	0.1
0.01	1	0.00452289499662584	1	87	NA	261.502078338002	0	0.64	2.24	1	248.558720594003	248.563243488999	"7"	47581.830211662	47579.392339051	1.5	0.1
0.01	1	0.00201332700089552	1	87	NA	261.502078338002	0	0.64	2.24	1	248.792392882002	248.794406209003	"7"	47581.830211662	47579.392339051	1.5	0.1
0.01	1	0.00207330700504826	1	87	NA	261.502078338002	0	0.64	2.24	1	249.026179444001	249.028252751006	"7"	47581.830211662	47579.392339051	1.5	0.1
0.01	1	0.00235508199693868	1	87	NA	261.502078338002	0	0.64	2.24	1	249.259803070003	249.262158152	"7"	47581.830211662	47579.392339051	1.5	0.1
0.01	1	0.174491192999994	1	87	NA	261.502078338002	0	0.64	2.24	1	249.493554596003	249.668045789003	"7"	47581.830211662	47579.392339051	1.5	0.1
0.01	1	0.0300388359974022	1	87	NA	261.502078338002	0	0.64	2.24	1	249.894183176002	249.924222012	"7"	47581.830211662	47579.392339051	1.5	0.1
0.01	1	0.00221128900011536	1	87	NA	261.502078338002	0	0.64	2.24	1	250.161345250002	250.163556539002	"7"	47581.830211662	47579.392339051	1.5	0.1
0.01	1	0.0021852999998373	1	87	NA	261.502078338002	0	0.64	2.24	1	250.395036414004	250.397221714004	"7"	47581.830211662	47579.392339051	1.5	0.1
0.01	1	0.002173890999984	1	87	NA	261.502078338002	0	0.64	2.24	1	250.628692278005	250.630866169005	"7"	47581.830211662	47579.392339051	1.5	0.1
0.01	1	0.149075802997686	1	87	NA	261.502078338002	0	0.64	2.24	1	250.862459232005	251.011535035002	"7"	47581.830211662	47579.392339051	1.5	0.1
0.01	1	0.00273905899666715	1	87	NA	261.502078338002	0	0.64	2.24	1	251.246452620006	251.249191679002	"7"	47581.830211662	47579.392339051	1.5	0.1
0.01	1	0.00248211600410286	1	87	NA	261.502078338002	0	0.64	2.24	1	251.480233075999	251.482715192004	"7"	47581.830211662	47579.392339051	1.5	0.1
0.01	1	0.00220696299948031	1	87	NA	261.502078338002	0	0.64	2.24	1	251.713907235004	251.716114198003	"7"	47581.830211662	47579.392339051	1.5	0.1
0.01	1	0.00215096600004472	1	87	NA	261.502078338002	0	0.64	2.24	1	251.947687722	251.949838688	"7"	47581.830211662	47579.392339051	1.5	0.1
0.01	1	0.127136454997526	1	87	NA	261.502078338002	0	0.64	2.24	1	252.181531560003	252.308668015001	"7"	47581.830211662	47579.392339051	1.5	0.1
0.01	1	0.00367904699669452	1	87	NA	261.502078338002	0	0.64	2.24	1	252.531999176004	252.535678223001	"7"	47581.830211662	47579.392339051	1.5	0.1
0.01	1	0.00219847600237699	1	87	NA	261.502078338002	0	0.64	2.24	1	252.765727901002	252.767926377004	"7"	47581.830211662	47579.392339051	1.5	0.1
0.01	1	0.0022330849969876	1	87	NA	261.502078338002	0	0.64	2.24	1	252.999419374006	253.001652459003	"7"	47581.830211662	47579.392339051	1.5	0.1
0.01	1	0.00217310999869369	1	87	NA	261.502078338002	0	0.64	2.24	1	253.233182834003	253.235355944002	"7"	47581.830211662	47579.392339051	1.5	0.1
0.01	1	0.129413780996401	1	87	NA	261.502078338002	0	0.64	2.24	1	253.466905814006	253.596319595003	"7"	47581.830211662	47579.392339051	1.5	0.1
0.01	1	0.0021644139997079	1	87	NA	261.502078338002	0	0.64	2.24	1	253.834226509003	253.836390923003	"7"	47581.830211662	47579.392339051	1.5	0.1
0.01	1	0.00224134000018239	1	87	NA	261.502078338002	0	0.64	2.24	1	254.067889316	254.070130656	"7"	47581.830211662	47579.392339051	1.5	0.1
0.01	1	0.00208043200109387	1	87	NA	261.502078338002	0	0.64	2.24	1	254.301555138001	254.303635570002	"7"	47581.830211662	47579.392339051	1.5	0.1
0.01	1	0.00227513299614657	1	87	NA	261.502078338002	0	0.64	2.24	1	254.535336689005	254.537611822001	"7"	47581.830211662	47579.392339051	1.5	0.1
0.01	1	0.13803680500132	1	87	NA	261.502078338002	0	0.64	2.24	1	254.769027089002	254.907063894003	"7"	47581.830211662	47579.392339051	1.5	0.1
0.01	1	0.00331674400513293	1	87	NA	261.502078338002	0	0.64	2.24	1	255.13642201	255.139738754006	"7"	47581.830211662	47579.392339051	1.5	0.1
0.01	1	0.00208464500610717	1	87	NA	261.502078338002	0	0.64	2.24	1	255.370008004	255.372092649006	"7"	47581.830211662	47579.392339051	1.5	0.1
0.01	1	0.00216061200626427	1	87	NA	261.502078338002	0	0.64	2.24	1	255.603746061999	255.605906674005	"7"	47581.830211662	47579.392339051	1.5	0.1
0.01	1	0.00217735800106311	1	87	NA	261.502078338002	0	0.64	2.24	1	255.837465714001	255.839643072002	"7"	47581.830211662	47579.392339051	1.5	0.1
0.01	1	0.156530658001429	1	87	NA	261.502078338002	0	0.64	2.24	1	256.071269740001	256.227800398003	"7"	47581.830211662	47579.392339051	1.5	0.1
0.01	1	0.00250355399475666	1	87	NA	261.502078338002	0	0.64	2.24	1	256.455183114005	256.457686668	"7"	47581.830211662	47579.392339051	1.5	0.1
0.01	1	0.00199497299763607	1	87	NA	261.502078338002	0	0.64	2.24	1	256.689035990006	256.691030963004	"7"	47581.830211662	47579.392339051	1.5	0.1
0.01	1	0.00222598000254948	1	87	NA	261.502078338002	0	0.64	2.24	1	256.922686792001	256.924912772003	"7"	47581.830211662	47579.392339051	1.5	0.1
0.01	1	0.00233295099315001	1	87	NA	261.502078338002	0	0.64	2.24	1	257.156438927006	257.158771877999	"7"	47581.830211662	47579.392339051	1.5	0.1
0.01	1	0.150166147999698	1	87	NA	261.502078338002	0	0.64	2.24	1	257.390118272	257.54028442	"7"	47581.830211662	47579.392339051	1.5	0.1
0.01	1	0.00390889200207312	1	87	NA	261.502078338002	0	0.64	2.24	1	257.774197131002	257.778106023005	"7"	47581.830211662	47579.392339051	1.5	0.1
0.01	1	0.0042269559999113	1	87	NA	261.502078338002	0	0.64	2.24	1	258.007869149005	258.012096105005	"7"	47581.830211662	47579.392339051	1.5	0.1
0.01	1	0.00217234499723418	1	87	NA	261.502078338002	0	0.64	2.24	1	258.241595753003	258.243768098	"7"	47581.830211662	47579.392339051	1.5	0.1
0.01	1	0.00357237699790858	1	87	NA	261.502078338002	0	0.64	2.24	1	258.475243289002	258.478815666	"7"	47581.830211662	47579.392339051	1.5	0.1
0.01	1	0.232990374999645	1	87	NA	261.502078338002	0	0.64	2.24	1	258.709107454	258.942097829	"7"	47581.830211662	47579.392339051	1.5	0.1
0.01	1	0.00221383899770444	1	87	NA	261.502078338002	0	0.64	2.24	1	259.176494293002	259.178708132	"7"	47581.830211662	47579.392339051	1.5	0.1
0.01	1	0.00460752200160641	1	87	NA	261.502078338002	0	0.64	2.24	1	259.410456249003	259.415063771004	"7"	47581.830211662	47579.392339051	1.5	0.1
0.01	1	0.00207903900445672	1	87	NA	261.502078338002	0	0.64	2.24	1	259.643979084001	259.646058123006	"7"	47581.830211662	47579.392339051	1.5	0.1
0.01	1	0.00216448399442015	1	87	NA	261.502078338002	0	0.64	2.24	1	259.877578028005	259.879742511999	"7"	47581.830211662	47579.392339051	1.5	0.1
0.01	1	0.134243009000784	1	87	NA	261.502078338002	0	0.64	2.24	1	260.111339763003	260.245582772004	"7"	47581.830211662	47579.392339051	1.5	0.1
0.01	1	0.00227728499885416	1	87	NA	261.502078338002	0	0.64	2.24	1	260.478642715003	260.480920000002	"7"	47581.830211662	47579.392339051	1.5	0.1
0.01	1	0.00253095099469647	1	87	NA	261.502078338002	0	0.64	2.24	1	260.712353473005	260.714884424	"7"	47581.830211662	47579.392339051	1.5	0.1
0.01	1	0.00220493899541907	1	87	NA	261.502078338002	0	0.64	2.24	1	260.946137595005	260.948342534	"7"	47581.830211662	47579.392339051	1.5	0.1
0.01	1	0.00218019100429956	1	87	NA	261.502078338002	0	0.64	2.24	1	261.179829679	261.182009870005	"7"	47581.830211662	47579.392339051	1.5	0.1
0.01	1	0.0870418019985664	2	87	NA	261.502078338002	0	0.64	2.24	1	261.413494607004	261.500536409003	"7"	47581.830211662	47579.392339051	1.5	0.1
0.01	1	0.349909820004541	1	6	265.172277158999	NA	1	0	2.24	1	263.533901071001	263.883810891006	"8"	47581.830211662	47579.392339051	1.5	0.1
0.01	1	0.00206455100124003	1	6	265.172277158999	NA	1	0	2.24	1	264.118113780001	264.120178331003	"8"	47581.830211662	47579.392339051	1.5	0.1
0.01	1	0.00209163000545232	1	6	265.172277158999	NA	1	0	2.24	1	264.351811729	264.353903359006	"8"	47581.830211662	47579.392339051	1.5	0.1
0.01	1	0.00238247900415445	1	6	265.172277158999	NA	1	0	2.24	1	264.585494781	264.587877260004	"8"	47581.830211662	47579.392339051	1.5	0.1
0.01	1	0.00208103899785783	1	6	265.172277158999	NA	1	0	2.24	1	264.819220273006	264.821301312004	"8"	47581.830211662	47579.392339051	1.5	0.1
0.01	1	0.0034323840009165	1	6	265.172277158999	NA	1	0	2.24	1	265.053057746001	265.056490130002	"8"	47581.830211662	47579.392339051	1.5	0.1
0.01	1	0.212214390005101	1	106	NA	288.292974013006	0	0.850000000000001	3.09	1	267.206608182001	267.418822572006	"9"	47581.830211662	47579.392339051	1.5	0.1
0.01	1	0.00206423799681943	1	106	NA	288.292974013006	0	0.850000000000001	3.09	1	267.657315303004	267.659379541001	"9"	47581.830211662	47579.392339051	1.5	0.1
0.01	1	0.00211652200232493	1	106	NA	288.292974013006	0	0.850000000000001	3.09	1	267.891112122001	267.893228644003	"9"	47581.830211662	47579.392339051	1.5	0.1
0.01	1	0.00210580299608409	1	106	NA	288.292974013006	0	0.850000000000001	3.09	1	268.124758296006	268.126864099002	"9"	47581.830211662	47579.392339051	1.5	0.1
0.01	1	0.0601863029951346	1	106	NA	288.292974013006	0	0.850000000000001	3.09	1	268.358672949005	268.418859252	"9"	47581.830211662	47579.392339051	1.5	0.1
0.01	1	0.0020689000011771	1	106	NA	288.292974013006	0	0.850000000000001	3.09	1	268.642493892003	268.644562792004	"9"	47581.830211662	47579.392339051	1.5	0.1
0.01	1	0.00456671699794242	1	106	NA	288.292974013006	0	0.850000000000001	3.09	1	268.876275834002	268.880842551	"9"	47581.830211662	47579.392339051	1.5	0.1
0.01	1	0.00219381599890767	1	106	NA	288.292974013006	0	0.850000000000001	3.09	1	269.109862146004	269.112055962003	"9"	47581.830211662	47579.392339051	1.5	0.1
0.01	1	0.0527158039985807	1	106	NA	288.292974013006	0	0.850000000000001	3.09	1	269.343502486001	269.39621829	"9"	47581.830211662	47579.392339051	1.5	0.1
0.01	1	0.00297930799570167	1	106	NA	288.292974013006	0	0.850000000000001	3.09	1	269.627423738006	269.630403046001	"9"	47581.830211662	47579.392339051	1.5	0.1
0.01	1	0.0228091070021037	1	106	NA	288.292974013006	0	0.850000000000001	3.09	1	269.861132986	269.883942093002	"9"	47581.830211662	47579.392339051	1.5	0.1
0.01	1	0.00244511000346392	1	106	NA	288.292974013006	0	0.850000000000001	3.09	1	270.111517662001	270.113962772004	"9"	47581.830211662	47579.392339051	1.5	0.1
0.01	1	0.00232890700135613	1	106	NA	288.292974013006	0	0.850000000000001	3.09	1	270.345323039001	270.347651946002	"9"	47581.830211662	47579.392339051	1.5	0.1
0.01	1	0.00198067399469437	1	106	NA	288.292974013006	0	0.850000000000001	3.09	1	270.579031614005	270.581012287999	"9"	47581.830211662	47579.392339051	1.5	0.1
0.01	1	0.128114637002	1	106	NA	288.292974013006	0	0.850000000000001	3.09	1	270.812668705999	270.940783343001	"9"	47581.830211662	47579.392339051	1.5	0.1
0.01	1	0.00211250700522214	1	106	NA	288.292974013006	0	0.850000000000001	3.09	1	271.163225803	271.165338310006	"9"	47581.830211662	47579.392339051	1.5	0.1
0.01	1	0.00219079599628458	1	106	NA	288.292974013006	0	0.850000000000001	3.09	1	271.397010072003	271.399200868	"9"	47581.830211662	47579.392339051	1.5	0.1
0.01	1	0.0848661139971227	1	106	NA	288.292974013006	0	0.850000000000001	3.09	1	271.630673192005	271.715539306002	"9"	47581.830211662	47579.392339051	1.5	0.1
0.01	1	0.00213309899845626	1	106	NA	288.292974013006	0	0.850000000000001	3.09	1	271.947939103004	271.950072202002	"9"	47581.830211662	47579.392339051	1.5	0.1
0.01	1	0.00227237399667501	1	106	NA	288.292974013006	0	0.850000000000001	3.09	1	272.181699762004	272.183972136001	"9"	47581.830211662	47579.392339051	1.5	0.1
0.01	1	0.00205748800362926	1	106	NA	288.292974013006	0	0.850000000000001	3.09	1	272.415463584002	272.417521072006	"9"	47581.830211662	47579.392339051	1.5	0.1
0.01	1	0.00364589700620854	1	106	NA	288.292974013006	0	0.850000000000001	3.09	1	272.649061743999	272.652707641006	"9"	47581.830211662	47579.392339051	1.5	0.1
0.01	1	0.0564916669973172	1	106	NA	288.292974013006	0	0.850000000000001	3.09	1	272.882816526006	272.939308193003	"9"	47581.830211662	47579.392339051	1.5	0.1
0.01	1	0.00238079800328705	1	106	NA	288.292974013006	0	0.850000000000001	3.09	1	273.166724451999	273.169105250003	"9"	47581.830211662	47579.392339051	1.5	0.1
0.01	1	0.00457000499591231	1	106	NA	288.292974013006	0	0.850000000000001	3.09	1	273.400597914006	273.405167919002	"9"	47581.830211662	47579.392339051	1.5	0.1
0.01	1	0.146645631997671	1	106	NA	288.292974013006	0	0.850000000000001	3.09	1	273.634048917003	273.780694549001	"9"	47581.830211662	47579.392339051	1.5	0.1
0.01	1	0.00215736099926289	1	106	NA	288.292974013006	0	0.850000000000001	3.09	1	274.018243980005	274.020401341004	"9"	47581.830211662	47579.392339051	1.5	0.1
0.01	1	0.00214156100264518	1	106	NA	288.292974013006	0	0.850000000000001	3.09	1	274.251875579001	274.254017140003	"9"	47581.830211662	47579.392339051	1.5	0.1
0.01	1	0.00220388299931074	1	106	NA	288.292974013006	0	0.850000000000001	3.09	1	274.485491093001	274.487694976	"9"	47581.830211662	47579.392339051	1.5	0.1
0.01	1	0.00207979500555666	1	106	NA	288.292974013006	0	0.850000000000001	3.09	1	274.719372113999	274.721451909005	"9"	47581.830211662	47579.392339051	1.5	0.1
0.01	1	0.00216367399843875	1	106	NA	288.292974013006	0	0.850000000000001	3.09	1	274.952960654002	274.955124328	"9"	47581.830211662	47579.392339051	1.5	0.1
0.01	1	0.0020913210028084	1	106	NA	288.292974013006	0	0.850000000000001	3.09	1	275.186832277999	275.188923599002	"9"	47581.830211662	47579.392339051	1.5	0.1
0.01	1	0.00212231400655583	1	106	NA	288.292974013006	0	0.850000000000001	3.09	1	275.420411779	275.422534093006	"9"	47581.830211662	47579.392339051	1.5	0.1
0.01	1	0.00219139800174162	1	106	NA	288.292974013006	0	0.850000000000001	3.09	1	275.654196629002	275.656388027004	"9"	47581.830211662	47579.392339051	1.5	0.1
0.01	1	0.00204522100102622	1	106	NA	288.292974013006	0	0.850000000000001	3.09	1	275.887952270001	275.889997491002	"9"	47581.830211662	47579.392339051	1.5	0.1
0.01	1	0.00221119399793679	1	106	NA	288.292974013006	0	0.850000000000001	3.09	1	276.121601664003	276.123812858001	"9"	47581.830211662	47579.392339051	1.5	0.1
0.01	1	0.12776141899667	1	106	NA	288.292974013006	0	0.850000000000001	3.09	1	276.355335750006	276.483097169003	"9"	47581.830211662	47579.392339051	1.5	0.1
0.01	1	0.0188243949960452	1	106	NA	288.292974013006	0	0.850000000000001	3.09	1	276.705885740004	276.724710135	"9"	47581.830211662	47579.392339051	1.5	0.1
0.01	1	0.00213599499693373	1	106	NA	288.292974013006	0	0.850000000000001	3.09	1	276.956302771003	276.958438766	"9"	47581.830211662	47579.392339051	1.5	0.1
0.01	1	0.002171502004785	1	106	NA	288.292974013006	0	0.850000000000001	3.09	1	277.19010272	277.192274222005	"9"	47581.830211662	47579.392339051	1.5	0.1
0.01	1	0.00218990400026087	1	106	NA	288.292974013006	0	0.850000000000001	3.09	1	277.423752266004	277.425942170004	"9"	47581.830211662	47579.392339051	1.5	0.1
0.01	1	0.00218270700133871	1	106	NA	288.292974013006	0	0.850000000000001	3.09	1	277.657505659001	277.659688366002	"9"	47581.830211662	47579.392339051	1.5	0.1
0.01	1	0.00459817000228213	1	106	NA	288.292974013006	0	0.850000000000001	3.09	1	277.891427289003	277.896025459006	"9"	47581.830211662	47579.392339051	1.5	0.1
0.01	1	0.00220133700349834	1	106	NA	288.292974013006	0	0.850000000000001	3.09	1	278.125037641999	278.127238979003	"9"	47581.830211662	47579.392339051	1.5	0.1
0.01	1	0.0021854570004507	1	106	NA	288.292974013006	0	0.850000000000001	3.09	1	278.358732651999	278.360918109	"9"	47581.830211662	47579.392339051	1.5	0.1
0.01	1	0.00461022699892055	1	106	NA	288.292974013006	0	0.850000000000001	3.09	1	278.592565144005	278.597175371004	"9"	47581.830211662	47579.392339051	1.5	0.1
0.01	1	0.00220469199848594	1	106	NA	288.292974013006	0	0.850000000000001	3.09	1	278.826135499003	278.828340191001	"9"	47581.830211662	47579.392339051	1.5	0.1
0.01	1	0.00218777800182579	1	106	NA	288.292974013006	0	0.850000000000001	3.09	1	279.059883722002	279.062071500004	"9"	47581.830211662	47579.392339051	1.5	0.1
0.01	1	0.0019852070035995	1	106	NA	288.292974013006	0	0.850000000000001	3.09	1	279.293743672002	279.295728879006	"9"	47581.830211662	47579.392339051	1.5	0.1
0.01	1	0.00467757000296842	1	106	NA	288.292974013006	0	0.850000000000001	3.09	1	279.527472879003	279.532150449006	"9"	47581.830211662	47579.392339051	1.5	0.1
0.01	1	0.00205782500415808	1	106	NA	288.292974013006	0	0.850000000000001	3.09	1	279.761056900999	279.763114726004	"9"	47581.830211662	47579.392339051	1.5	0.1
0.01	1	0.00218927500100108	1	106	NA	288.292974013006	0	0.850000000000001	3.09	1	279.994805576003	279.996994851004	"9"	47581.830211662	47579.392339051	1.5	0.1
0.01	1	0.00230196800112026	1	106	NA	288.292974013006	0	0.850000000000001	3.09	1	280.228558510003	280.230860478005	"9"	47581.830211662	47579.392339051	1.5	0.1
0.01	1	0.00218690800102195	1	106	NA	288.292974013006	0	0.850000000000001	3.09	1	280.462272809003	280.464459717005	"9"	47581.830211662	47579.392339051	1.5	0.1
0.01	1	0.0024738680003793	1	106	NA	288.292974013006	0	0.850000000000001	3.09	1	280.696006384002	280.698480252002	"9"	47581.830211662	47579.392339051	1.5	0.1
0.01	1	0.00212266999733401	1	106	NA	288.292974013006	0	0.850000000000001	3.09	1	280.929660141002	280.931782811	"9"	47581.830211662	47579.392339051	1.5	0.1
0.01	1	0.00217833899660036	1	106	NA	288.292974013006	0	0.850000000000001	3.09	1	281.163477165006	281.165655504003	"9"	47581.830211662	47579.392339051	1.5	0.1
0.01	1	0.00222436300100526	1	106	NA	288.292974013006	0	0.850000000000001	3.09	1	281.397142816	281.399367179001	"9"	47581.830211662	47579.392339051	1.5	0.1
0.01	1	0.00219619199924637	1	106	NA	288.292974013006	0	0.850000000000001	3.09	1	281.631057186001	281.633253378001	"9"	47581.830211662	47579.392339051	1.5	0.1
0.01	1	0.00221822000457905	1	106	NA	288.292974013006	0	0.850000000000001	3.09	1	281.864585306001	281.866803526005	"9"	47581.830211662	47579.392339051	1.5	0.1
0.01	1	0.00224198799696751	1	106	NA	288.292974013006	0	0.850000000000001	3.09	1	282.098311291003	282.100553279	"9"	47581.830211662	47579.392339051	1.5	0.1
0.01	1	0.112365839995618	1	106	NA	288.292974013006	0	0.850000000000001	3.09	1	282.332060714005	282.444426554001	"9"	47581.830211662	47579.392339051	1.5	0.1
0.01	1	0.00311391000286676	1	106	NA	288.292974013006	0	0.850000000000001	3.09	1	282.682659951002	282.685773861005	"9"	47581.830211662	47579.392339051	1.5	0.1
0.01	1	0.00203156600036891	1	106	NA	288.292974013006	0	0.850000000000001	3.09	1	282.916404390002	282.918435956002	"9"	47581.830211662	47579.392339051	1.5	0.1
0.01	1	0.00239024800248444	1	106	NA	288.292974013006	0	0.850000000000001	3.09	1	283.150120924001	283.152511172004	"9"	47581.830211662	47579.392339051	1.5	0.1
0.01	1	0.00222748400119599	1	106	NA	288.292974013006	0	0.850000000000001	3.09	1	283.383909306001	283.386136790003	"9"	47581.830211662	47579.392339051	1.5	0.1
0.01	1	0.00246670300111873	1	106	NA	288.292974013006	0	0.850000000000001	3.09	1	283.617573989002	283.620040692003	"9"	47581.830211662	47579.392339051	1.5	0.1
0.01	1	0.00227783100126544	1	106	NA	288.292974013006	0	0.850000000000001	3.09	1	283.851253409004	283.853531240005	"9"	47581.830211662	47579.392339051	1.5	0.1
0.01	1	0.00222044000111055	1	106	NA	288.292974013006	0	0.850000000000001	3.09	1	284.085043739004	284.087264179005	"9"	47581.830211662	47579.392339051	1.5	0.1
0.01	1	0.00221236899960786	1	106	NA	288.292974013006	0	0.850000000000001	3.09	1	284.318795866006	284.321008235005	"9"	47581.830211662	47579.392339051	1.5	0.1
0.01	1	0.00222096200013766	1	106	NA	288.292974013006	0	0.850000000000001	3.09	1	284.552522559999	284.554743522	"9"	47581.830211662	47579.392339051	1.5	0.1
0.01	1	0.00208698099595495	1	106	NA	288.292974013006	0	0.850000000000001	3.09	1	284.786196033005	284.788283014001	"9"	47581.830211662	47579.392339051	1.5	0.1
0.01	1	0.00209520100179361	1	106	NA	288.292974013006	0	0.850000000000001	3.09	1	285.019957750999	285.022052952001	"9"	47581.830211662	47579.392339051	1.5	0.1
0.01	1	0.00631386599707184	1	106	NA	288.292974013006	0	0.850000000000001	3.09	1	285.253781905005	285.260095771002	"9"	47581.830211662	47579.392339051	1.5	0.1
0.01	1	0.0291043190009077	1	106	NA	288.292974013006	0	0.850000000000001	3.09	1	285.487306733005	285.516411052005	"9"	47581.830211662	47579.392339051	1.5	0.1
0.01	1	0.00228559400420636	1	106	NA	288.292974013006	0	0.850000000000001	3.09	1	285.754462924	285.756748518004	"9"	47581.830211662	47579.392339051	1.5	0.1
0.01	1	0.00229197600128828	1	106	NA	288.292974013006	0	0.850000000000001	3.09	1	285.988155072002	285.990447048003	"9"	47581.830211662	47579.392339051	1.5	0.1
0.01	1	0.00222536500223214	1	106	NA	288.292974013006	0	0.850000000000001	3.09	1	286.221896287003	286.224121652005	"9"	47581.830211662	47579.392339051	1.5	0.1
0.01	1	0.00461854499735637	1	106	NA	288.292974013006	0	0.850000000000001	3.09	1	286.455690473005	286.460309018003	"9"	47581.830211662	47579.392339051	1.5	0.1
0.01	1	0.00226729000132764	1	106	NA	288.292974013006	0	0.850000000000001	3.09	1	286.689308724002	286.691576014004	"9"	47581.830211662	47579.392339051	1.5	0.1
0.01	1	0.00216966899461113	1	106	NA	288.292974013006	0	0.850000000000001	3.09	1	286.923062320006	286.925231989	"9"	47581.830211662	47579.392339051	1.5	0.1
0.01	1	0.00206112999876495	1	106	NA	288.292974013006	0	0.850000000000001	3.09	1	287.156898382003	287.158959512002	"9"	47581.830211662	47579.392339051	1.5	0.1
0.01	1	0.0021855679951841	1	106	NA	288.292974013006	0	0.850000000000001	3.09	1	287.390630516005	287.392816084001	"9"	47581.830211662	47579.392339051	1.5	0.1
0.01	1	0.00209840099705616	1	106	NA	288.292974013006	0	0.850000000000001	3.09	1	287.624207771005	287.626306172002	"9"	47581.830211662	47579.392339051	1.5	0.1
0.01	1	0.00235323300148593	1	106	NA	288.292974013006	0	0.850000000000001	3.09	1	287.858063466003	287.860416699004	"9"	47581.830211662	47579.392339051	1.5	0.1
0.01	1	0.199637149002228	2	106	NA	288.292974013006	0	0.850000000000001	3.09	1	288.091767029	288.291404178002	"9"	47581.830211662	47579.392339051	1.5	0.1
0.01	1	1.06554085500102	1	21	296.524091478001	NA	1	0	3.09	1	290.345517695001	291.411058550002	"10"	47581.830211662	47579.392339051	1.5	0.1
0.01	1	0.00220737500058021	1	21	296.524091478001	NA	1	0	3.09	1	291.647809447	291.650016822001	"10"	47581.830211662	47579.392339051	1.5	0.1
0.01	1	0.00226081699656788	1	21	296.524091478001	NA	1	0	3.09	1	291.881457940006	291.883718757002	"10"	47581.830211662	47579.392339051	1.5	0.1
0.01	1	0.00208716099587036	1	21	296.524091478001	NA	1	0	3.09	1	292.115130262006	292.117217423001	"10"	47581.830211662	47579.392339051	1.5	0.1
0.01	1	0.00220152099791449	1	21	296.524091478001	NA	1	0	3.09	1	292.348862142004	292.351063663002	"10"	47581.830211662	47579.392339051	1.5	0.1
0.01	1	0.00219941500108689	1	21	296.524091478001	NA	1	0	3.09	1	292.582664886002	292.584864301003	"10"	47581.830211662	47579.392339051	1.5	0.1
0.01	1	0.00225180399866076	1	21	296.524091478001	NA	1	0	3.09	1	292.816366562001	292.818618366	"10"	47581.830211662	47579.392339051	1.5	0.1
0.01	1	0.0727750190053484	1	21	296.524091478001	NA	1	0	3.09	1	293.050117532999	293.122892552004	"10"	47581.830211662	47579.392339051	1.5	0.1
0.01	1	0.00211389800097095	1	21	296.524091478001	NA	1	0	3.09	1	293.350665026002	293.352778924003	"10"	47581.830211662	47579.392339051	1.5	0.1
0.01	1	0.00250984099693596	1	21	296.524091478001	NA	1	0	3.09	1	293.584374736005	293.586884577002	"10"	47581.830211662	47579.392339051	1.5	0.1
0.01	1	0.00221855800191406	1	21	296.524091478001	NA	1	0	3.09	1	293.818107095001	293.820325653003	"10"	47581.830211662	47579.392339051	1.5	0.1
0.01	1	0.0879065380067914	1	21	296.524091478001	NA	1	0	3.09	1	294.051816097999	294.139722636006	"10"	47581.830211662	47579.392339051	1.5	0.1
0.01	1	0.00202427100157365	1	21	296.524091478001	NA	1	0	3.09	1	294.369019297003	294.371043568004	"10"	47581.830211662	47579.392339051	1.5	0.1
0.01	1	0.00216956900112564	1	21	296.524091478001	NA	1	0	3.09	1	294.602625293999	294.604794863	"10"	47581.830211662	47579.392339051	1.5	0.1
0.01	1	0.0640318639998441	1	21	296.524091478001	NA	1	0	3.09	1	294.836391557001	294.900423421001	"10"	47581.830211662	47579.392339051	1.5	0.1
0.01	1	0.0022549519999302	1	21	296.524091478001	NA	1	0	3.09	1	295.136971997999	295.139226949999	"10"	47581.830211662	47579.392339051	1.5	0.1
0.01	1	0.00219172200013418	1	21	296.524091478001	NA	1	0	3.09	1	295.370665836002	295.372857558003	"10"	47581.830211662	47579.392339051	1.5	0.1
0.01	1	0.00243557700014208	1	21	296.524091478001	NA	1	0	3.09	1	295.604435052999	295.606870629999	"10"	47581.830211662	47579.392339051	1.5	0.1
0.01	1	0.110724910002318	1	21	296.524091478001	NA	1	0	3.09	1	295.838066042001	295.948790952003	"10"	47581.830211662	47579.392339051	1.5	0.1
0.01	1	0.00234230999922147	1	21	296.524091478001	NA	1	0	3.09	1	296.172079918004	296.174422228003	"10"	47581.830211662	47579.392339051	1.5	0.1
0.01	1	0.00221637299546273	1	21	296.524091478001	NA	1	0	3.09	1	296.405702993005	296.407919366	"10"	47581.830211662	47579.392339051	1.5	0.1
0.01	1	0.284317978999752	1	19	303.335506041003	NA	1	0	3.09	1	298.576165891005	298.860483870005	"11"	47581.830211662	47579.392339051	1.5	0.1
0.01	1	0.00234999300300842	1	19	303.335506041003	NA	1	0	3.09	1	299.093528019002	299.095878012005	"11"	47581.830211662	47579.392339051	1.5	0.1
0.01	1	0.00343733000045177	1	19	303.335506041003	NA	1	0	3.09	1	299.327302394006	299.330739724006	"11"	47581.830211662	47579.392339051	1.5	0.1
0.01	1	0.00216106299922103	1	19	303.335506041003	NA	1	0	3.09	1	299.561067531002	299.563228594001	"11"	47581.830211662	47579.392339051	1.5	0.1
0.01	1	0.0645037459980813	1	19	303.335506041003	NA	1	0	3.09	1	299.794778435004	299.859282181002	"11"	47581.830211662	47579.392339051	1.5	0.1
0.01	1	0.0604844620029326	1	19	303.335506041003	NA	1	0	3.09	1	300.095290684003	300.155775146006	"11"	47581.830211662	47579.392339051	1.5	0.1
0.01	1	0.00204620500153396	1	19	303.335506041003	NA	1	0	3.09	1	300.379184746002	300.381230951003	"11"	47581.830211662	47579.392339051	1.5	0.1
0.01	1	0.00231113400514005	1	19	303.335506041003	NA	1	0	3.09	1	300.612767626	300.615078760005	"11"	47581.830211662	47579.392339051	1.5	0.1
0.01	1	0.0304721440043068	1	19	303.335506041003	NA	1	0	3.09	1	300.846589528999	300.877061673003	"11"	47581.830211662	47579.392339051	1.5	0.1
0.01	1	0.00359288600157015	1	19	303.335506041003	NA	1	0	3.09	1	301.113648284001	301.117241170003	"11"	47581.830211662	47579.392339051	1.5	0.1
0.01	1	0.00196560999756912	1	19	303.335506041003	NA	1	0	3.09	1	301.347515721005	301.349481331003	"11"	47581.830211662	47579.392339051	1.5	0.1
0.01	1	0.00205943000037223	1	19	303.335506041003	NA	1	0	3.09	1	301.581144470001	301.583203900002	"11"	47581.830211662	47579.392339051	1.5	0.1
0.01	1	0.00251184499938972	1	19	303.335506041003	NA	1	0	3.09	1	301.814860878003	301.817372723002	"11"	47581.830211662	47579.392339051	1.5	0.1
0.01	1	0.00227973899745848	1	19	303.335506041003	NA	1	0	3.09	1	302.048507919004	302.050787658001	"11"	47581.830211662	47579.392339051	1.5	0.1
0.01	1	0.00254068799404195	1	19	303.335506041003	NA	1	0	3.09	1	302.282222288006	302.284762976	"11"	47581.830211662	47579.392339051	1.5	0.1
0.01	1	0.00210498199885478	1	19	303.335506041003	NA	1	0	3.09	1	302.516030096005	302.518135078004	"11"	47581.830211662	47579.392339051	1.5	0.1
0.01	1	0.00222095000208355	1	19	303.335506041003	NA	1	0	3.09	1	302.749747939	302.751968889002	"11"	47581.830211662	47579.392339051	1.5	0.1
0.01	1	0.00363594399823342	1	19	303.335506041003	NA	1	0	3.09	1	302.983502451003	302.987138395001	"11"	47581.830211662	47579.392339051	1.5	0.1
0.01	1	0.00220049899508012	1	19	303.335506041003	NA	1	0	3.09	1	303.217153720005	303.219354219	"11"	47581.830211662	47579.392339051	1.5	0.1
0.01	1	0.00230612800078234	1	63	320.448579018004	NA	1	0	3.09	1	305.37083611	305.373142238001	"12"	47581.830211662	47579.392339051	1.5	0.1
0.01	1	0.00346053300017957	1	63	320.448579018004	NA	1	0	3.09	1	305.604585189001	305.608045722001	"12"	47581.830211662	47579.392339051	1.5	0.1
0.01	1	0.00241218999872217	1	63	320.448579018004	NA	1	0	3.09	1	305.838296596005	305.840708786003	"12"	47581.830211662	47579.392339051	1.5	0.1
0.01	1	0.00222113500058185	1	63	320.448579018004	NA	1	0	3.09	1	306.072038294005	306.074259429006	"12"	47581.830211662	47579.392339051	1.5	0.1
0.01	1	0.00212138000642881	1	63	320.448579018004	NA	1	0	3.09	1	306.305637953999	306.307759334006	"12"	47581.830211662	47579.392339051	1.5	0.1
0.01	1	0.00235868099844083	1	63	320.448579018004	NA	1	0	3.09	1	306.539574517003	306.541933198001	"12"	47581.830211662	47579.392339051	1.5	0.1
0.01	1	0.00206090699794004	1	63	320.448579018004	NA	1	0	3.09	1	306.773197127004	306.775258034002	"12"	47581.830211662	47579.392339051	1.5	0.1
0.01	1	0.00200992800091626	1	63	320.448579018004	NA	1	0	3.09	1	307.006956372003	307.008966300004	"12"	47581.830211662	47579.392339051	1.5	0.1
0.01	1	0.0020754989964189	1	63	320.448579018004	NA	1	0	3.09	1	307.240583472005	307.242658971001	"12"	47581.830211662	47579.392339051	1.5	0.1
0.01	1	0.00223555800039321	1	63	320.448579018004	NA	1	0	3.09	1	307.474258792005	307.476494350005	"12"	47581.830211662	47579.392339051	1.5	0.1
0.01	1	0.118723617997603	1	63	320.448579018004	NA	1	0	3.09	1	307.708096728005	307.826820346003	"12"	47581.830211662	47579.392339051	1.5	0.1
0.01	1	0.0248235249964637	1	63	320.448579018004	NA	1	0	3.09	1	308.058602333003	308.083425858	"12"	47581.830211662	47579.392339051	1.5	0.1
0.01	1	0.00229444700380554	1	63	320.448579018004	NA	1	0	3.09	1	308.309033532001	308.311327979005	"12"	47581.830211662	47579.392339051	1.5	0.1
0.01	1	0.002195130000473	1	63	320.448579018004	NA	1	0	3.09	1	308.542801604999	308.544996735	"12"	47581.830211662	47579.392339051	1.5	0.1
0.01	1	0.00221142100053839	1	63	320.448579018004	NA	1	0	3.09	1	308.776591992006	308.778803413006	"12"	47581.830211662	47579.392339051	1.5	0.1
0.01	1	0.00207619900174905	1	63	320.448579018004	NA	1	0	3.09	1	309.010382631001	309.012458830002	"12"	47581.830211662	47579.392339051	1.5	0.1
0.01	1	0.00212782699964009	1	63	320.448579018004	NA	1	0	3.09	1	309.244089486005	309.246217313004	"12"	47581.830211662	47579.392339051	1.5	0.1
0.01	1	0.00218139900243841	1	63	320.448579018004	NA	1	0	3.09	1	309.477653463	309.479834862002	"12"	47581.830211662	47579.392339051	1.5	0.1
0.01	1	0.00270665900461609	1	63	320.448579018004	NA	1	0	3.09	1	309.71142906	309.714135719005	"12"	47581.830211662	47579.392339051	1.5	0.1
0.01	1	0.00360674499825109	1	63	320.448579018004	NA	1	0	3.09	1	309.945221369002	309.948828114	"12"	47581.830211662	47579.392339051	1.5	0.1
0.01	1	0.00371238500520121	1	63	320.448579018004	NA	1	0	3.09	1	310.179007831	310.182720216006	"12"	47581.830211662	47579.392339051	1.5	0.1
0.01	1	0.103998682003294	1	63	320.448579018004	NA	1	0	3.09	1	310.412562928999	310.516561611003	"12"	47581.830211662	47579.392339051	1.5	0.1
0.01	1	0.00213105000148062	1	63	320.448579018004	NA	1	0	3.09	1	310.746500091002	310.748631141003	"12"	47581.830211662	47579.392339051	1.5	0.1
0.01	1	0.0021224739975878	1	63	320.448579018004	NA	1	0	3.09	1	310.980185630004	310.982308104001	"12"	47581.830211662	47579.392339051	1.5	0.1
0.01	1	0.00206011299451347	1	63	320.448579018004	NA	1	0	3.09	1	311.214112101006	311.216172214001	"12"	47581.830211662	47579.392339051	1.5	0.1
0.01	1	0.00415774800057989	1	63	320.448579018004	NA	1	0	3.09	1	311.447724763006	311.451882511006	"12"	47581.830211662	47579.392339051	1.5	0.1
0.01	1	0.00218320400017546	1	63	320.448579018004	NA	1	0	3.09	1	311.681442396002	311.683625600002	"12"	47581.830211662	47579.392339051	1.5	0.1
0.01	1	0.00216839299537241	1	63	320.448579018004	NA	1	0	3.09	1	311.915119285004	311.917287677999	"12"	47581.830211662	47579.392339051	1.5	0.1
0.01	1	0.00220877899846528	1	63	320.448579018004	NA	1	0	3.09	1	312.148816313005	312.151025092004	"12"	47581.830211662	47579.392339051	1.5	0.1
0.01	1	0.00225561099796323	1	63	320.448579018004	NA	1	0	3.09	1	312.382604852006	312.384860463004	"12"	47581.830211662	47579.392339051	1.5	0.1
0.01	1	0.00225018999481108	1	63	320.448579018004	NA	1	0	3.09	1	312.616359572006	312.618609762001	"12"	47581.830211662	47579.392339051	1.5	0.1
0.01	1	0.106551591001335	1	63	320.448579018004	NA	1	0	3.09	1	312.850018562	312.956570153001	"12"	47581.830211662	47579.392339051	1.5	0.1
0.01	1	0.00216948500019498	1	63	320.448579018004	NA	1	0	3.09	1	313.183908708001	313.186078193001	"12"	47581.830211662	47579.392339051	1.5	0.1
0.01	1	0.00220123700273689	1	63	320.448579018004	NA	1	0	3.09	1	313.417719491001	313.419920728003	"12"	47581.830211662	47579.392339051	1.5	0.1
0.01	1	0.00211623900395352	1	63	320.448579018004	NA	1	0	3.09	1	313.651507950999	313.653624190003	"12"	47581.830211662	47579.392339051	1.5	0.1
0.01	1	0.00219441799708875	1	63	320.448579018004	NA	1	0	3.09	1	313.885081218003	313.887275636	"12"	47581.830211662	47579.392339051	1.5	0.1
0.01	1	0.00250365100509953	1	63	320.448579018004	NA	1	0	3.09	1	314.11884766	314.121351311005	"12"	47581.830211662	47579.392339051	1.5	0.1
0.01	1	0.00209733000519918	1	63	320.448579018004	NA	1	0	3.09	1	314.35250221	314.354599540005	"12"	47581.830211662	47579.392339051	1.5	0.1
0.01	1	0.00218766200123355	1	63	320.448579018004	NA	1	0	3.09	1	314.586309819002	314.588497481003	"12"	47581.830211662	47579.392339051	1.5	0.1
0.01	1	0.00221309599874076	1	63	320.448579018004	NA	1	0	3.09	1	314.820005539004	314.822218635003	"12"	47581.830211662	47579.392339051	1.5	0.1
0.01	1	0.0221502630010946	1	63	320.448579018004	NA	1	0	3.09	1	315.053693851005	315.075844114006	"12"	47581.830211662	47579.392339051	1.5	0.1
0.01	1	0.00693904200306861	1	63	320.448579018004	NA	1	0	3.09	1	315.304126483003	315.311065525006	"12"	47581.830211662	47579.392339051	1.5	0.1
0.01	1	0.00229245000082301	1	63	320.448579018004	NA	1	0	3.09	1	315.537893266002	315.540185716003	"12"	47581.830211662	47579.392339051	1.5	0.1
0.01	1	0.00221147399861366	1	63	320.448579018004	NA	1	0	3.09	1	315.771696201002	315.773907675	"12"	47581.830211662	47579.392339051	1.5	0.1
0.01	1	0.00219924800330773	1	63	320.448579018004	NA	1	0	3.09	1	316.005284854	316.007484102003	"12"	47581.830211662	47579.392339051	1.5	0.1
0.01	1	0.00219475600169972	1	63	320.448579018004	NA	1	0	3.09	1	316.23900763	316.241202386002	"12"	47581.830211662	47579.392339051	1.5	0.1
0.01	1	0.00218688199674943	1	63	320.448579018004	NA	1	0	3.09	1	316.472814489003	316.475001371	"12"	47581.830211662	47579.392339051	1.5	0.1
0.01	1	0.00220118900324451	1	63	320.448579018004	NA	1	0	3.09	1	316.706532112003	316.708733301006	"12"	47581.830211662	47579.392339051	1.5	0.1
0.01	1	0.0168347910002922	1	63	320.448579018004	NA	1	0	3.09	1	316.940199178003	316.957033969004	"12"	47581.830211662	47579.392339051	1.5	0.1
0.01	1	0.00572440699761501	1	63	320.448579018004	NA	1	0	3.09	1	317.190686991002	317.196411397999	"12"	47581.830211662	47579.392339051	1.5	0.1
0.01	1	0.018993126002897	1	63	320.448579018004	NA	1	0	3.09	1	317.424471869999	317.443464996002	"12"	47581.830211662	47579.392339051	1.5	0.1
0.01	1	0.0167246209966834	1	63	320.448579018004	NA	1	0	3.09	1	317.674765909003	317.69149053	"12"	47581.830211662	47579.392339051	1.5	0.1
0.01	1	0.00656644699483877	1	63	320.448579018004	NA	1	0	3.09	1	317.925231942005	317.931798389	"12"	47581.830211662	47579.392339051	1.5	0.1
0.01	1	0.00349984500644496	1	63	320.448579018004	NA	1	0	3.09	1	318.158994095	318.162493940006	"12"	47581.830211662	47579.392339051	1.5	0.1
0.01	1	0.0194983910041628	1	63	320.448579018004	NA	1	0	3.09	1	318.392730817999	318.412229209003	"12"	47581.830211662	47579.392339051	1.5	0.1
0.01	1	0.00852291900082491	1	63	320.448579018004	NA	1	0	3.09	1	318.643105193005	318.651628112006	"12"	47581.830211662	47579.392339051	1.5	0.1
0.01	1	0.0254096050048247	1	63	320.448579018004	NA	1	0	3.09	1	318.876800439	318.902210044005	"12"	47581.830211662	47579.392339051	1.5	0.1
0.01	1	0.0196375009982148	1	63	320.448579018004	NA	1	0	3.09	1	319.127267991003	319.146905492002	"12"	47581.830211662	47579.392339051	1.5	0.1
0.01	1	0.00229274600133067	1	63	320.448579018004	NA	1	0	3.09	1	319.377678558005	319.379971304006	"12"	47581.830211662	47579.392339051	1.5	0.1
0.01	1	0.00215453100099694	1	63	320.448579018004	NA	1	0	3.09	1	319.611391721002	319.613546252003	"12"	47581.830211662	47579.392339051	1.5	0.1
0.01	1	0.00300080700253602	1	63	320.448579018004	NA	1	0	3.09	1	319.845267559002	319.848268366004	"12"	47581.830211662	47579.392339051	1.5	0.1
0.01	1	0.00235934899683343	1	63	320.448579018004	NA	1	0	3.09	1	320.078899579006	320.081258928003	"12"	47581.830211662	47579.392339051	1.5	0.1
0.01	1	0.0185047979975934	1	63	320.448579018004	NA	1	0	3.09	1	320.312590204005	320.331095002002	"12"	47581.830211662	47579.392339051	1.5	0.1
0.01	1	0.194167109999398	1	54	336.474704170003	NA	1	0	3.09	1	322.482830123001	322.676997233	"13"	47581.830211662	47579.392339051	1.5	0.1
0.01	1	0.0953604460009956	1	54	336.474704170003	NA	1	0	3.09	1	322.900232500004	322.995592946005	"13"	47581.830211662	47579.392339051	1.5	0.1
0.01	1	0.105596101995616	1	54	336.474704170003	NA	1	0	3.09	1	323.217481244006	323.323077346002	"13"	47581.830211662	47579.392339051	1.5	0.1
0.01	1	0.00203529799910029	1	54	336.474704170003	NA	1	0	3.09	1	323.551500804002	323.553536102001	"13"	47581.830211662	47579.392339051	1.5	0.1
0.01	1	0.0339799740031594	1	54	336.474704170003	NA	1	0	3.09	1	323.785095781001	323.819075755004	"13"	47581.830211662	47579.392339051	1.5	0.1
0.01	1	0.0021348520022002	1	54	336.474704170003	NA	1	0	3.09	1	324.052221864004	324.054356716006	"13"	47581.830211662	47579.392339051	1.5	0.1
0.01	1	0.110159616997407	1	54	336.474704170003	NA	1	0	3.09	1	324.285917327004	324.396076944002	"13"	47581.830211662	47579.392339051	1.5	0.1
0.01	1	0.127044570996077	1	54	336.474704170003	NA	1	0	3.09	1	324.619780236004	324.746824807	"13"	47581.830211662	47579.392339051	1.5	0.1
0.01	1	0.00205659800121794	1	54	336.474704170003	NA	1	0	3.09	1	324.970482010001	324.972538608003	"13"	47581.830211662	47579.392339051	1.5	0.1
0.01	1	0.0865960239971173	1	54	336.474704170003	NA	1	0	3.09	1	325.204205927002	325.290801951	"13"	47581.830211662	47579.392339051	1.5	0.1
0.01	1	0.00205802400159882	1	54	336.474704170003	NA	1	0	3.09	1	325.521391258	325.523449282002	"13"	47581.830211662	47579.392339051	1.5	0.1
0.01	1	0.0884616130060749	1	54	336.474704170003	NA	1	0	3.09	1	325.755151019999	325.843612633005	"13"	47581.830211662	47579.392339051	1.5	0.1
0.01	1	0.00222091899922816	1	54	336.474704170003	NA	1	0	3.09	1	326.072394742005	326.074615661004	"13"	47581.830211662	47579.392339051	1.5	0.1
0.01	1	0.0811306460018386	1	54	336.474704170003	NA	1	0	3.09	1	326.306017269002	326.387147915004	"13"	47581.830211662	47579.392339051	1.5	0.1
0.01	1	0.00220901599823264	1	54	336.474704170003	NA	1	0	3.09	1	326.623227080003	326.625436096001	"13"	47581.830211662	47579.392339051	1.5	0.1
0.01	1	0.00242938000155846	1	54	336.474704170003	NA	1	0	3.09	1	326.856943422004	326.859372802006	"13"	47581.830211662	47579.392339051	1.5	0.1
0.01	1	0.097329741998692	1	54	336.474704170003	NA	1	0	3.09	1	327.090597947004	327.187927689003	"13"	47581.830211662	47579.392339051	1.5	0.1
0.01	1	0.00220884599548299	1	54	336.474704170003	NA	1	0	3.09	1	327.424526596005	327.426735442001	"13"	47581.830211662	47579.392339051	1.5	0.1
0.01	1	0.00219895000191173	1	54	336.474704170003	NA	1	0	3.09	1	327.658291571999	327.660490522001	"13"	47581.830211662	47579.392339051	1.5	0.1
0.01	1	0.00220266299584182	1	54	336.474704170003	NA	1	0	3.09	1	327.892034970006	327.894237633001	"13"	47581.830211662	47579.392339051	1.5	0.1
0.01	1	0.0620257739938097	1	54	336.474704170003	NA	1	0	3.09	1	328.125998325006	328.188024098999	"13"	47581.830211662	47579.392339051	1.5	0.1
0.01	1	0.00243099900399102	1	54	336.474704170003	NA	1	0	3.09	1	328.426160750001	328.428591749005	"13"	47581.830211662	47579.392339051	1.5	0.1
0.01	1	0.00221373300155392	1	54	336.474704170003	NA	1	0	3.09	1	328.659993421999	328.662207155001	"13"	47581.830211662	47579.392339051	1.5	0.1
0.01	1	0.00220835600339342	1	54	336.474704170003	NA	1	0	3.09	1	328.893604956	328.895813312003	"13"	47581.830211662	47579.392339051	1.5	0.1
0.01	1	0.00223135299893329	1	54	336.474704170003	NA	1	0	3.09	1	329.127400318001	329.129631671	"13"	47581.830211662	47579.392339051	1.5	0.1
0.01	1	0.0914093659957871	1	54	336.474704170003	NA	1	0	3.09	1	329.361159832006	329.452569198002	"13"	47581.830211662	47579.392339051	1.5	0.1
0.01	1	0.00241226000071038	1	54	336.474704170003	NA	1	0	3.09	1	329.678331627001	329.680743887002	"13"	47581.830211662	47579.392339051	1.5	0.1
0.01	1	0.00224430399975972	1	54	336.474704170003	NA	1	0	3.09	1	329.912123624003	329.914367928002	"13"	47581.830211662	47579.392339051	1.5	0.1
0.01	1	0.00225030699948547	1	54	336.474704170003	NA	1	0	3.09	1	330.145840611003	330.148090918003	"13"	47581.830211662	47579.392339051	1.5	0.1
0.01	1	0.0793287589985994	1	54	336.474704170003	NA	1	0	3.09	1	330.379540239002	330.458868998001	"13"	47581.830211662	47579.392339051	1.5	0.1
0.01	1	0.00216070400347235	1	54	336.474704170003	NA	1	0	3.09	1	330.696729885	330.698890589003	"13"	47581.830211662	47579.392339051	1.5	0.1
0.01	1	0.00293636200512992	1	54	336.474704170003	NA	1	0	3.09	1	330.930443972	330.933380334005	"13"	47581.830211662	47579.392339051	1.5	0.1
0.01	1	0.0021932229938102	1	54	336.474704170003	NA	1	0	3.09	1	331.164127569005	331.166320791999	"13"	47581.830211662	47579.392339051	1.5	0.1
0.01	1	0.0946797580036218	1	54	336.474704170003	NA	1	0	3.09	1	331.397906512	331.492586270004	"13"	47581.830211662	47579.392339051	1.5	0.1
0.01	1	0.00204721100453753	1	54	336.474704170003	NA	1	0	3.09	1	331.715149279	331.717196490004	"13"	47581.830211662	47579.392339051	1.5	0.1
0.01	1	0.0022396180065698	1	54	336.474704170003	NA	1	0	3.09	1	331.948852510999	331.951092129006	"13"	47581.830211662	47579.392339051	1.5	0.1
0.01	1	0.102041942998767	1	54	336.474704170003	NA	1	0	3.09	1	332.182672216004	332.284714159003	"13"	47581.830211662	47579.392339051	1.5	0.1
0.01	1	0.00239957699523075	1	54	336.474704170003	NA	1	0	3.09	1	332.516460761006	332.518860338001	"13"	47581.830211662	47579.392339051	1.5	0.1
0.01	1	0.00651621099677868	1	54	336.474704170003	NA	1	0	3.09	1	332.750102661004	332.756618872001	"13"	47581.830211662	47579.392339051	1.5	0.1
0.01	1	0.0360220250004204	1	54	336.474704170003	NA	1	0	3.09	1	332.983790126003	333.019812151004	"13"	47581.830211662	47579.392339051	1.5	0.1
0.01	1	0.0168901119977818	1	54	336.474704170003	NA	1	0	3.09	1	333.250973026006	333.267863138004	"13"	47581.830211662	47579.392339051	1.5	0.1
0.01	1	0.00638963199889986	1	54	336.474704170003	NA	1	0	3.09	1	333.501405497002	333.507795129	"13"	47581.830211662	47579.392339051	1.5	0.1
0.01	1	0.0215638560039224	1	54	336.474704170003	NA	1	0	3.09	1	333.735105473999	333.756669330003	"13"	47581.830211662	47579.392339051	1.5	0.1
0.01	1	0.0183586869970895	1	54	336.474704170003	NA	1	0	3.09	1	333.985567879005	334.003926566002	"13"	47581.830211662	47579.392339051	1.5	0.1
0.01	1	0.00824447399645578	1	54	336.474704170003	NA	1	0	3.09	1	334.236000264005	334.244244738002	"13"	47581.830211662	47579.392339051	1.5	0.1
0.01	1	0.00229702799697407	1	54	336.474704170003	NA	1	0	3.09	1	334.469728886004	334.472025914001	"13"	47581.830211662	47579.392339051	1.5	0.1
0.01	1	0.0119417969981441	1	54	336.474704170003	NA	1	0	3.09	1	334.703465942002	334.715407739001	"13"	47581.830211662	47579.392339051	1.5	0.1
0.01	1	0.0022893919958733	1	54	336.474704170003	NA	1	0	3.09	1	334.953883801005	334.956173193001	"13"	47581.830211662	47579.392339051	1.5	0.1
0.01	1	0.00230205899424618	1	54	336.474704170003	NA	1	0	3.09	1	335.187570272006	335.189872331001	"13"	47581.830211662	47579.392339051	1.5	0.1
0.01	1	0.00235645100474358	1	54	336.474704170003	NA	1	0	3.09	1	335.421322055001	335.423678506006	"13"	47581.830211662	47579.392339051	1.5	0.1
0.01	1	0.0021902209991822	1	54	336.474704170003	NA	1	0	3.09	1	335.654997195001	335.657187416	"13"	47581.830211662	47579.392339051	1.5	0.1
