"payoff.level"	"balloon"	"rt"	"resp"	"explode.trial"	"explode.time"	"finish.time"	"exploded"	"trial.total"	"cumulative.total"	"finished"	"trial.start"	"trial.end"	"trial.num"	"secs"	"start.time"	"iti"	"isi"
0.01	1	12.2168105349999	1	64	46.7649466810001	NA	1	0	0	1	0.0156420860000708	12.232452621	"1"	3376.988870125	2458.655624355	1.5	0.1
0.01	1	1.33490043999996	1	64	46.7649466810001	NA	1	0	0	1	12.9373050860002	14.2722055260001	"1"	3376.988870125	2458.655624355	1.5	0.1
0.01	1	0.933908342999985	1	64	46.7649466810001	NA	1	0	0	1	14.506722223	15.440630566	"1"	3376.988870125	2458.655624355	1.5	0.1
0.01	1	0.533121926999911	1	64	46.7649466810001	NA	1	0	0	1	15.675356746	16.2084786729999	"1"	3376.988870125	2458.655624355	1.5	0.1
0.01	1	0.381387767999968	1	64	46.7649466810001	NA	1	0	0	1	16.443287068	16.824674836	"1"	3376.988870125	2458.655624355	1.5	0.1
0.01	1	0.324368585000002	1	64	46.7649466810001	NA	1	0	0	1	17.060993696	17.385362281	"1"	3376.988870125	2458.655624355	1.5	0.1
0.01	1	0.300541112000019	1	64	46.7649466810001	NA	1	0	0	1	17.6119359260001	17.9124770380001	"1"	3376.988870125	2458.655624355	1.5	0.1
0.01	1	0.301946568999938	1	64	46.7649466810001	NA	1	0	0	1	18.1460949700001	18.4480415390001	"1"	3376.988870125	2458.655624355	1.5	0.1
0.01	1	0.297135398999899	1	64	46.7649466810001	NA	1	0	0	1	18.6804180680001	18.977553467	"1"	3376.988870125	2458.655624355	1.5	0.1
0.01	1	0.305160764999982	1	64	46.7649466810001	NA	1	0	0	1	19.214663316	19.519824081	"1"	3376.988870125	2458.655624355	1.5	0.1
0.01	1	0.259372103999794	1	64	46.7649466810001	NA	1	0	0	1	19.7488618910002	20.008233995	"1"	3376.988870125	2458.655624355	1.5	0.1
0.01	1	0.288165483000057	1	64	46.7649466810001	NA	1	0	0	1	20.233085611	20.521251094	"1"	3376.988870125	2458.655624355	1.5	0.1
0.01	1	0.227090340000132	1	64	46.7649466810001	NA	1	0	0	1	20.750559138	20.9776494780001	"1"	3376.988870125	2458.655624355	1.5	0.1
0.01	1	0.271053157999859	1	64	46.7649466810001	NA	1	0	0	1	21.2179484180001	21.489001576	"1"	3376.988870125	2458.655624355	1.5	0.1
0.01	1	0.28154336700004	1	64	46.7649466810001	NA	1	0	0	1	21.718759808	22.000303175	"1"	3376.988870125	2458.655624355	1.5	0.1
0.01	1	0.204350063999982	1	64	46.7649466810001	NA	1	0	0	1	22.2364025860002	22.4407526500001	"1"	3376.988870125	2458.655624355	1.5	0.1
0.01	1	0.282349552999904	1	64	46.7649466810001	NA	1	0	0	1	22.6703197680001	22.952669321	"1"	3376.988870125	2458.655624355	1.5	0.1
0.01	1	0.22944402600001	1	64	46.7649466810001	NA	1	0	0	1	23.188031423	23.417475449	"1"	3376.988870125	2458.655624355	1.5	0.1
0.01	1	0.234296803000007	1	64	46.7649466810001	NA	1	0	0	1	23.6388017199999	23.873098523	"1"	3376.988870125	2458.655624355	1.5	0.1
0.01	1	0.191229682000085	1	64	46.7649466810001	NA	1	0	0	1	24.1062304110001	24.2974600930002	"1"	3376.988870125	2458.655624355	1.5	0.1
0.01	1	0.229224641999963	1	64	46.7649466810001	NA	1	0	0	1	24.523589116	24.752813758	"1"	3376.988870125	2458.655624355	1.5	0.1
0.01	1	0.193969938000009	1	64	46.7649466810001	NA	1	0	0	1	24.991033238	25.185003176	"1"	3376.988870125	2458.655624355	1.5	0.1
0.01	1	0.241318382000145	1	64	46.7649466810001	NA	1	0	0	1	25.4083952559999	25.6497136380001	"1"	3376.988870125	2458.655624355	1.5	0.1
0.01	1	0.205087529000139	1	64	46.7649466810001	NA	1	0	0	1	25.875800541	26.0808880700001	"1"	3376.988870125	2458.655624355	1.5	0.1
0.01	1	0.194552864000116	1	64	46.7649466810001	NA	1	0	0	1	26.309934251	26.5044871150001	"1"	3376.988870125	2458.655624355	1.5	0.1
0.01	1	0.202286383000001	1	64	46.7649466810001	NA	1	0	0	1	26.7272067030001	26.9294930860001	"1"	3376.988870125	2458.655624355	1.5	0.1
0.01	1	0.166891842000041	1	64	46.7649466810001	NA	1	0	0	1	27.161422203	27.3283140450001	"1"	3376.988870125	2458.655624355	1.5	0.1
0.01	1	0.198141520000036	1	64	46.7649466810001	NA	1	0	0	1	27.561996116	27.7601376360001	"1"	3376.988870125	2458.655624355	1.5	0.1
0.01	1	0.197336706999977	1	64	46.7649466810001	NA	1	0	0	1	27.9959884060002	28.1933251130001	"1"	3376.988870125	2458.655624355	1.5	0.1
0.01	1	1.65900379899995	1	64	46.7649466810001	NA	1	0	0	1	28.4301174730001	30.0891212720001	"1"	3376.988870125	2458.655624355	1.5	0.1
0.01	1	0.00379016300007606	1	64	46.7649466810001	NA	1	0	0	1	30.316604888	30.3203950510001	"1"	3376.988870125	2458.655624355	1.5	0.1
0.01	1	0.0351823000000877	1	64	46.7649466810001	NA	1	0	0	1	30.550344536	30.5855268360001	"1"	3376.988870125	2458.655624355	1.5	0.1
0.01	1	0.00381758100002116	1	64	46.7649466810001	NA	1	0	0	1	30.8175063460001	30.8213239270001	"1"	3376.988870125	2458.655624355	1.5	0.1
0.01	1	0.71748007799988	1	64	46.7649466810001	NA	1	0	0	1	31.0512559880001	31.768736066	"1"	3376.988870125	2458.655624355	1.5	0.1
0.01	1	0.150081496999974	1	64	46.7649466810001	NA	1	0	0	1	32.0027257510001	32.152807248	"1"	3376.988870125	2458.655624355	1.5	0.1
0.01	1	0.109312387000045	1	64	46.7649466810001	NA	1	0	0	1	32.386797568	32.4961099550001	"1"	3376.988870125	2458.655624355	1.5	0.1
0.01	1	0.128068533000032	1	64	46.7649466810001	NA	1	0	0	1	32.7206143880001	32.8486829210001	"1"	3376.988870125	2458.655624355	1.5	0.1
0.01	1	0.122112718000153	1	64	46.7649466810001	NA	1	0	0	1	33.0712309309999	33.1933436490001	"1"	3376.988870125	2458.655624355	1.5	0.1
0.01	1	0.10636866699997	1	64	46.7649466810001	NA	1	0	0	1	33.421910236	33.528278903	"1"	3376.988870125	2458.655624355	1.5	0.1
0.01	1	0.100339144999907	1	64	46.7649466810001	NA	1	0	0	1	33.7557232080001	33.856062353	"1"	3376.988870125	2458.655624355	1.5	0.1
0.01	1	0.111702437000076	1	64	46.7649466810001	NA	1	0	0	1	34.089627806	34.201330243	"1"	3376.988870125	2458.655624355	1.5	0.1
0.01	1	0.105656659000033	1	64	46.7649466810001	NA	1	0	0	1	34.4234825680001	34.5291392270001	"1"	3376.988870125	2458.655624355	1.5	0.1
0.01	1	1.40375583399987	1	64	46.7649466810001	NA	1	0	0	1	34.7573910160002	36.16114685	"1"	3376.988870125	2458.655624355	1.5	0.1
0.01	1	0.287534414999982	1	64	46.7649466810001	NA	1	0	0	1	36.3935792100001	36.6811136250001	"1"	3376.988870125	2458.655624355	1.5	0.1
0.01	1	0.354402983999989	1	64	46.7649466810001	NA	1	0	0	1	36.9110598310001	37.2654628150001	"1"	3376.988870125	2458.655624355	1.5	0.1
0.01	1	0.27437304	1	64	46.7649466810001	NA	1	0	0	1	37.495316321	37.769689361	"1"	3376.988870125	2458.655624355	1.5	0.1
0.01	1	0.0135109479999755	1	64	46.7649466810001	NA	1	0	0	1	37.9962343710001	38.0097453190001	"1"	3376.988870125	2458.655624355	1.5	0.1
0.01	1	0.00474939500008986	1	64	46.7649466810001	NA	1	0	0	1	38.246739556	38.2514889510001	"1"	3376.988870125	2458.655624355	1.5	0.1
0.01	1	0.00975928100001511	1	64	46.7649466810001	NA	1	0	0	1	38.4803107780001	38.4900700590001	"1"	3376.988870125	2458.655624355	1.5	0.1
0.01	1	0.142303356999946	1	64	46.7649466810001	NA	1	0	0	1	38.714067656	38.8563710129999	"1"	3376.988870125	2458.655624355	1.5	0.1
0.01	1	0.095860028999823	1	64	46.7649466810001	NA	1	0	0	1	39.0814710910001	39.17733112	"1"	3376.988870125	2458.655624355	1.5	0.1
0.01	1	1.47324140399996	1	64	46.7649466810001	NA	1	0	0	1	39.4152999110001	40.8885413150001	"1"	3376.988870125	2458.655624355	1.5	0.1
0.01	1	0.00376754800004164	1	64	46.7649466810001	NA	1	0	0	1	41.1181324910001	41.1219000390001	"1"	3376.988870125	2458.655624355	1.5	0.1
0.01	1	0.00378632000001744	1	64	46.7649466810001	NA	1	0	0	1	41.3518968010001	41.3556831210001	"1"	3376.988870125	2458.655624355	1.5	0.1
0.01	1	0.103862104999962	1	64	46.7649466810001	NA	1	0	0	1	41.585517146	41.689379251	"1"	3376.988870125	2458.655624355	1.5	0.1
0.01	1	0.00357428400002391	1	64	46.7649466810001	NA	1	0	0	1	41.919349131	41.922923415	"1"	3376.988870125	2458.655624355	1.5	0.1
0.01	1	0.159822902999849	1	64	46.7649466810001	NA	1	0	0	1	42.1532721410001	42.313095044	"1"	3376.988870125	2458.655624355	1.5	0.1
0.01	1	0.359278117000031	1	64	46.7649466810001	NA	1	0	0	1	42.537171078	42.8964491950001	"1"	3376.988870125	2458.655624355	1.5	0.1
0.01	1	0.399564315999896	1	64	46.7649466810001	NA	1	0	0	1	43.1214516310001	43.521015947	"1"	3376.988870125	2458.655624355	1.5	0.1
0.01	1	0.389158710999936	1	64	46.7649466810001	NA	1	0	0	1	43.755893258	44.145051969	"1"	3376.988870125	2458.655624355	1.5	0.1
0.01	1	0.466413402000171	1	64	46.7649466810001	NA	1	0	0	1	44.373533256	44.8399466580001	"1"	3376.988870125	2458.655624355	1.5	0.1
0.01	1	1.09327866500007	1	64	46.7649466810001	NA	1	0	0	1	45.074806048	46.1680847130001	"1"	3376.988870125	2458.655624355	1.5	0.1
0.01	1	0.00398210899993501	1	64	46.7649466810001	NA	1	0	0	1	46.3935810580001	46.397563167	"1"	3376.988870125	2458.655624355	1.5	0.1
0.01	1	0.014313273000198	1	64	46.7649466810001	NA	1	0	0	1	46.627392056	46.6417053290002	"1"	3376.988870125	2458.655624355	1.5	0.1
0.01	1	1.18680519899999	1	102	NA	80.913700333	0	0.66	0.66	1	48.814342803	50.001148002	"2"	3376.988870125	2458.655624355	1.5	0.1
0.01	1	0.359780051000143	1	102	NA	80.913700333	0	0.66	0.66	1	50.23356659	50.5933466410002	"2"	3376.988870125	2458.655624355	1.5	0.1
0.01	1	0.0398349320000762	1	102	NA	80.913700333	0	0.66	0.66	1	50.817700886	50.8575358180001	"2"	3376.988870125	2458.655624355	1.5	0.1
0.01	1	0.00265997700012122	1	102	NA	80.913700333	0	0.66	0.66	1	51.084875563	51.0875355400001	"2"	3376.988870125	2458.655624355	1.5	0.1
0.01	1	0.218719247000081	1	102	NA	80.913700333	0	0.66	0.66	1	51.318712751	51.5374319980001	"2"	3376.988870125	2458.655624355	1.5	0.1
0.01	1	0.00444818999994823	1	102	NA	80.913700333	0	0.66	0.66	1	51.7694635760001	51.7739117660001	"2"	3376.988870125	2458.655624355	1.5	0.1
0.01	1	0.00405919700006052	1	102	NA	80.913700333	0	0.66	0.66	1	52.003130088	52.0071892850001	"2"	3376.988870125	2458.655624355	1.5	0.1
0.01	1	0.075430525999991	1	102	NA	80.913700333	0	0.66	0.66	1	52.2369099800001	52.3123405060001	"2"	3376.988870125	2458.655624355	1.5	0.1
0.01	1	0.0021882689998165	1	102	NA	80.913700333	0	0.66	0.66	1	52.5373638170001	52.539552086	"2"	3376.988870125	2458.655624355	1.5	0.1
0.01	1	0.182427805000088	1	102	NA	80.913700333	0	0.66	0.66	1	52.771135768	52.9535635730001	"2"	3376.988870125	2458.655624355	1.5	0.1
0.01	1	0.00458290500000658	1	102	NA	80.913700333	0	0.66	0.66	1	53.1884178360001	53.1930007410001	"2"	3376.988870125	2458.655624355	1.5	0.1
0.01	1	0.0916504019999138	1	102	NA	80.913700333	0	0.66	0.66	1	53.4220988960001	53.513749298	"2"	3376.988870125	2458.655624355	1.5	0.1
0.01	1	0.00197412700003952	1	102	NA	80.913700333	0	0.66	0.66	1	53.7393586410001	53.7413327680001	"2"	3376.988870125	2458.655624355	1.5	0.1
0.01	1	0.090729594999857	1	102	NA	80.913700333	0	0.66	0.66	1	53.9730741830001	54.063803778	"2"	3376.988870125	2458.655624355	1.5	0.1
0.01	1	0.00382309200017517	1	102	NA	80.913700333	0	0.66	0.66	1	54.290271161	54.2940942530001	"2"	3376.988870125	2458.655624355	1.5	0.1
0.01	1	0.0844302709999738	1	102	NA	80.913700333	0	0.66	0.66	1	54.524013513	54.608443784	"2"	3376.988870125	2458.655624355	1.5	0.1
0.01	1	0.0038251290000062	1	102	NA	80.913700333	0	0.66	0.66	1	54.841210968	54.845036097	"2"	3376.988870125	2458.655624355	1.5	0.1
0.01	1	0.0450525219998781	1	102	NA	80.913700333	0	0.66	0.66	1	55.0749388080001	55.1199913299999	"2"	3376.988870125	2458.655624355	1.5	0.1
0.01	1	0.00429133800003001	1	102	NA	80.913700333	0	0.66	0.66	1	55.342020903	55.3463122410001	"2"	3376.988870125	2458.655624355	1.5	0.1
0.01	1	0.00273499900004026	1	102	NA	80.913700333	0	0.66	0.66	1	55.5757058470001	55.5784408460001	"2"	3376.988870125	2458.655624355	1.5	0.1
0.01	1	0.00366842200014617	1	102	NA	80.913700333	0	0.66	0.66	1	55.809476851	55.8131452730001	"2"	3376.988870125	2458.655624355	1.5	0.1
0.01	1	0.0861667260001013	1	102	NA	80.913700333	0	0.66	0.66	1	56.043199423	56.1293661490001	"2"	3376.988870125	2458.655624355	1.5	0.1
0.01	1	0.00388085399981719	1	102	NA	80.913700333	0	0.66	0.66	1	56.3603293610001	56.364210215	"2"	3376.988870125	2458.655624355	1.5	0.1
0.01	1	0.0716385620000892	1	102	NA	80.913700333	0	0.66	0.66	1	56.594093468	56.6657320300001	"2"	3376.988870125	2458.655624355	1.5	0.1
0.01	1	0.07462762199998	1	102	NA	80.913700333	0	0.66	0.66	1	56.894599796	56.9692274179999	"2"	3376.988870125	2458.655624355	1.5	0.1
0.01	1	0.0146134080000593	1	102	NA	80.913700333	0	0.66	0.66	1	57.195152497	57.209765905	"2"	3376.988870125	2458.655624355	1.5	0.1
0.01	1	0.00452794000011636	1	102	NA	80.913700333	0	0.66	0.66	1	57.445747691	57.4502756310001	"2"	3376.988870125	2458.655624355	1.5	0.1
0.01	1	0.0419403680000414	1	102	NA	80.913700333	0	0.66	0.66	1	57.6792714180001	57.7212117860001	"2"	3376.988870125	2458.655624355	1.5	0.1
0.01	1	0.743287977999898	1	102	NA	80.913700333	0	0.66	0.66	1	57.9463556570001	58.689643635	"2"	3376.988870125	2458.655624355	1.5	0.1
0.01	1	0.0691900570000143	1	102	NA	80.913700333	0	0.66	0.66	1	58.914704993	58.98389505	"2"	3376.988870125	2458.655624355	1.5	0.1
0.01	1	0.0248606780000955	1	102	NA	80.913700333	0	0.66	0.66	1	59.215301258	59.240161936	"2"	3376.988870125	2458.655624355	1.5	0.1
0.01	1	0.463291386000037	1	102	NA	80.913700333	0	0.66	0.66	1	59.465625023	59.9289164090001	"2"	3376.988870125	2458.655624355	1.5	0.1
0.01	1	0.36138030799998	1	102	NA	80.913700333	0	0.66	0.66	1	60.1667900480002	60.5281703560001	"2"	3376.988870125	2458.655624355	1.5	0.1
0.01	1	0.0823469130000376	1	102	NA	80.913700333	0	0.66	0.66	1	60.751257351	60.8336042640001	"2"	3376.988870125	2458.655624355	1.5	0.1
0.01	1	0.0043411050000941	1	102	NA	80.913700333	0	0.66	0.66	1	61.068371693	61.0727127980001	"2"	3376.988870125	2458.655624355	1.5	0.1
0.01	1	0.563255357999878	1	102	NA	80.913700333	0	0.66	0.66	1	61.3019962380001	61.865251596	"2"	3376.988870125	2458.655624355	1.5	0.1
0.01	1	0.0649231469999449	1	102	NA	80.913700333	0	0.66	0.66	1	62.1034994060001	62.168422553	"2"	3376.988870125	2458.655624355	1.5	0.1
0.01	1	0.533977909999976	1	102	NA	80.913700333	0	0.66	0.66	1	62.403893723	62.937871633	"2"	3376.988870125	2458.655624355	1.5	0.1
0.01	1	0.0771860390000256	1	102	NA	80.913700333	0	0.66	0.66	1	63.171923056	63.249109095	"2"	3376.988870125	2458.655624355	1.5	0.1
0.01	1	0.463365818000057	1	102	NA	80.913700333	0	0.66	0.66	1	63.4724527660001	63.9358185840001	"2"	3376.988870125	2458.655624355	1.5	0.1
0.01	1	0.0681687940000302	1	102	NA	80.913700333	0	0.66	0.66	1	64.173546016	64.2417148100001	"2"	3376.988870125	2458.655624355	1.5	0.1
0.01	1	0.0860016999999971	1	102	NA	80.913700333	0	0.66	0.66	1	64.474071286	64.560072986	"2"	3376.988870125	2458.655624355	1.5	0.1
0.01	1	0.10472707200006	1	102	NA	80.913700333	0	0.66	0.66	1	64.791317406	64.896044478	"2"	3376.988870125	2458.655624355	1.5	0.1
0.01	1	0.0603528599999663	1	102	NA	80.913700333	0	0.66	0.66	1	65.125090986	65.185443846	"2"	3376.988870125	2458.655624355	1.5	0.1
0.01	1	1.26385298700006	1	102	NA	80.913700333	0	0.66	0.66	1	65.408926371	66.6727793580001	"2"	3376.988870125	2458.655624355	1.5	0.1
0.01	1	0.0807696330000454	1	102	NA	80.913700333	0	0.66	0.66	1	66.911494126	66.992263759	"2"	3376.988870125	2458.655624355	1.5	0.1
0.01	1	0.0676514080000743	1	102	NA	80.913700333	0	0.66	0.66	1	67.2287013360001	67.2963527440002	"2"	3376.988870125	2458.655624355	1.5	0.1
0.01	1	0.0469113770000149	1	102	NA	80.913700333	0	0.66	0.66	1	67.529134916	67.576046293	"2"	3376.988870125	2458.655624355	1.5	0.1
0.01	1	1.93973411499996	1	102	NA	80.913700333	0	0.66	0.66	1	67.8130685860001	69.7528027010001	"2"	3376.988870125	2458.655624355	1.5	0.1
0.01	1	0.0814920249999886	1	102	NA	80.913700333	0	0.66	0.66	1	69.9832911160001	70.0647831410001	"2"	3376.988870125	2458.655624355	1.5	0.1
0.01	1	1.09292815000003	1	102	NA	80.913700333	0	0.66	0.66	1	70.3006078630001	71.3935360130001	"2"	3376.988870125	2458.655624355	1.5	0.1
0.01	1	0.101443617999848	1	102	NA	80.913700333	0	0.66	0.66	1	71.6195312310001	71.720974849	"2"	3376.988870125	2458.655624355	1.5	0.1
0.01	1	0.671304345999943	1	102	NA	80.913700333	0	0.66	0.66	1	71.9533418410001	72.6246461870001	"2"	3376.988870125	2458.655624355	1.5	0.1
0.01	1	0.273761557999933	1	102	NA	80.913700333	0	0.66	0.66	1	72.854854571	73.128616129	"2"	3376.988870125	2458.655624355	1.5	0.1
0.01	1	0.236196875000132	1	102	NA	80.913700333	0	0.66	0.66	1	73.355707211	73.5919040860001	"2"	3376.988870125	2458.655624355	1.5	0.1
0.01	1	0.265899953999906	1	102	NA	80.913700333	0	0.66	0.66	1	73.823187573	74.0890875269999	"2"	3376.988870125	2458.655624355	1.5	0.1
0.01	1	0.115719567000042	1	102	NA	80.913700333	0	0.66	0.66	1	74.3239851390001	74.4397047060002	"2"	3376.988870125	2458.655624355	1.5	0.1
0.01	1	0.530706819999978	1	102	NA	80.913700333	0	0.66	0.66	1	74.674649991	75.205356811	"2"	3376.988870125	2458.655624355	1.5	0.1
0.01	1	0.093812201999981	1	102	NA	80.913700333	0	0.66	0.66	1	75.4425619410001	75.5363741430001	"2"	3376.988870125	2458.655624355	1.5	0.1
0.01	1	0.488897159000089	1	102	NA	80.913700333	0	0.66	0.66	1	75.776482711	76.2653798700001	"2"	3376.988870125	2458.655624355	1.5	0.1
0.01	1	0.817769827999882	1	102	NA	80.913700333	0	0.66	0.66	1	76.4942999060002	77.312069734	"2"	3376.988870125	2458.655624355	1.5	0.1
0.01	1	0.0859470329999112	1	102	NA	80.913700333	0	0.66	0.66	1	77.5460721060001	77.632019139	"2"	3376.988870125	2458.655624355	1.5	0.1
0.01	1	1.06490014799988	1	102	NA	80.913700333	0	0.66	0.66	1	77.8633380810002	78.928238229	"2"	3376.988870125	2458.655624355	1.5	0.1
0.01	1	0.0829420819998177	1	102	NA	80.913700333	0	0.66	0.66	1	79.1654683880001	79.24841047	"2"	3376.988870125	2458.655624355	1.5	0.1
0.01	1	0.0541742469999917	1	102	NA	80.913700333	0	0.66	0.66	1	79.4827208200002	79.5368950670002	"2"	3376.988870125	2458.655624355	1.5	0.1
0.01	1	0.00218173200005367	1	102	NA	80.913700333	0	0.66	0.66	1	79.7665306250001	79.7687123570001	"2"	3376.988870125	2458.655624355	1.5	0.1
0.01	1	0.911877924999999	2	102	NA	80.913700333	0	0.66	0.66	1	80.0002399780001	80.9121179030001	"2"	3376.988870125	2458.655624355	1.5	0.1
0.01	1	1.13345485899981	1	97	NA	106.297434003	0	0.8	1.46	1	82.9551472980002	84.088602157	"3"	3376.988870125	2458.655624355	1.5	0.1
0.01	1	0.324661430000106	1	97	NA	106.297434003	0	0.8	1.46	1	84.324105296	84.6487667260001	"3"	3376.988870125	2458.655624355	1.5	0.1
0.01	1	0.00205907700001262	1	97	NA	106.297434003	0	0.8	1.46	1	84.8750349480001	84.8770940250001	"3"	3376.988870125	2458.655624355	1.5	0.1
0.01	1	0.091864034000082	1	97	NA	106.297434003	0	0.8	1.46	1	85.108827861	85.2006918950001	"3"	3376.988870125	2458.655624355	1.5	0.1
0.01	1	0.0038084230000095	1	97	NA	106.297434003	0	0.8	1.46	1	85.425909306	85.429717729	"3"	3376.988870125	2458.655624355	1.5	0.1
0.01	1	0.0021823710001172	1	97	NA	106.297434003	0	0.8	1.46	1	85.659673529	85.6618559000001	"3"	3376.988870125	2458.655624355	1.5	0.1
0.01	1	0.00361623200001304	1	97	NA	106.297434003	0	0.8	1.46	1	85.8935387609999	85.897154993	"3"	3376.988870125	2458.655624355	1.5	0.1
0.01	1	0.00361850800004504	1	97	NA	106.297434003	0	0.8	1.46	1	86.127214781	86.1308332890001	"3"	3376.988870125	2458.655624355	1.5	0.1
0.01	1	0.00382589300011205	1	97	NA	106.297434003	0	0.8	1.46	1	86.360897906	86.3647237990001	"3"	3376.988870125	2458.655624355	1.5	0.1
0.01	1	0.00449086499997975	1	97	NA	106.297434003	0	0.8	1.46	1	86.594701881	86.599192746	"3"	3376.988870125	2458.655624355	1.5	0.1
0.01	1	0.00211318200013011	1	97	NA	106.297434003	0	0.8	1.46	1	86.828306007	86.8304191890002	"3"	3376.988870125	2458.655624355	1.5	0.1
0.01	1	0.00319999199996346	1	97	NA	106.297434003	0	0.8	1.46	1	87.062028007	87.0652279989999	"3"	3376.988870125	2458.655624355	1.5	0.1
0.01	1	0.0338775220000116	1	97	NA	106.297434003	0	0.8	1.46	1	87.295742043	87.329619565	"3"	3376.988870125	2458.655624355	1.5	0.1
0.01	1	0.0136061659998177	1	97	NA	106.297434003	0	0.8	1.46	1	87.5631141180002	87.576720284	"3"	3376.988870125	2458.655624355	1.5	0.1
0.01	1	0.0601512830000956	1	97	NA	106.297434003	0	0.8	1.46	1	87.813376453	87.8735277360001	"3"	3376.988870125	2458.655624355	1.5	0.1
0.01	1	0.0483016020000377	1	97	NA	106.297434003	0	0.8	1.46	1	88.0971682260001	88.1454698280002	"3"	3376.988870125	2458.655624355	1.5	0.1
0.01	1	0.00206183199998122	1	97	NA	106.297434003	0	0.8	1.46	1	88.3810518750001	88.3831137070001	"3"	3376.988870125	2458.655624355	1.5	0.1
0.01	1	0.0664638559999275	1	97	NA	106.297434003	0	0.8	1.46	1	88.6146639210001	88.681127777	"3"	3376.988870125	2458.655624355	1.5	0.1
0.01	1	0.00378573400007554	1	97	NA	106.297434003	0	0.8	1.46	1	88.915064321	88.9188500550001	"3"	3376.988870125	2458.655624355	1.5	0.1
0.01	1	0.100072471999965	1	97	NA	106.297434003	0	0.8	1.46	1	89.1489287960001	89.249001268	"3"	3376.988870125	2458.655624355	1.5	0.1
0.01	1	0.0019939589999467	1	97	NA	106.297434003	0	0.8	1.46	1	89.4828534180001	89.4848473770001	"3"	3376.988870125	2458.655624355	1.5	0.1
0.01	1	0.00364318099991578	1	97	NA	106.297434003	0	0.8	1.46	1	89.7165569460001	89.720200127	"3"	3376.988870125	2458.655624355	1.5	0.1
0.01	1	0.0661922720000803	1	97	NA	106.297434003	0	0.8	1.46	1	89.950220229	90.0164125010001	"3"	3376.988870125	2458.655624355	1.5	0.1
0.01	1	0.00382839700000659	1	97	NA	106.297434003	0	0.8	1.46	1	90.2508322880001	90.2546606850001	"3"	3376.988870125	2458.655624355	1.5	0.1
0.01	1	0.084250258000111	1	97	NA	106.297434003	0	0.8	1.46	1	90.484515888	90.5687661460001	"3"	3376.988870125	2458.655624355	1.5	0.1
0.01	1	0.00197801500007699	1	97	NA	106.297434003	0	0.8	1.46	1	90.801772858	90.8037508730001	"3"	3376.988870125	2458.655624355	1.5	0.1
0.01	1	0.00198314199997185	1	97	NA	106.297434003	0	0.8	1.46	1	91.0354436570001	91.0374267990001	"3"	3376.988870125	2458.655624355	1.5	0.1
0.01	1	0.124445833999971	1	97	NA	106.297434003	0	0.8	1.46	1	91.2692433560001	91.39368919	"3"	3376.988870125	2458.655624355	1.5	0.1
0.01	1	0.0020269429999189	1	97	NA	106.297434003	0	0.8	1.46	1	91.6197508300002	91.6217777730001	"3"	3376.988870125	2458.655624355	1.5	0.1
0.01	1	0.00202880400001959	1	97	NA	106.297434003	0	0.8	1.46	1	91.853462906	91.85549171	"3"	3376.988870125	2458.655624355	1.5	0.1
0.01	1	0.177682451999999	1	97	NA	106.297434003	0	0.8	1.46	1	92.0872253810001	92.2649078330001	"3"	3376.988870125	2458.655624355	1.5	0.1
0.01	1	0.00458183499995357	1	97	NA	106.297434003	0	0.8	1.46	1	92.4878920160002	92.4924738510001	"3"	3376.988870125	2458.655624355	1.5	0.1
0.01	1	0.119498706000059	1	97	NA	106.297434003	0	0.8	1.46	1	92.7216830330001	92.8411817390001	"3"	3376.988870125	2458.655624355	1.5	0.1
0.01	1	0.00217868899994755	1	97	NA	106.297434003	0	0.8	1.46	1	93.0722275830001	93.074406272	"3"	3376.988870125	2458.655624355	1.5	0.1
0.01	1	0.00459452700010843	1	97	NA	106.297434003	0	0.8	1.46	1	93.305854301	93.3104488280001	"3"	3376.988870125	2458.655624355	1.5	0.1
0.01	1	0.124173907999875	1	97	NA	106.297434003	0	0.8	1.46	1	93.5395888610001	93.663762769	"3"	3376.988870125	2458.655624355	1.5	0.1
0.01	1	0.00357369199991808	1	97	NA	106.297434003	0	0.8	1.46	1	93.890178973	93.893752665	"3"	3376.988870125	2458.655624355	1.5	0.1
0.01	1	0.0134443110000575	1	97	NA	106.297434003	0	0.8	1.46	1	94.123992026	94.1374363370001	"3"	3376.988870125	2458.655624355	1.5	0.1
0.01	1	0.00210090700011278	1	97	NA	106.297434003	0	0.8	1.46	1	94.374347468	94.3764483750001	"3"	3376.988870125	2458.655624355	1.5	0.1
0.01	1	0.143868856999916	1	97	NA	106.297434003	0	0.8	1.46	1	94.6081006660002	94.7519695230001	"3"	3376.988870125	2458.655624355	1.5	0.1
0.01	1	0.00240234600005351	1	97	NA	106.297434003	0	0.8	1.46	1	94.9754152630001	94.9778176090001	"3"	3376.988870125	2458.655624355	1.5	0.1
0.01	1	0.00202985800001443	1	97	NA	106.297434003	0	0.8	1.46	1	95.2091498570001	95.2111797150001	"3"	3376.988870125	2458.655624355	1.5	0.1
0.01	1	0.00462849199993798	1	97	NA	106.297434003	0	0.8	1.46	1	95.442801526	95.447430018	"3"	3376.988870125	2458.655624355	1.5	0.1
0.01	1	0.124513521999916	1	97	NA	106.297434003	0	0.8	1.46	1	95.676671636	95.801185158	"3"	3376.988870125	2458.655624355	1.5	0.1
0.01	1	0.00233622999985528	1	97	NA	106.297434003	0	0.8	1.46	1	96.0272224130001	96.029558643	"3"	3376.988870125	2458.655624355	1.5	0.1
0.01	1	0.00466410500007441	1	97	NA	106.297434003	0	0.8	1.46	1	96.260856831	96.265520936	"3"	3376.988870125	2458.655624355	1.5	0.1
0.01	1	0.121913201000098	1	97	NA	106.297434003	0	0.8	1.46	1	96.4946181390001	96.6165313400002	"3"	3376.988870125	2458.655624355	1.5	0.1
0.01	1	0.00199116099997809	1	97	NA	106.297434003	0	0.8	1.46	1	96.8452143660002	96.8472055270001	"3"	3376.988870125	2458.655624355	1.5	0.1
0.01	1	0.00387820300011299	1	97	NA	106.297434003	0	0.8	1.46	1	97.078995678	97.0828738810001	"3"	3376.988870125	2458.655624355	1.5	0.1
0.01	1	0.09702325499984	1	97	NA	106.297434003	0	0.8	1.46	1	97.3125936860001	97.409616941	"3"	3376.988870125	2458.655624355	1.5	0.1
0.01	1	0.00395021100007398	1	97	NA	106.297434003	0	0.8	1.46	1	97.646568138	97.6505183490001	"3"	3376.988870125	2458.655624355	1.5	0.1
0.01	1	0.00204805500015937	1	97	NA	106.297434003	0	0.8	1.46	1	97.88022181	97.8822698650001	"3"	3376.988870125	2458.655624355	1.5	0.1
0.01	1	0.111156868999842	1	97	NA	106.297434003	0	0.8	1.46	1	98.1141258980001	98.225282767	"3"	3376.988870125	2458.655624355	1.5	0.1
0.01	1	0.00206061199992291	1	97	NA	106.297434003	0	0.8	1.46	1	98.4479705260001	98.450031138	"3"	3376.988870125	2458.655624355	1.5	0.1
0.01	1	0.00208700199982559	1	97	NA	106.297434003	0	0.8	1.46	1	98.6816422250001	98.683729227	"3"	3376.988870125	2458.655624355	1.5	0.1
0.01	1	0.157900039999959	1	97	NA	106.297434003	0	0.8	1.46	1	98.915403061	99.073303101	"3"	3376.988870125	2458.655624355	1.5	0.1
0.01	1	0.00380201500001931	1	97	NA	106.297434003	0	0.8	1.46	1	99.2993209860001	99.3031230010001	"3"	3376.988870125	2458.655624355	1.5	0.1
0.01	1	0.107078602999991	1	97	NA	106.297434003	0	0.8	1.46	1	99.5330645430001	99.6401431460001	"3"	3376.988870125	2458.655624355	1.5	0.1
0.01	1	0.00266018399997847	1	97	NA	106.297434003	0	0.8	1.46	1	99.866951665	99.869611849	"3"	3376.988870125	2458.655624355	1.5	0.1
0.01	1	0.00386266200007412	1	97	NA	106.297434003	0	0.8	1.46	1	100.100685261	100.104547923	"3"	3376.988870125	2458.655624355	1.5	0.1
0.01	1	0.115104217999942	1	97	NA	106.297434003	0	0.8	1.46	1	100.334459008	100.449563226	"3"	3376.988870125	2458.655624355	1.5	0.1
0.01	1	0.00240012899985231	1	97	NA	106.297434003	0	0.8	1.46	1	100.685031051	100.68743118	"3"	3376.988870125	2458.655624355	1.5	0.1
0.01	1	0.0020571300001393	1	97	NA	106.297434003	0	0.8	1.46	1	100.918700559	100.920757689	"3"	3376.988870125	2458.655624355	1.5	0.1
0.01	1	0.00453749200005404	1	97	NA	106.297434003	0	0.8	1.46	1	101.152551026	101.157088518	"3"	3376.988870125	2458.655624355	1.5	0.1
0.01	1	0.00382761700006995	1	97	NA	106.297434003	0	0.8	1.46	1	101.386146216	101.389973833	"3"	3376.988870125	2458.655624355	1.5	0.1
0.01	1	0.00210024800003339	1	97	NA	106.297434003	0	0.8	1.46	1	101.619932361	101.622032609	"3"	3376.988870125	2458.655624355	1.5	0.1
0.01	1	0.00382783400004882	1	97	NA	106.297434003	0	0.8	1.46	1	101.853651611	101.857479445	"3"	3376.988870125	2458.655624355	1.5	0.1
0.01	1	0.169901722999839	1	97	NA	106.297434003	0	0.8	1.46	1	102.087428938	102.257330661	"3"	3376.988870125	2458.655624355	1.5	0.1
0.01	1	0.00382765600011226	1	97	NA	106.297434003	0	0.8	1.46	1	102.487963563	102.491791219	"3"	3376.988870125	2458.655624355	1.5	0.1
0.01	1	0.0158901009999681	1	97	NA	106.297434003	0	0.8	1.46	1	102.721667148	102.737557249	"3"	3376.988870125	2458.655624355	1.5	0.1
0.01	1	0.00312030999998569	1	97	NA	106.297434003	0	0.8	1.46	1	102.972148689	102.975268999	"3"	3376.988870125	2458.655624355	1.5	0.1
0.01	1	0.00277871499997673	1	97	NA	106.297434003	0	0.8	1.46	1	103.206044103	103.208822818	"3"	3376.988870125	2458.655624355	1.5	0.1
0.01	1	0.00266691399997399	1	97	NA	106.297434003	0	0.8	1.46	1	103.439543489	103.442210403	"3"	3376.988870125	2458.655624355	1.5	0.1
0.01	1	0.00239421499986747	1	97	NA	106.297434003	0	0.8	1.46	1	103.673298563	103.675692778	"3"	3376.988870125	2458.655624355	1.5	0.1
0.01	1	0.00455843200006711	1	97	NA	106.297434003	0	0.8	1.46	1	103.907146091	103.911704523	"3"	3376.988870125	2458.655624355	1.5	0.1
0.01	1	0.00378940800010241	1	97	NA	106.297434003	0	0.8	1.46	1	104.140790471	104.144579879	"3"	3376.988870125	2458.655624355	1.5	0.1
0.01	1	0.145698325000012	1	97	NA	106.297434003	0	0.8	1.46	1	104.374530271	104.520228596	"3"	3376.988870125	2458.655624355	1.5	0.1
0.01	1	0.00240055400013262	1	97	NA	106.297434003	0	0.8	1.46	1	104.758577073	104.760977627	"3"	3376.988870125	2458.655624355	1.5	0.1
0.01	1	0.00414965099980691	1	97	NA	106.297434003	0	0.8	1.46	1	104.992251168	104.996400819	"3"	3376.988870125	2458.655624355	1.5	0.1
0.01	1	0.141897277999988	1	97	NA	106.297434003	0	0.8	1.46	1	105.226157556	105.368054834	"3"	3376.988870125	2458.655624355	1.5	0.1
0.01	1	0.702641919999905	2	97	NA	106.297434003	0	0.8	1.46	1	105.593262106	106.295904026	"3"	3376.988870125	2458.655624355	1.5	0.1
0.01	1	8.24315681799999	1	51	130.070803058	NA	1	0	1.46	1	108.347996586	116.591153404	"4"	3376.988870125	2458.655624355	1.5	0.1
0.01	1	0.0909411400000408	1	51	130.070803058	NA	1	0	1.46	1	116.828800988	116.919742128	"4"	3376.988870125	2458.655624355	1.5	0.1
0.01	1	0.00259410600006049	1	51	130.070803058	NA	1	0	1.46	1	117.146002051	117.148596157	"4"	3376.988870125	2458.655624355	1.5	0.1
0.01	1	0.00220534899995073	1	51	130.070803058	NA	1	0	1.46	1	117.379781804	117.381987153	"4"	3376.988870125	2458.655624355	1.5	0.1
0.01	1	0.00462380199996915	1	51	130.070803058	NA	1	0	1.46	1	117.613552606	117.618176408	"4"	3376.988870125	2458.655624355	1.5	0.1
0.01	1	0.167880452999952	1	51	130.070803058	NA	1	0	1.46	1	117.847175828	118.015056281	"4"	3376.988870125	2458.655624355	1.5	0.1
0.01	1	0.0156023440001718	1	51	130.070803058	NA	1	0	1.46	1	118.248000716	118.26360306	"4"	3376.988870125	2458.655624355	1.5	0.1
0.01	1	0.011828825000066	1	51	130.070803058	NA	1	0	1.46	1	118.498291761	118.510120586	"4"	3376.988870125	2458.655624355	1.5	0.1
0.01	1	0.00213436900003217	1	51	130.070803058	NA	1	0	1.46	1	118.732089499	118.734223868	"4"	3376.988870125	2458.655624355	1.5	0.1
0.01	1	0.00202737500012518	1	51	130.070803058	NA	1	0	1.46	1	118.965778925	118.9678063	"4"	3376.988870125	2458.655624355	1.5	0.1
0.01	1	0.00248216400018464	1	51	130.070803058	NA	1	0	1.46	1	119.199417801	119.201899965	"4"	3376.988870125	2458.655624355	1.5	0.1
0.01	1	0.00437444599992887	1	51	130.070803058	NA	1	0	1.46	1	119.43322976	119.437604206	"4"	3376.988870125	2458.655624355	1.5	0.1
0.01	1	0.10863009500008	1	51	130.070803058	NA	1	0	1.46	1	119.667059201	119.775689296	"4"	3376.988870125	2458.655624355	1.5	0.1
0.01	1	0.0020677859999978	1	51	130.070803058	NA	1	0	1.46	1	120.000915265	120.002983051	"4"	3376.988870125	2458.655624355	1.5	0.1
0.01	1	0.108232390000012	1	51	130.070803058	NA	1	0	1.46	1	120.234647126	120.342879516	"4"	3376.988870125	2458.655624355	1.5	0.1
0.01	1	0.00391310100008013	1	51	130.070803058	NA	1	0	1.46	1	120.568425686	120.572338787	"4"	3376.988870125	2458.655624355	1.5	0.1
0.01	1	0.00388227799999186	1	51	130.070803058	NA	1	0	1.46	1	120.802198721	120.806080999	"4"	3376.988870125	2458.655624355	1.5	0.1
0.01	1	0.0758898530000351	1	51	130.070803058	NA	1	0	1.46	1	121.035891076	121.111780929	"4"	3376.988870125	2458.655624355	1.5	0.1
0.01	1	0.00248291499997322	1	51	130.070803058	NA	1	0	1.46	1	121.336511427	121.338994342	"4"	3376.988870125	2458.655624355	1.5	0.1
0.01	1	0.00399039300009463	1	51	130.070803058	NA	1	0	1.46	1	121.570105386	121.574095779	"4"	3376.988870125	2458.655624355	1.5	0.1
0.01	1	0.114188769000066	1	51	130.070803058	NA	1	0	1.46	1	121.803953801	121.91814257	"4"	3376.988870125	2458.655624355	1.5	0.1
0.01	1	0.00454816499996014	1	51	130.070803058	NA	1	0	1.46	1	122.154388236	122.158936401	"4"	3376.988870125	2458.655624355	1.5	0.1
0.01	1	0.00380043199993452	1	51	130.070803058	NA	1	0	1.46	1	122.388212231	122.392012663	"4"	3376.988870125	2458.655624355	1.5	0.1
0.01	1	0.0898637420000341	1	51	130.070803058	NA	1	0	1.46	1	122.621956021	122.711819763	"4"	3376.988870125	2458.655624355	1.5	0.1
0.01	1	0.0021802740000112	1	51	130.070803058	NA	1	0	1.46	1	122.939201515	122.941381789	"4"	3376.988870125	2458.655624355	1.5	0.1
0.01	1	0.0025065249999443	1	51	130.070803058	NA	1	0	1.46	1	123.172831681	123.175338206	"4"	3376.988870125	2458.655624355	1.5	0.1
0.01	1	0.00219932100003462	1	51	130.070803058	NA	1	0	1.46	1	123.406645717	123.408845038	"4"	3376.988870125	2458.655624355	1.5	0.1
0.01	1	0.00461640999992596	1	51	130.070803058	NA	1	0	1.46	1	123.640318596	123.644935006	"4"	3376.988870125	2458.655624355	1.5	0.1
0.01	1	0.00392891199999212	1	51	130.070803058	NA	1	0	1.46	1	123.874055451	123.877984363	"4"	3376.988870125	2458.655624355	1.5	0.1
0.01	1	0.0999821899999915	1	51	130.070803058	NA	1	0	1.46	1	124.107760803	124.207742993	"4"	3376.988870125	2458.655624355	1.5	0.1
0.01	1	0.188131633000012	1	51	130.070803058	NA	1	0	1.46	1	124.441597886	124.629729519	"4"	3376.988870125	2458.655624355	1.5	0.1
0.01	1	0.0837384520000342	1	51	130.070803058	NA	1	0	1.46	1	124.859018331	124.942756783	"4"	3376.988870125	2458.655624355	1.5	0.1
0.01	1	0.00249187100007475	1	51	130.070803058	NA	1	0	1.46	1	125.176243525	125.178735396	"4"	3376.988870125	2458.655624355	1.5	0.1
0.01	1	0.00431117700009054	1	51	130.070803058	NA	1	0	1.46	1	125.409924666	125.414235843	"4"	3376.988870125	2458.655624355	1.5	0.1
0.01	1	0.00423779000016111	1	51	130.070803058	NA	1	0	1.46	1	125.643716353	125.647954143	"4"	3376.988870125	2458.655624355	1.5	0.1
0.01	1	0.136989301000085	1	51	130.070803058	NA	1	0	1.46	1	125.877388826	126.014378127	"4"	3376.988870125	2458.655624355	1.5	0.1
0.01	1	0.00276784900006533	1	51	130.070803058	NA	1	0	1.46	1	126.244598077	126.247365926	"4"	3376.988870125	2458.655624355	1.5	0.1
0.01	1	0.00218547400004354	1	51	130.070803058	NA	1	0	1.46	1	126.478484855	126.480670329	"4"	3376.988870125	2458.655624355	1.5	0.1
0.01	1	0.0026821920000657	1	51	130.070803058	NA	1	0	1.46	1	126.712182227	126.714864419	"4"	3376.988870125	2458.655624355	1.5	0.1
0.01	1	0.00393123999992895	1	51	130.070803058	NA	1	0	1.46	1	126.945897691	126.949828931	"4"	3376.988870125	2458.655624355	1.5	0.1
0.01	1	0.0039733180001349	1	51	130.070803058	NA	1	0	1.46	1	127.179589523	127.183562841	"4"	3376.988870125	2458.655624355	1.5	0.1
0.01	1	0.00427493500001219	1	51	130.070803058	NA	1	0	1.46	1	127.413380201	127.417655136	"4"	3376.988870125	2458.655624355	1.5	0.1
0.01	1	0.127196571000013	1	51	130.070803058	NA	1	0	1.46	1	127.647101961	127.774298532	"4"	3376.988870125	2458.655624355	1.5	0.1
0.01	1	0.00397337100002915	1	51	130.070803058	NA	1	0	1.46	1	127.997550826	128.001524197	"4"	3376.988870125	2458.655624355	1.5	0.1
0.01	1	0.111393367999881	1	51	130.070803058	NA	1	0	1.46	1	128.231278871	128.342672239	"4"	3376.988870125	2458.655624355	1.5	0.1
0.01	1	0.002544012999806	1	51	130.070803058	NA	1	0	1.46	1	128.565227443	128.567771456	"4"	3376.988870125	2458.655624355	1.5	0.1
0.01	1	0.00414614899978005	1	51	130.070803058	NA	1	0	1.46	1	128.798942276	128.803088425	"4"	3376.988870125	2458.655624355	1.5	0.1
0.01	1	0.101858858000014	1	51	130.070803058	NA	1	0	1.46	1	129.032707781	129.134566639	"4"	3376.988870125	2458.655624355	1.5	0.1
0.01	1	0.00454061999994337	1	51	130.070803058	NA	1	0	1.46	1	129.366565956	129.371106576	"4"	3376.988870125	2458.655624355	1.5	0.1
0.01	1	0.126906074999852	1	51	130.070803058	NA	1	0	1.46	1	129.600315623	129.727221698	"4"	3376.988870125	2458.655624355	1.5	0.1
0.01	1	0.00201927100010835	1	51	130.070803058	NA	1	0	1.46	1	129.950820348	129.952839619	"4"	3376.988870125	2458.655624355	1.5	0.1
0.01	1	1.14170042199999	1	116	NA	154.768369947	0	0.66	2.12	1	132.104526376	133.246226798	"5"	3376.988870125	2458.655624355	1.5	0.1
0.01	1	0.00819243200021447	1	116	NA	154.768369947	0	0.66	2.12	1	133.473546451	133.481738883	"5"	3376.988870125	2458.655624355	1.5	0.1
0.01	1	0.0029635099999723	1	116	NA	154.768369947	0	0.66	2.12	1	133.707300359	133.710263869	"5"	3376.988870125	2458.655624355	1.5	0.1
0.01	1	0.00362569300000359	1	116	NA	154.768369947	0	0.66	2.12	1	133.940973136	133.944598829	"5"	3376.988870125	2458.655624355	1.5	0.1
0.01	1	0.440210392999916	1	116	NA	154.768369947	0	0.66	2.12	1	134.174752588	134.614962981	"5"	3376.988870125	2458.655624355	1.5	0.1
0.01	1	0.0757846849999169	1	116	NA	154.768369947	0	0.66	2.12	1	134.842512826	134.918297511	"5"	3376.988870125	2458.655624355	1.5	0.1
0.01	1	0.040349827	1	116	NA	154.768369947	0	0.66	2.12	1	135.142936749	135.183286576	"5"	3376.988870125	2458.655624355	1.5	0.1
0.01	1	0.052867071999799	1	116	NA	154.768369947	0	0.66	2.12	1	135.410099583	135.462966655	"5"	3376.988870125	2458.655624355	1.5	0.1
0.01	1	0.0498145439999007	1	116	NA	154.768369947	0	0.66	2.12	1	135.693874021	135.743688565	"5"	3376.988870125	2458.655624355	1.5	0.1
0.01	1	0.0696950340000058	1	116	NA	154.768369947	0	0.66	2.12	1	135.977690339	136.047385373	"5"	3376.988870125	2458.655624355	1.5	0.1
0.01	1	0.0407333780001409	1	116	NA	154.768369947	0	0.66	2.12	1	136.278282257	136.319015635	"5"	3376.988870125	2458.655624355	1.5	0.1
0.01	1	0.0609922129999632	1	116	NA	154.768369947	0	0.66	2.12	1	136.545328026	136.606320239	"5"	3376.988870125	2458.655624355	1.5	0.1
0.01	1	0.057666749999953	1	116	NA	154.768369947	0	0.66	2.12	1	136.845831308	136.903498058	"5"	3376.988870125	2458.655624355	1.5	0.1
0.01	1	0.0523089700000128	1	116	NA	154.768369947	0	0.66	2.12	1	137.129661441	137.181970411	"5"	3376.988870125	2458.655624355	1.5	0.1
0.01	1	0.0819535650000489	1	116	NA	154.768369947	0	0.66	2.12	1	137.413427416	137.495380981	"5"	3376.988870125	2458.655624355	1.5	0.1
0.01	1	0.043466232000128	1	116	NA	154.768369947	0	0.66	2.12	1	137.730654236	137.774120468	"5"	3376.988870125	2458.655624355	1.5	0.1
0.01	1	0.00396185700014939	1	116	NA	154.768369947	0	0.66	2.12	1	137.997779628	138.001741485	"5"	3376.988870125	2458.655624355	1.5	0.1
0.01	1	0.0399936609999259	1	116	NA	154.768369947	0	0.66	2.12	1	138.231574428	138.271568089	"5"	3376.988870125	2458.655624355	1.5	0.1
0.01	1	0.0995092690000092	1	116	NA	154.768369947	0	0.66	2.12	1	138.498548767	138.598058036	"5"	3376.988870125	2458.655624355	1.5	0.1
0.01	1	0.0852595509998082	1	116	NA	154.768369947	0	0.66	2.12	1	138.832501381	138.917760932	"5"	3376.988870125	2458.655624355	1.5	0.1
0.01	1	0.0736769089999143	1	116	NA	154.768369947	0	0.66	2.12	1	139.149642798	139.223319707	"5"	3376.988870125	2458.655624355	1.5	0.1
0.01	1	0.0769230949999837	1	116	NA	154.768369947	0	0.66	2.12	1	139.450304663	139.527227758	"5"	3376.988870125	2458.655624355	1.5	0.1
0.01	1	0.110859373000039	1	116	NA	154.768369947	0	0.66	2.12	1	139.767441101	139.878300474	"5"	3376.988870125	2458.655624355	1.5	0.1
0.01	1	0.146176677999847	1	116	NA	154.768369947	0	0.66	2.12	1	140.101383971	140.247560649	"5"	3376.988870125	2458.655624355	1.5	0.1
0.01	1	0.114179762000049	1	116	NA	154.768369947	0	0.66	2.12	1	140.485245096	140.599424858	"5"	3376.988870125	2458.655624355	1.5	0.1
0.01	1	0.0997734769998715	1	116	NA	154.768369947	0	0.66	2.12	1	140.835974638	140.935748115	"5"	3376.988870125	2458.655624355	1.5	0.1
0.01	1	0.00460748499995134	1	116	NA	154.768369947	0	0.66	2.12	1	141.169840021	141.174447506	"5"	3376.988870125	2458.655624355	1.5	0.1
0.01	1	0.051872246999892	1	116	NA	154.768369947	0	0.66	2.12	1	141.403464419	141.455336666	"5"	3376.988870125	2458.655624355	1.5	0.1
0.01	1	0.00215489100014565	1	116	NA	154.768369947	0	0.66	2.12	1	141.687353393	141.689508284	"5"	3376.988870125	2458.655624355	1.5	0.1
0.01	1	0.0540754809999271	1	116	NA	154.768369947	0	0.66	2.12	1	141.921093908	141.975169389	"5"	3376.988870125	2458.655624355	1.5	0.1
0.01	1	0.0985242619999553	1	116	NA	154.768369947	0	0.66	2.12	1	142.204913921	142.303438183	"5"	3376.988870125	2458.655624355	1.5	0.1
0.01	1	0.00457024000002093	1	116	NA	154.768369947	0	0.66	2.12	1	142.538948581	142.543518821	"5"	3376.988870125	2458.655624355	1.5	0.1
0.01	1	0.0412844089998998	1	116	NA	154.768369947	0	0.66	2.12	1	142.772519001	142.81380341	"5"	3376.988870125	2458.655624355	1.5	0.1
0.01	1	0.00381606300015847	1	116	NA	154.768369947	0	0.66	2.12	1	143.039551978	143.043368041	"5"	3376.988870125	2458.655624355	1.5	0.1
0.01	1	0.0525624460001382	1	116	NA	154.768369947	0	0.66	2.12	1	143.273290978	143.325853424	"5"	3376.988870125	2458.655624355	1.5	0.1
0.01	1	0.00431900599983237	1	116	NA	154.768369947	0	0.66	2.12	1	143.55711463	143.561433636	"5"	3376.988870125	2458.655624355	1.5	0.1
0.01	1	0.0874378049998086	1	116	NA	154.768369947	0	0.66	2.12	1	143.790832451	143.878270256	"5"	3376.988870125	2458.655624355	1.5	0.1
0.01	1	0.00370638100002907	1	116	NA	154.768369947	0	0.66	2.12	1	144.108014596	144.111720977	"5"	3376.988870125	2458.655624355	1.5	0.1
0.01	1	0.0488520400001562	1	116	NA	154.768369947	0	0.66	2.12	1	144.341783786	144.390635826	"5"	3376.988870125	2458.655624355	1.5	0.1
0.01	1	0.00436283499993806	1	116	NA	154.768369947	0	0.66	2.12	1	144.625681521	144.630044356	"5"	3376.988870125	2458.655624355	1.5	0.1
0.01	1	0.0441763129999799	1	116	NA	154.768369947	0	0.66	2.12	1	144.859323858	144.903500171	"5"	3376.988870125	2458.655624355	1.5	0.1
0.01	1	0.00458398700016005	1	116	NA	154.768369947	0	0.66	2.12	1	145.126443936	145.131027923	"5"	3376.988870125	2458.655624355	1.5	0.1
0.01	1	0.0633355180000308	1	116	NA	154.768369947	0	0.66	2.12	1	145.360119443	145.423454961	"5"	3376.988870125	2458.655624355	1.5	0.1
0.01	1	0.906310334000182	1	116	NA	154.768369947	0	0.66	2.12	1	145.660647941	146.566958275	"5"	3376.988870125	2458.655624355	1.5	0.1
0.01	1	0.00330822000000808	1	116	NA	154.768369947	0	0.66	2.12	1	146.795856871	146.799165091	"5"	3376.988870125	2458.655624355	1.5	0.1
0.01	1	0.00217154799997843	1	116	NA	154.768369947	0	0.66	2.12	1	147.029609976	147.031781524	"5"	3376.988870125	2458.655624355	1.5	0.1
0.01	1	0.111376400000154	1	116	NA	154.768369947	0	0.66	2.12	1	147.263351028	147.374727428	"5"	3376.988870125	2458.655624355	1.5	0.1
0.01	1	0.121259490000057	1	116	NA	154.768369947	0	0.66	2.12	1	147.597197756	147.718457246	"5"	3376.988870125	2458.655624355	1.5	0.1
0.01	1	0.00387430000000677	1	116	NA	154.768369947	0	0.66	2.12	1	147.947748781	147.951623081	"5"	3376.988870125	2458.655624355	1.5	0.1
0.01	1	0.136893571999963	1	116	NA	154.768369947	0	0.66	2.12	1	148.181611996	148.318505568	"5"	3376.988870125	2458.655624355	1.5	0.1
0.01	1	0.00255855199998223	1	116	NA	154.768369947	0	0.66	2.12	1	148.548917345	148.551475897	"5"	3376.988870125	2458.655624355	1.5	0.1
0.01	1	0.00398597399998835	1	116	NA	154.768369947	0	0.66	2.12	1	148.782545421	148.786531395	"5"	3376.988870125	2458.655624355	1.5	0.1
0.01	1	0.103064013999983	1	116	NA	154.768369947	0	0.66	2.12	1	149.016344568	149.119408582	"5"	3376.988870125	2458.655624355	1.5	0.1
0.01	1	0.00260817899993526	1	116	NA	154.768369947	0	0.66	2.12	1	149.350158853	149.352767032	"5"	3376.988870125	2458.655624355	1.5	0.1
0.01	1	0.00205455700006496	1	116	NA	154.768369947	0	0.66	2.12	1	149.583966611	149.586021168	"5"	3376.988870125	2458.655624355	1.5	0.1
0.01	1	0.00374669300003916	1	116	NA	154.768369947	0	0.66	2.12	1	149.817729036	149.821475729	"5"	3376.988870125	2458.655624355	1.5	0.1
0.01	1	0.106349310000041	1	116	NA	154.768369947	0	0.66	2.12	1	150.051470116	150.157819426	"5"	3376.988870125	2458.655624355	1.5	0.1
0.01	1	0.0024602439998489	1	116	NA	154.768369947	0	0.66	2.12	1	150.385365903	150.387826147	"5"	3376.988870125	2458.655624355	1.5	0.1
0.01	1	0.00258110999993733	1	116	NA	154.768369947	0	0.66	2.12	1	150.618998215	150.621579325	"5"	3376.988870125	2458.655624355	1.5	0.1
0.01	1	0.00267905000009705	1	116	NA	154.768369947	0	0.66	2.12	1	150.852761999	150.855441049	"5"	3376.988870125	2458.655624355	1.5	0.1
0.01	1	0.311351667000054	1	116	NA	154.768369947	0	0.66	2.12	1	151.086481023	151.39783269	"5"	3376.988870125	2458.655624355	1.5	0.1
0.01	1	0.00265295700000934	1	116	NA	154.768369947	0	0.66	2.12	1	151.620775447	151.623428404	"5"	3376.988870125	2458.655624355	1.5	0.1
0.01	1	0.105189900000141	1	116	NA	154.768369947	0	0.66	2.12	1	151.854504146	151.959694046	"5"	3376.988870125	2458.655624355	1.5	0.1
0.01	1	0.11544164399993	1	116	NA	154.768369947	0	0.66	2.12	1	152.188203373	152.303645017	"5"	3376.988870125	2458.655624355	1.5	0.1
0.01	1	0.932180337999853	1	116	NA	154.768369947	0	0.66	2.12	1	152.538958901	153.471139239	"5"	3376.988870125	2458.655624355	1.5	0.1
0.01	1	0.0675566999998409	1	116	NA	154.768369947	0	0.66	2.12	1	153.707437336	153.774994036	"5"	3376.988870125	2458.655624355	1.5	0.1
0.01	1	0.758709719999842	2	116	NA	154.768369947	0	0.66	2.12	1	154.008104461	154.766814181	"5"	3376.988870125	2458.655624355	1.5	0.1
0.01	1	2.60194099799992	1	118	NA	183.942728975	0	0.840000000000001	2.96	1	156.796022931	159.397963929	"6"	3376.988870125	2458.655624355	1.5	0.1
0.01	1	0.323011658000041	1	118	NA	183.942728975	0	0.840000000000001	2.96	1	159.634162326	159.957173984	"6"	3376.988870125	2458.655624355	1.5	0.1
0.01	1	0.0687631700000111	1	118	NA	183.942728975	0	0.840000000000001	2.96	1	160.185070761	160.253833931	"6"	3376.988870125	2458.655624355	1.5	0.1
0.01	1	0.0037835499999801	1	118	NA	183.942728975	0	0.840000000000001	2.96	1	160.485611281	160.489394831	"6"	3376.988870125	2458.655624355	1.5	0.1
0.01	1	0.101916582000058	1	118	NA	183.942728975	0	0.840000000000001	2.96	1	160.719301011	160.821217593	"6"	3376.988870125	2458.655624355	1.5	0.1
0.01	1	0.00259698400009256	1	118	NA	183.942728975	0	0.840000000000001	2.96	1	161.053242041	161.055839025	"6"	3376.988870125	2458.655624355	1.5	0.1
0.01	1	0.00381177999997817	1	118	NA	183.942728975	0	0.840000000000001	2.96	1	161.286937581	161.290749361	"6"	3376.988870125	2458.655624355	1.5	0.1
0.01	1	0.11718533699991	1	118	NA	183.942728975	0	0.840000000000001	2.96	1	161.520671508	161.637856845	"6"	3376.988870125	2458.655624355	1.5	0.1
0.01	1	0.00390859699996327	1	118	NA	183.942728975	0	0.840000000000001	2.96	1	161.871301418	161.875210015	"6"	3376.988870125	2458.655624355	1.5	0.1
0.01	1	0.00786638299996412	1	118	NA	183.942728975	0	0.840000000000001	2.96	1	162.105052416	162.112918799	"6"	3376.988870125	2458.655624355	1.5	0.1
0.01	1	0.0116125049999027	1	118	NA	183.942728975	0	0.840000000000001	2.96	1	162.338672541	162.350285046	"6"	3376.988870125	2458.655624355	1.5	0.1
0.01	1	0.00297258399996281	1	118	NA	183.942728975	0	0.840000000000001	2.96	1	162.589160543	162.592133127	"6"	3376.988870125	2458.655624355	1.5	0.1
0.01	1	0.00218567399997482	1	118	NA	183.942728975	0	0.840000000000001	2.96	1	162.822856755	162.825042429	"6"	3376.988870125	2458.655624355	1.5	0.1
0.01	1	0.00398253399998794	1	118	NA	183.942728975	0	0.840000000000001	2.96	1	163.056593851	163.060576385	"6"	3376.988870125	2458.655624355	1.5	0.1
0.01	1	0.123459443000002	1	118	NA	183.942728975	0	0.840000000000001	2.96	1	163.290420151	163.413879594	"6"	3376.988870125	2458.655624355	1.5	0.1
0.01	1	0.00240354800007481	1	118	NA	183.942728975	0	0.840000000000001	2.96	1	163.640915019	163.643318567	"6"	3376.988870125	2458.655624355	1.5	0.1
0.01	1	0.00198724899996705	1	118	NA	183.942728975	0	0.840000000000001	2.96	1	163.874654487	163.876641736	"6"	3376.988870125	2458.655624355	1.5	0.1
0.01	1	0.161303097999962	1	118	NA	183.942728975	0	0.840000000000001	2.96	1	164.108363961	164.269667059	"6"	3376.988870125	2458.655624355	1.5	0.1
0.01	1	0.00216279700021005	1	118	NA	183.942728975	0	0.840000000000001	2.96	1	164.492433769	164.494596566	"6"	3376.988870125	2458.655624355	1.5	0.1
0.01	1	0.0045604550000462	1	118	NA	183.942728975	0	0.840000000000001	2.96	1	164.726123976	164.730684431	"6"	3376.988870125	2458.655624355	1.5	0.1
0.01	1	0.00417686800005868	1	118	NA	183.942728975	0	0.840000000000001	2.96	1	164.959738343	164.963915211	"6"	3376.988870125	2458.655624355	1.5	0.1
0.01	1	0.00384700500012514	1	118	NA	183.942728975	0	0.840000000000001	2.96	1	165.193570448	165.197417453	"6"	3376.988870125	2458.655624355	1.5	0.1
0.01	1	0.0979281330000958	1	118	NA	183.942728975	0	0.840000000000001	2.96	1	165.427402018	165.525330151	"6"	3376.988870125	2458.655624355	1.5	0.1
0.01	1	0.00229317200000878	1	118	NA	183.942728975	0	0.840000000000001	2.96	1	165.761195877	165.763489049	"6"	3376.988870125	2458.655624355	1.5	0.1
0.01	1	0.00199219599994649	1	118	NA	183.942728975	0	0.840000000000001	2.96	1	165.994885926	165.996878122	"6"	3376.988870125	2458.655624355	1.5	0.1
0.01	1	0.00305130800006737	1	118	NA	183.942728975	0	0.840000000000001	2.96	1	166.228561807	166.231613115	"6"	3376.988870125	2458.655624355	1.5	0.1
0.01	1	0.0636419009999827	1	118	NA	183.942728975	0	0.840000000000001	2.96	1	166.462288871	166.525930772	"6"	3376.988870125	2458.655624355	1.5	0.1
0.01	1	0.0507681450001201	1	118	NA	183.942728975	0	0.840000000000001	2.96	1	166.762813541	166.813581686	"6"	3376.988870125	2458.655624355	1.5	0.1
0.01	1	0.046065297000041	1	118	NA	183.942728975	0	0.840000000000001	2.96	1	167.046673238	167.092738535	"6"	3376.988870125	2458.655624355	1.5	0.1
0.01	1	0.0592193400000269	1	118	NA	183.942728975	0	0.840000000000001	2.96	1	167.330423708	167.389643048	"6"	3376.988870125	2458.655624355	1.5	0.1
0.01	1	0.0545331920000081	1	118	NA	183.942728975	0	0.840000000000001	2.96	1	167.614311763	167.668844955	"6"	3376.988870125	2458.655624355	1.5	0.1
0.01	1	0.0359542060000422	1	118	NA	183.942728975	0	0.840000000000001	2.96	1	167.898028463	167.933982669	"6"	3376.988870125	2458.655624355	1.5	0.1
0.01	1	0.111713641999813	1	118	NA	183.942728975	0	0.840000000000001	2.96	1	168.165153063	168.276866705	"6"	3376.988870125	2458.655624355	1.5	0.1
0.01	1	0.00202468099996622	1	118	NA	183.942728975	0	0.840000000000001	2.96	1	168.499071468	168.501096149	"6"	3376.988870125	2458.655624355	1.5	0.1
0.01	1	0.00384960099995624	1	118	NA	183.942728975	0	0.840000000000001	2.96	1	168.732846306	168.736695907	"6"	3376.988870125	2458.655624355	1.5	0.1
0.01	1	0.110011256999996	1	118	NA	183.942728975	0	0.840000000000001	2.96	1	168.966491208	169.076502465	"6"	3376.988870125	2458.655624355	1.5	0.1
0.01	1	0.00262981299988496	1	118	NA	183.942728975	0	0.840000000000001	2.96	1	169.300423757	169.30305357	"6"	3376.988870125	2458.655624355	1.5	0.1
0.01	1	0.00396470700002283	1	118	NA	183.942728975	0	0.840000000000001	2.96	1	169.534224088	169.538188795	"6"	3376.988870125	2458.655624355	1.5	0.1
0.01	1	0.00384471699999267	1	118	NA	183.942728975	0	0.840000000000001	2.96	1	169.767909066	169.771753783	"6"	3376.988870125	2458.655624355	1.5	0.1
0.01	1	0.116351947000112	1	118	NA	183.942728975	0	0.840000000000001	2.96	1	170.001618758	170.117970705	"6"	3376.988870125	2458.655624355	1.5	0.1
0.01	1	0.0132853180000438	1	118	NA	183.942728975	0	0.840000000000001	2.96	1	170.352173313	170.365458631	"6"	3376.988870125	2458.655624355	1.5	0.1
0.01	1	0.00453566000010142	1	118	NA	183.942728975	0	0.840000000000001	2.96	1	170.602613451	170.607149111	"6"	3376.988870125	2458.655624355	1.5	0.1
0.01	1	0.00204905999999028	1	118	NA	183.942728975	0	0.840000000000001	2.96	1	170.836333859	170.838382919	"6"	3376.988870125	2458.655624355	1.5	0.1
0.01	1	0.0381381239999428	1	118	NA	183.942728975	0	0.840000000000001	2.96	1	171.070173641	171.108311765	"6"	3376.988870125	2458.655624355	1.5	0.1
0.01	1	0.00720374499996979	1	118	NA	183.942728975	0	0.840000000000001	2.96	1	171.337185736	171.344389481	"6"	3376.988870125	2458.655624355	1.5	0.1
0.01	1	0.00234676300010506	1	118	NA	183.942728975	0	0.840000000000001	2.96	1	171.571014135	171.573360898	"6"	3376.988870125	2458.655624355	1.5	0.1
0.01	1	0.00388346499994441	1	118	NA	183.942728975	0	0.840000000000001	2.96	1	171.804694868	171.808578333	"6"	3376.988870125	2458.655624355	1.5	0.1
0.01	1	0.111739931000102	1	118	NA	183.942728975	0	0.840000000000001	2.96	1	172.038309221	172.150049152	"6"	3376.988870125	2458.655624355	1.5	0.1
0.01	1	0.00384672100017269	1	118	NA	183.942728975	0	0.840000000000001	2.96	1	172.372200006	172.376046727	"6"	3376.988870125	2458.655624355	1.5	0.1
0.01	1	0.12773746400012	1	118	NA	183.942728975	0	0.840000000000001	2.96	1	172.606047798	172.733785262	"6"	3376.988870125	2458.655624355	1.5	0.1
0.01	1	0.00200552999990578	1	118	NA	183.942728975	0	0.840000000000001	2.96	1	172.956561545	172.958567075	"6"	3376.988870125	2458.655624355	1.5	0.1
0.01	1	0.183288066999921	1	118	NA	183.942728975	0	0.840000000000001	2.96	1	173.190292308	173.373580375	"6"	3376.988870125	2458.655624355	1.5	0.1
0.01	1	0.00273488700008784	1	118	NA	183.942728975	0	0.840000000000001	2.96	1	173.607629695	173.610364582	"6"	3376.988870125	2458.655624355	1.5	0.1
0.01	1	0.00460325200015177	1	118	NA	183.942728975	0	0.840000000000001	2.96	1	173.841364551	173.845967803	"6"	3376.988870125	2458.655624355	1.5	0.1
0.01	1	0.0737518870000713	1	118	NA	183.942728975	0	0.840000000000001	2.96	1	174.075187616	174.148939503	"6"	3376.988870125	2458.655624355	1.5	0.1
0.01	1	0.00398142899985032	1	118	NA	183.942728975	0	0.840000000000001	2.96	1	174.375588898	174.379570327	"6"	3376.988870125	2458.655624355	1.5	0.1
0.01	1	0.00206593899997642	1	118	NA	183.942728975	0	0.840000000000001	2.96	1	174.609418469	174.611484408	"6"	3376.988870125	2458.655624355	1.5	0.1
0.01	1	0.121270497000069	1	118	NA	183.942728975	0	0.840000000000001	2.96	1	174.843163541	174.964434038	"6"	3376.988870125	2458.655624355	1.5	0.1
0.01	1	0.00272658599988063	1	118	NA	183.942728975	0	0.840000000000001	2.96	1	175.193667639	175.196394225	"6"	3376.988870125	2458.655624355	1.5	0.1
0.01	1	0.249458972999946	1	118	NA	183.942728975	0	0.840000000000001	2.96	1	175.427332223	175.676791196	"6"	3376.988870125	2458.655624355	1.5	0.1
0.01	1	0.0019947159998992	1	118	NA	183.942728975	0	0.840000000000001	2.96	1	175.911498526	175.913493242	"6"	3376.988870125	2458.655624355	1.5	0.1
0.01	1	0.035673493999866	1	118	NA	183.942728975	0	0.840000000000001	2.96	1	176.145383441	176.181056935	"6"	3376.988870125	2458.655624355	1.5	0.1
0.01	1	0.0885987430001478	1	118	NA	183.942728975	0	0.840000000000001	2.96	1	176.412247127	176.50084587	"6"	3376.988870125	2458.655624355	1.5	0.1
0.01	1	0.0363478819999727	1	118	NA	183.942728975	0	0.840000000000001	2.96	1	176.729651126	176.765999008	"6"	3376.988870125	2458.655624355	1.5	0.1
0.01	1	0.0410242240000116	1	118	NA	183.942728975	0	0.840000000000001	2.96	1	176.996755096	177.03777932	"6"	3376.988870125	2458.655624355	1.5	0.1
0.01	1	0.91822058799994	1	118	NA	183.942728975	0	0.840000000000001	2.96	1	177.263799168	178.182019756	"6"	3376.988870125	2458.655624355	1.5	0.1
0.01	1	0.0931939629999761	1	118	NA	183.942728975	0	0.840000000000001	2.96	1	178.415722606	178.508916569	"6"	3376.988870125	2458.655624355	1.5	0.1
0.01	1	0.00365610799985916	1	118	NA	183.942728975	0	0.840000000000001	2.96	1	178.733055881	178.736711989	"6"	3376.988870125	2458.655624355	1.5	0.1
0.01	1	0.0786906280000039	1	118	NA	183.942728975	0	0.840000000000001	2.96	1	178.966690978	179.045381606	"6"	3376.988870125	2458.655624355	1.5	0.1
0.01	1	0.00273754899990308	1	118	NA	183.942728975	0	0.840000000000001	2.96	1	179.267127733	179.269865282	"6"	3376.988870125	2458.655624355	1.5	0.1
0.01	1	0.00385687099992538	1	118	NA	183.942728975	0	0.840000000000001	2.96	1	179.500943816	179.504800687	"6"	3376.988870125	2458.655624355	1.5	0.1
0.01	1	0.00389238499997191	1	118	NA	183.942728975	0	0.840000000000001	2.96	1	179.734657206	179.738549591	"6"	3376.988870125	2458.655624355	1.5	0.1
0.01	1	0.10045236499991	1	118	NA	183.942728975	0	0.840000000000001	2.96	1	179.968401648	180.068854013	"6"	3376.988870125	2458.655624355	1.5	0.1
0.01	1	0.00204186100017978	1	118	NA	183.942728975	0	0.840000000000001	2.96	1	180.302227616	180.304269477	"6"	3376.988870125	2458.655624355	1.5	0.1
0.01	1	0.124886770000103	1	118	NA	183.942728975	0	0.840000000000001	2.96	1	180.536111826	180.660998596	"6"	3376.988870125	2458.655624355	1.5	0.1
0.01	1	0.00249123099979442	1	118	NA	183.942728975	0	0.840000000000001	2.96	1	180.886578275	180.889069506	"6"	3376.988870125	2458.655624355	1.5	0.1
0.01	1	0.0046218569998473	1	118	NA	183.942728975	0	0.840000000000001	2.96	1	181.120428026	181.125049883	"6"	3376.988870125	2458.655624355	1.5	0.1
0.01	1	0.0829117669998141	1	118	NA	183.942728975	0	0.840000000000001	2.96	1	181.354078508	181.436990275	"6"	3376.988870125	2458.655624355	1.5	0.1
0.01	1	0.00460570199993526	1	118	NA	183.942728975	0	0.840000000000001	2.96	1	181.671172066	181.675777768	"6"	3376.988870125	2458.655624355	1.5	0.1
0.01	1	0.00390415300012137	1	118	NA	183.942728975	0	0.840000000000001	2.96	1	181.904957728	181.908861881	"6"	3376.988870125	2458.655624355	1.5	0.1
0.01	1	0.0825627330000316	1	118	NA	183.942728975	0	0.840000000000001	2.96	1	182.138677308	182.221240041	"6"	3376.988870125	2458.655624355	1.5	0.1
0.01	1	0.00213713400012239	1	118	NA	183.942728975	0	0.840000000000001	2.96	1	182.455952457	182.458089591	"6"	3376.988870125	2458.655624355	1.5	0.1
0.01	1	0.00258079500008535	1	118	NA	183.942728975	0	0.840000000000001	2.96	1	182.689649941	182.692230736	"6"	3376.988870125	2458.655624355	1.5	0.1
0.01	1	0.0266397720001805	1	118	NA	183.942728975	0	0.840000000000001	2.96	1	182.923346974	182.949986746	"6"	3376.988870125	2458.655624355	1.5	0.1
0.01	1	0.76746400900015	2	118	NA	183.942728975	0	0.840000000000001	2.96	1	183.173713231	183.94117724	"6"	3376.988870125	2458.655624355	1.5	0.1
0.01	1	1.31321987399997	1	87	NA	212.694064393	0	0.79	3.75	1	185.995189676	187.30840955	"7"	3376.988870125	2458.655624355	1.5	0.1
0.01	1	0.00271702199984247	1	87	NA	212.694064393	0	0.79	3.75	1	187.547706361	187.550423383	"7"	3376.988870125	2458.655624355	1.5	0.1
0.01	1	0.00350564200016379	1	87	NA	212.694064393	0	0.79	3.75	1	187.781414801	187.784920443	"7"	3376.988870125	2458.655624355	1.5	0.1
0.01	1	0.0026881300000241	1	87	NA	212.694064393	0	0.79	3.75	1	188.015224209	188.017912339	"7"	3376.988870125	2458.655624355	1.5	0.1
0.01	1	2.15596519099995	1	87	NA	212.694064393	0	0.79	3.75	1	188.248976168	190.404941359	"7"	3376.988870125	2458.655624355	1.5	0.1
0.01	1	0.00423900200007665	1	87	NA	212.694064393	0	0.79	3.75	1	190.636270339	190.640509341	"7"	3376.988870125	2458.655624355	1.5	0.1
0.01	1	0.111746282000013	1	87	NA	212.694064393	0	0.79	3.75	1	190.870094473	190.981840755	"7"	3376.988870125	2458.655624355	1.5	0.1
0.01	1	0.0497031990000778	1	87	NA	212.694064393	0	0.79	3.75	1	191.203961687	191.253664886	"7"	3376.988870125	2458.655624355	1.5	0.1
0.01	1	0.00452338500008409	1	87	NA	212.694064393	0	0.79	3.75	1	191.487724886	191.492248271	"7"	3376.988870125	2458.655624355	1.5	0.1
0.01	1	0.00457809199997428	1	87	NA	212.694064393	0	0.79	3.75	1	191.721485236	191.726063328	"7"	3376.988870125	2458.655624355	1.5	0.1
0.01	1	0.138493813999958	1	87	NA	212.694064393	0	0.79	3.75	1	191.955158481	192.093652295	"7"	3376.988870125	2458.655624355	1.5	0.1
0.01	1	0.00298681799995393	1	87	NA	212.694064393	0	0.79	3.75	1	192.322487399	192.325474217	"7"	3376.988870125	2458.655624355	1.5	0.1
0.01	1	0.00258837299998049	1	87	NA	212.694064393	0	0.79	3.75	1	192.556112233	192.558700606	"7"	3376.988870125	2458.655624355	1.5	0.1
0.01	1	0.00246532799997112	1	87	NA	212.694064393	0	0.79	3.75	1	192.789959115	192.792424443	"7"	3376.988870125	2458.655624355	1.5	0.1
0.01	1	0.00455026700001326	1	87	NA	212.694064393	0	0.79	3.75	1	193.023681376	193.028231643	"7"	3376.988870125	2458.655624355	1.5	0.1
0.01	1	0.00457614499987358	1	87	NA	212.694064393	0	0.79	3.75	1	193.257474286	193.262050431	"7"	3376.988870125	2458.655624355	1.5	0.1
0.01	1	0.0039703400000235	1	87	NA	212.694064393	0	0.79	3.75	1	193.491107841	193.495078181	"7"	3376.988870125	2458.655624355	1.5	0.1
0.01	1	0.00459784200006652	1	87	NA	212.694064393	0	0.79	3.75	1	193.724900376	193.729498218	"7"	3376.988870125	2458.655624355	1.5	0.1
0.01	1	0.00456677199986188	1	87	NA	212.694064393	0	0.79	3.75	1	193.958645286	193.963212058	"7"	3376.988870125	2458.655624355	1.5	0.1
0.01	1	0.00393726499987679	1	87	NA	212.694064393	0	0.79	3.75	1	194.192323956	194.196261221	"7"	3376.988870125	2458.655624355	1.5	0.1
0.01	1	0.163894113999959	1	87	NA	212.694064393	0	0.79	3.75	1	194.426046096	194.58994021	"7"	3376.988870125	2458.655624355	1.5	0.1
0.01	1	0.00400028300009581	1	87	NA	212.694064393	0	0.79	3.75	1	194.826749906	194.830750189	"7"	3376.988870125	2458.655624355	1.5	0.1
0.01	1	0.00213049700005286	1	87	NA	212.694064393	0	0.79	3.75	1	195.06042159	195.062552087	"7"	3376.988870125	2458.655624355	1.5	0.1
0.01	1	0.0159766780000155	1	87	NA	212.694064393	0	0.79	3.75	1	195.294070521	195.310047199	"7"	3376.988870125	2458.655624355	1.5	0.1
0.01	1	0.0371508140001424	1	87	NA	212.694064393	0	0.79	3.75	1	195.544496883	195.581647697	"7"	3376.988870125	2458.655624355	1.5	0.1
0.01	1	0.0337271209998562	1	87	NA	212.694064393	0	0.79	3.75	1	195.811605301	195.845332422	"7"	3376.988870125	2458.655624355	1.5	0.1
0.01	1	0.0630339179999737	1	87	NA	212.694064393	0	0.79	3.75	1	196.078764398	196.141798316	"7"	3376.988870125	2458.655624355	1.5	0.1
0.01	1	0.0346568180000304	1	87	NA	212.694064393	0	0.79	3.75	1	196.379385818	196.414042636	"7"	3376.988870125	2458.655624355	1.5	0.1
0.01	1	0.030874041000061	1	87	NA	212.694064393	0	0.79	3.75	1	196.646368591	196.677242632	"7"	3376.988870125	2458.655624355	1.5	0.1
0.01	1	0.0273510290001013	1	87	NA	212.694064393	0	0.79	3.75	1	196.913499146	196.940850175	"7"	3376.988870125	2458.655624355	1.5	0.1
0.01	1	0.0417372790000172	1	87	NA	212.694064393	0	0.79	3.75	1	197.163921321	197.2056586	"7"	3376.988870125	2458.655624355	1.5	0.1
0.01	1	0.0628506699999889	1	87	NA	212.694064393	0	0.79	3.75	1	197.431023378	197.493874048	"7"	3376.988870125	2458.655624355	1.5	0.1
0.01	1	0.0420859599998948	1	87	NA	212.694064393	0	0.79	3.75	1	197.731644526	197.773730486	"7"	3376.988870125	2458.655624355	1.5	0.1
0.01	1	0.0631800590001603	1	87	NA	212.694064393	0	0.79	3.75	1	197.998781456	198.061961515	"7"	3376.988870125	2458.655624355	1.5	0.1
0.01	1	0.0271170309999889	1	87	NA	212.694064393	0	0.79	3.75	1	198.299270956	198.326387987	"7"	3376.988870125	2458.655624355	1.5	0.1
0.01	1	0.0470936440001424	1	87	NA	212.694064393	0	0.79	3.75	1	198.549623676	198.59671732	"7"	3376.988870125	2458.655624355	1.5	0.1
0.01	1	0.0362560160001522	1	87	NA	212.694064393	0	0.79	3.75	1	198.833410773	198.869666789	"7"	3376.988870125	2458.655624355	1.5	0.1
0.01	1	0.0250385130000268	1	87	NA	212.694064393	0	0.79	3.75	1	199.100589546	199.125628059	"7"	3376.988870125	2458.655624355	1.5	0.1
0.01	1	0.0211145709999983	1	87	NA	212.694064393	0	0.79	3.75	1	199.351067528	199.372182099	"7"	3376.988870125	2458.655624355	1.5	0.1
0.01	1	0.0667572610000207	1	87	NA	212.694064393	0	0.79	3.75	1	199.601455918	199.668213179	"7"	3376.988870125	2458.655624355	1.5	0.1
0.01	1	0.046622945000081	1	87	NA	212.694064393	0	0.79	3.75	1	199.901986711	199.948609656	"7"	3376.988870125	2458.655624355	1.5	0.1
0.01	1	0.0511085599998751	1	87	NA	212.694064393	0	0.79	3.75	1	200.185640798	200.236749358	"7"	3376.988870125	2458.655624355	1.5	0.1
0.01	1	0.0724254430001565	1	87	NA	212.694064393	0	0.79	3.75	1	200.469423866	200.541849309	"7"	3376.988870125	2458.655624355	1.5	0.1
0.01	1	0.0662823810000646	1	87	NA	212.694064393	0	0.79	3.75	1	200.769995078	200.836277459	"7"	3376.988870125	2458.655624355	1.5	0.1
0.01	1	0.0224840369999129	1	87	NA	212.694064393	0	0.79	3.75	1	201.070528359	201.093012396	"7"	3376.988870125	2458.655624355	1.5	0.1
0.01	1	0.100511504999986	1	87	NA	212.694064393	0	0.79	3.75	1	201.321018943	201.421530448	"7"	3376.988870125	2458.655624355	1.5	0.1
0.01	1	0.0459137089999331	1	87	NA	212.694064393	0	0.79	3.75	1	201.654838603	201.700752312	"7"	3376.988870125	2458.655624355	1.5	0.1
0.01	1	0.0194367199999306	1	87	NA	212.694064393	0	0.79	3.75	1	201.938617081	201.958053801	"7"	3376.988870125	2458.655624355	1.5	0.1
0.01	1	0.0793692150000425	1	87	NA	212.694064393	0	0.79	3.75	1	202.189092936	202.268462151	"7"	3376.988870125	2458.655624355	1.5	0.1
0.01	1	0.00320434599984765	1	87	NA	212.694064393	0	0.79	3.75	1	202.506217769	202.509422115	"7"	3376.988870125	2458.655624355	1.5	0.1
0.01	1	0.0485597039998993	1	87	NA	212.694064393	0	0.79	3.75	1	202.740061441	202.788621145	"7"	3376.988870125	2458.655624355	1.5	0.1
0.01	1	0.0538860230001319	1	87	NA	212.694064393	0	0.79	3.75	1	203.023791378	203.077677401	"7"	3376.988870125	2458.655624355	1.5	0.1
0.01	1	0.0333331240001371	1	87	NA	212.694064393	0	0.79	3.75	1	203.307650791	203.340983915	"7"	3376.988870125	2458.655624355	1.5	0.1
0.01	1	0.0872280780001802	1	87	NA	212.694064393	0	0.79	3.75	1	203.574840951	203.662069029	"7"	3376.988870125	2458.655624355	1.5	0.1
0.01	1	0.0803979600000275	1	87	NA	212.694064393	0	0.79	3.75	1	203.891915286	203.972313246	"7"	3376.988870125	2458.655624355	1.5	0.1
0.01	1	0.0513094929999625	1	87	NA	212.694064393	0	0.79	3.75	1	204.209095696	204.260405189	"7"	3376.988870125	2458.655624355	1.5	0.1
0.01	1	0.0491217009998763	1	87	NA	212.694064393	0	0.79	3.75	1	204.492936171	204.542057872	"7"	3376.988870125	2458.655624355	1.5	0.1
0.01	1	0.0530709739998656	1	87	NA	212.694064393	0	0.79	3.75	1	204.776755321	204.829826295	"7"	3376.988870125	2458.655624355	1.5	0.1
0.01	1	0.071697075999964	1	87	NA	212.694064393	0	0.79	3.75	1	205.060529581	205.132226657	"7"	3376.988870125	2458.655624355	1.5	0.1
0.01	1	0.0351825580000877	1	87	NA	212.694064393	0	0.79	3.75	1	205.361074891	205.396257449	"7"	3376.988870125	2458.655624355	1.5	0.1
0.01	1	0.103887382000039	1	87	NA	212.694064393	0	0.79	3.75	1	205.628224134	205.732111516	"7"	3376.988870125	2458.655624355	1.5	0.1
0.01	1	0.0521457849999933	1	87	NA	212.694064393	0	0.79	3.75	1	205.962080044	206.014225829	"7"	3376.988870125	2458.655624355	1.5	0.1
0.01	1	0.0550709990000087	1	87	NA	212.694064393	0	0.79	3.75	1	206.245864448	206.300935447	"7"	3376.988870125	2458.655624355	1.5	0.1
0.01	1	0.0750638249999156	1	87	NA	212.694064393	0	0.79	3.75	1	206.529724746	206.604788571	"7"	3376.988870125	2458.655624355	1.5	0.1
0.01	1	0.078219961999821	1	87	NA	212.694064393	0	0.79	3.75	1	206.830251703	206.908471665	"7"	3376.988870125	2458.655624355	1.5	0.1
0.01	1	0.0579269789998307	1	87	NA	212.694064393	0	0.79	3.75	1	207.147385651	207.20531263	"7"	3376.988870125	2458.655624355	1.5	0.1
0.01	1	0.094648917999848	1	87	NA	212.694064393	0	0.79	3.75	1	207.431226711	207.525875629	"7"	3376.988870125	2458.655624355	1.5	0.1
0.01	1	0.104073699000082	1	87	NA	212.694064393	0	0.79	3.75	1	207.748451897	207.852525596	"7"	3376.988870125	2458.655624355	1.5	0.1
0.01	1	0.0675256540000646	1	87	NA	212.694064393	0	0.79	3.75	1	208.082271063	208.149796717	"7"	3376.988870125	2458.655624355	1.5	0.1
0.01	1	0.0459207940000397	1	87	NA	212.694064393	0	0.79	3.75	1	208.382996718	208.428917512	"7"	3376.988870125	2458.655624355	1.5	0.1
0.01	1	0.107097588999977	1	87	NA	212.694064393	0	0.79	3.75	1	208.666603801	208.77370139	"7"	3376.988870125	2458.655624355	1.5	0.1
0.01	1	0.0932268320000276	1	87	NA	212.694064393	0	0.79	3.75	1	209.000506021	209.093732853	"7"	3376.988870125	2458.655624355	1.5	0.1
0.01	1	0.0794856980000986	1	87	NA	212.694064393	0	0.79	3.75	1	209.317695188	209.397180886	"7"	3376.988870125	2458.655624355	1.5	0.1
0.01	1	0.0897308480000447	1	87	NA	212.694064393	0	0.79	3.75	1	209.635023988	209.724754836	"7"	3376.988870125	2458.655624355	1.5	0.1
0.01	1	0.100603998999986	1	87	NA	212.694064393	0	0.79	3.75	1	209.952171196	210.052775195	"7"	3376.988870125	2458.655624355	1.5	0.1
0.01	1	0.111487114000056	1	87	NA	212.694064393	0	0.79	3.75	1	210.286084881	210.397571995	"7"	3376.988870125	2458.655624355	1.5	0.1
0.01	1	0.192964842000038	1	87	NA	212.694064393	0	0.79	3.75	1	210.619944771	210.812909613	"7"	3376.988870125	2458.655624355	1.5	0.1
0.01	1	0.128947591000042	1	87	NA	212.694064393	0	0.79	3.75	1	211.037219596	211.166167187	"7"	3376.988870125	2458.655624355	1.5	0.1
0.01	1	0.159956931000124	1	87	NA	212.694064393	0	0.79	3.75	1	211.404631396	211.564588327	"7"	3376.988870125	2458.655624355	1.5	0.1
0.01	1	0.903905230999953	2	87	NA	212.694064393	0	0.79	3.75	1	211.788628078	212.692533309	"7"	3376.988870125	2458.655624355	1.5	0.1
0.01	1	2.82080388200006	1	6	219.070547076	NA	1	0	3.75	1	214.743532331	217.564336213	"8"	3376.988870125	2458.655624355	1.5	0.1
0.01	1	0.00212763500007895	1	6	219.070547076	NA	1	0	3.75	1	217.798691509	217.800819144	"8"	3376.988870125	2458.655624355	1.5	0.1
0.01	1	0.0519836129999476	1	6	219.070547076	NA	1	0	3.75	1	218.032383031	218.084366644	"8"	3376.988870125	2458.655624355	1.5	0.1
0.01	1	0.0478175389998796	1	6	219.070547076	NA	1	0	3.75	1	218.316228566	218.364046105	"8"	3376.988870125	2458.655624355	1.5	0.1
0.01	1	0.0688692090000131	1	6	219.070547076	NA	1	0	3.75	1	218.600073118	218.668942327	"8"	3376.988870125	2458.655624355	1.5	0.1
0.01	1	0.0551154770000721	1	6	219.070547076	NA	1	0	3.75	1	218.900497658	218.955613135	"8"	3376.988870125	2458.655624355	1.5	0.1
0.01	1	0.260329785000067	1	106	NA	264.74894362	0	1.03	4.78	1	221.104254956	221.364584741	"9"	3376.988870125	2458.655624355	1.5	0.1
0.01	1	0.0954147070001454	1	106	NA	264.74894362	0	1.03	4.78	1	221.605044788	221.700459495	"9"	3376.988870125	2458.655624355	1.5	0.1
0.01	1	0.104811702000006	1	106	NA	264.74894362	0	1.03	4.78	1	221.938920461	222.043732163	"9"	3376.988870125	2458.655624355	1.5	0.1
0.01	1	0.0925376620000407	1	106	NA	264.74894362	0	1.03	4.78	1	222.272898406	222.365436068	"9"	3376.988870125	2458.655624355	1.5	0.1
0.01	1	0.118692995000174	1	106	NA	264.74894362	0	1.03	4.78	1	222.590129471	222.708822466	"9"	3376.988870125	2458.655624355	1.5	0.1
0.01	1	0.11972526999989	1	106	NA	264.74894362	0	1.03	4.78	1	222.940701896	223.060427166	"9"	3376.988870125	2458.655624355	1.5	0.1
0.01	1	0.10422779999999	1	106	NA	264.74894362	0	1.03	4.78	1	223.291276806	223.395504606	"9"	3376.988870125	2458.655624355	1.5	0.1
0.01	1	0.0924129299999095	1	106	NA	264.74894362	0	1.03	4.78	1	223.625208546	223.717621476	"9"	3376.988870125	2458.655624355	1.5	0.1
0.01	1	0.126869539999916	1	106	NA	264.74894362	0	1.03	4.78	1	223.942279468	224.069149008	"9"	3376.988870125	2458.655624355	1.5	0.1
0.01	1	0.143813055999999	1	106	NA	264.74894362	0	1.03	4.78	1	224.292831651	224.436644707	"9"	3376.988870125	2458.655624355	1.5	0.1
0.01	1	0.102493589000005	1	106	NA	264.74894362	0	1.03	4.78	1	224.676914581	224.77940817	"9"	3376.988870125	2458.655624355	1.5	0.1
0.01	1	0.113593078999884	1	106	NA	264.74894362	0	1.03	4.78	1	225.010736376	225.124329455	"9"	3376.988870125	2458.655624355	1.5	0.1
0.01	1	0.130931486999998	1	106	NA	264.74894362	0	1.03	4.78	1	225.361409691	225.492341178	"9"	3376.988870125	2458.655624355	1.5	0.1
0.01	1	0.0835311180001099	1	106	NA	264.74894362	0	1.03	4.78	1	225.728623963	225.812155081	"9"	3376.988870125	2458.655624355	1.5	0.1
0.01	1	0.158981626000013	1	106	NA	264.74894362	0	1.03	4.78	1	226.045877381	226.204859007	"9"	3376.988870125	2458.655624355	1.5	0.1
0.01	1	0.118729613000141	1	106	NA	264.74894362	0	1.03	4.78	1	226.429861398	226.548591011	"9"	3376.988870125	2458.655624355	1.5	0.1
0.01	1	0.0789909229999921	1	106	NA	264.74894362	0	1.03	4.78	1	226.780474276	226.859465199	"9"	3376.988870125	2458.655624355	1.5	0.1
0.01	1	0.114698957000201	1	106	NA	264.74894362	0	1.03	4.78	1	227.097706566	227.212405523	"9"	3376.988870125	2458.655624355	1.5	0.1
0.01	1	0.0993125369998324	1	106	NA	264.74894362	0	1.03	4.78	1	227.448267461	227.547579998	"9"	3376.988870125	2458.655624355	1.5	0.1
0.01	1	0.0618933619998643	1	106	NA	264.74894362	0	1.03	4.78	1	227.782048183	227.843941545	"9"	3376.988870125	2458.655624355	1.5	0.1
0.01	1	0.130252458000086	1	106	NA	264.74894362	0	1.03	4.78	1	228.065875681	228.196128139	"9"	3376.988870125	2458.655624355	1.5	0.1
0.01	1	0.0907428450000225	1	106	NA	264.74894362	0	1.03	4.78	1	228.43318727	228.523930115	"9"	3376.988870125	2458.655624355	1.5	0.1
0.01	1	0.102173267000126	1	106	NA	264.74894362	0	1.03	4.78	1	228.750472361	228.852645628	"9"	3376.988870125	2458.655624355	1.5	0.1
0.01	1	0.144508497000061	1	106	NA	264.74894362	0	1.03	4.78	1	229.084283898	229.228792395	"9"	3376.988870125	2458.655624355	1.5	0.1
0.01	1	0.105432984000117	1	106	NA	264.74894362	0	1.03	4.78	1	229.451623506	229.55705649	"9"	3376.988870125	2458.655624355	1.5	0.1
0.01	1	0.123602429999892	1	106	NA	264.74894362	0	1.03	4.78	1	229.785560548	229.909162978	"9"	3376.988870125	2458.655624355	1.5	0.1
0.01	1	0.0932309100001021	1	106	NA	264.74894362	0	1.03	4.78	1	230.136109928	230.229340838	"9"	3376.988870125	2458.655624355	1.5	0.1
0.01	1	0.111330760000101	1	106	NA	264.74894362	0	1.03	4.78	1	230.453359996	230.564690756	"9"	3376.988870125	2458.655624355	1.5	0.1
0.01	1	0.111808792000147	1	106	NA	264.74894362	0	1.03	4.78	1	230.803826718	230.91563551	"9"	3376.988870125	2458.655624355	1.5	0.1
0.01	1	0.11413331499989	1	106	NA	264.74894362	0	1.03	4.78	1	231.137809446	231.251942761	"9"	3376.988870125	2458.655624355	1.5	0.1
0.01	1	0.0917776369999501	1	106	NA	264.74894362	0	1.03	4.78	1	231.488413531	231.580191168	"9"	3376.988870125	2458.655624355	1.5	0.1
0.01	1	0.143351369999891	1	106	NA	264.74894362	0	1.03	4.78	1	231.805629481	231.948980851	"9"	3376.988870125	2458.655624355	1.5	0.1
0.01	1	0.0946089390001816	1	106	NA	264.74894362	0	1.03	4.78	1	232.172864206	232.267473145	"9"	3376.988870125	2458.655624355	1.5	0.1
0.01	1	0.113900037999883	1	106	NA	264.74894362	0	1.03	4.78	1	232.489976208	232.603876246	"9"	3376.988870125	2458.655624355	1.5	0.1
0.01	1	0.0760921630001121	1	106	NA	264.74894362	0	1.03	4.78	1	232.840569363	232.916661526	"9"	3376.988870125	2458.655624355	1.5	0.1
0.01	1	0.159564726999861	1	106	NA	264.74894362	0	1.03	4.78	1	233.14122194	233.300786667	"9"	3376.988870125	2458.655624355	1.5	0.1
0.01	1	0.102408325999932	1	106	NA	264.74894362	0	1.03	4.78	1	233.525134081	233.627542407	"9"	3376.988870125	2458.655624355	1.5	0.1
0.01	1	0.0975692319998416	1	106	NA	264.74894362	0	1.03	4.78	1	233.859113156	233.956682388	"9"	3376.988870125	2458.655624355	1.5	0.1
0.01	1	0.0831108029999541	1	106	NA	264.74894362	0	1.03	4.78	1	234.193033023	234.276143826	"9"	3376.988870125	2458.655624355	1.5	0.1
0.01	1	0.10315017899984	1	106	NA	264.74894362	0	1.03	4.78	1	234.510078658	234.613228837	"9"	3376.988870125	2458.655624355	1.5	0.1
0.01	1	0.0964638240000113	1	106	NA	264.74894362	0	1.03	4.78	1	234.843915376	234.9403792	"9"	3376.988870125	2458.655624355	1.5	0.1
0.01	1	0.122418083999946	1	106	NA	264.74894362	0	1.03	4.78	1	235.177931176	235.30034926	"9"	3376.988870125	2458.655624355	1.5	0.1
0.01	1	0.124509810000063	1	106	NA	264.74894362	0	1.03	4.78	1	235.528549326	235.653059136	"9"	3376.988870125	2458.655624355	1.5	0.1
0.01	1	0.166033459999881	1	106	NA	264.74894362	0	1.03	4.78	1	235.879030768	236.045064228	"9"	3376.988870125	2458.655624355	1.5	0.1
0.01	1	0.109396380999897	1	106	NA	264.74894362	0	1.03	4.78	1	236.279774708	236.389171089	"9"	3376.988870125	2458.655624355	1.5	0.1
0.01	1	0.175740594999979	1	106	NA	264.74894362	0	1.03	4.78	1	236.613665068	236.789405663	"9"	3376.988870125	2458.655624355	1.5	0.1
0.01	1	0.0939190379999673	1	106	NA	264.74894362	0	1.03	4.78	1	237.014346168	237.108265206	"9"	3376.988870125	2458.655624355	1.5	0.1
0.01	1	0.120830432000048	1	106	NA	264.74894362	0	1.03	4.78	1	237.348225811	237.469056243	"9"	3376.988870125	2458.655624355	1.5	0.1
0.01	1	0.106259246000036	1	106	NA	264.74894362	0	1.03	4.78	1	237.698820633	237.805079879	"9"	3376.988870125	2458.655624355	1.5	0.1
0.01	1	0.106758261000095	1	106	NA	264.74894362	0	1.03	4.78	1	238.032654958	238.139413219	"9"	3376.988870125	2458.655624355	1.5	0.1
0.01	1	0.117167511999924	1	106	NA	264.74894362	0	1.03	4.78	1	238.366678131	238.483845643	"9"	3376.988870125	2458.655624355	1.5	0.1
0.01	1	0.0787888389997988	1	106	NA	264.74894362	0	1.03	4.78	1	238.717218438	238.796007277	"9"	3376.988870125	2458.655624355	1.5	0.1
0.01	1	0.122667470999886	1	106	NA	264.74894362	0	1.03	4.78	1	239.017697058	239.140364529	"9"	3376.988870125	2458.655624355	1.5	0.1
0.01	1	0.139606573000037	1	106	NA	264.74894362	0	1.03	4.78	1	239.368297806	239.507904379	"9"	3376.988870125	2458.655624355	1.5	0.1
0.01	1	0.0926470819999849	1	106	NA	264.74894362	0	1.03	4.78	1	239.735574118	239.8282212	"9"	3376.988870125	2458.655624355	1.5	0.1
0.01	1	0.15129565899997	1	106	NA	264.74894362	0	1.03	4.78	1	240.052835858	240.204131517	"9"	3376.988870125	2458.655624355	1.5	0.1
0.01	1	0.128752709000082	1	106	NA	264.74894362	0	1.03	4.78	1	240.436650676	240.565403385	"9"	3376.988870125	2458.655624355	1.5	0.1
0.01	1	0.128375749000043	1	106	NA	264.74894362	0	1.03	4.78	1	240.787258086	240.915633835	"9"	3376.988870125	2458.655624355	1.5	0.1
0.01	1	0.130054768000036	1	106	NA	264.74894362	0	1.03	4.78	1	241.137856588	241.267911356	"9"	3376.988870125	2458.655624355	1.5	0.1
0.01	1	0.10779643800015	1	106	NA	264.74894362	0	1.03	4.78	1	241.505213659	241.613010097	"9"	3376.988870125	2458.655624355	1.5	0.1
0.01	1	0.124219610999944	1	106	NA	264.74894362	0	1.03	4.78	1	241.839124401	241.963344012	"9"	3376.988870125	2458.655624355	1.5	0.1
0.01	1	0.133852662999971	1	106	NA	264.74894362	0	1.03	4.78	1	242.189697606	242.323550269	"9"	3376.988870125	2458.655624355	1.5	0.1
0.01	1	0.12810485	1	106	NA	264.74894362	0	1.03	4.78	1	242.55699286	242.68509771	"9"	3376.988870125	2458.655624355	1.5	0.1
0.01	1	0.153682647000096	1	106	NA	264.74894362	0	1.03	4.78	1	242.907548179	243.061230826	"9"	3376.988870125	2458.655624355	1.5	0.1
0.01	1	0.105954277999899	1	106	NA	264.74894362	0	1.03	4.78	1	243.291468883	243.397423161	"9"	3376.988870125	2458.655624355	1.5	0.1
0.01	1	0.177946067999983	1	106	NA	264.74894362	0	1.03	4.78	1	243.625452001	243.803398069	"9"	3376.988870125	2458.655624355	1.5	0.1
0.01	1	0.130186288999994	1	106	NA	264.74894362	0	1.03	4.78	1	244.042895476	244.173081765	"9"	3376.988870125	2458.655624355	1.5	0.1
0.01	1	0.145629196000073	1	106	NA	264.74894362	0	1.03	4.78	1	244.410077271	244.555706467	"9"	3376.988870125	2458.655624355	1.5	0.1
0.01	1	0.154407579999997	1	106	NA	264.74894362	0	1.03	4.78	1	244.794097621	244.948505201	"9"	3376.988870125	2458.655624355	1.5	0.1
0.01	1	0.155345515999898	1	106	NA	264.74894362	0	1.03	4.78	1	245.178079468	245.333424984	"9"	3376.988870125	2458.655624355	1.5	0.1
0.01	1	0.475115573000039	1	106	NA	264.74894362	0	1.03	4.78	1	245.562016136	246.037131709	"9"	3376.988870125	2458.655624355	1.5	0.1
0.01	1	0.188903319000019	1	106	NA	264.74894362	0	1.03	4.78	1	246.263163668	246.452066987	"9"	3376.988870125	2458.655624355	1.5	0.1
0.01	1	0.242811174999815	1	106	NA	264.74894362	0	1.03	4.78	1	246.680631583	246.923442758	"9"	3376.988870125	2458.655624355	1.5	0.1
0.01	1	0.151035945999865	1	106	NA	264.74894362	0	1.03	4.78	1	247.164766043	247.315801989	"9"	3376.988870125	2458.655624355	1.5	0.1
0.01	1	1.59222601199986	1	106	NA	264.74894362	0	1.03	4.78	1	247.548638183	249.140864195	"9"	3376.988870125	2458.655624355	1.5	0.1
0.01	1	0.187200537000081	1	106	NA	264.74894362	0	1.03	4.78	1	249.368441066	249.555641603	"9"	3376.988870125	2458.655624355	1.5	0.1
0.01	1	0.339050656999916	1	106	NA	264.74894362	0	1.03	4.78	1	249.785816748	250.124867405	"9"	3376.988870125	2458.655624355	1.5	0.1
0.01	1	0.25942604099987	1	106	NA	264.74894362	0	1.03	4.78	1	250.353394006	250.612820047	"9"	3376.988870125	2458.655624355	1.5	0.1
0.01	1	0.31900008599996	1	106	NA	264.74894362	0	1.03	4.78	1	250.837584651	251.156584737	"9"	3376.988870125	2458.655624355	1.5	0.1
0.01	1	0.35280484000009	1	106	NA	264.74894362	0	1.03	4.78	1	251.388497936	251.741302776	"9"	3376.988870125	2458.655624355	1.5	0.1
0.01	1	0.208125246999998	1	106	NA	264.74894362	0	1.03	4.78	1	251.972778238	252.180903485	"9"	3376.988870125	2458.655624355	1.5	0.1
0.01	1	0.29303480700014	1	106	NA	264.74894362	0	1.03	4.78	1	252.406921691	252.699956498	"9"	3376.988870125	2458.655624355	1.5	0.1
0.01	1	0.216557365999961	1	106	NA	264.74894362	0	1.03	4.78	1	252.924441563	253.140998929	"9"	3376.988870125	2458.655624355	1.5	0.1
0.01	1	0.22029811099992	1	106	NA	264.74894362	0	1.03	4.78	1	253.375263301	253.595561412	"9"	3376.988870125	2458.655624355	1.5	0.1
0.01	1	0.369788529000061	1	106	NA	264.74894362	0	1.03	4.78	1	253.825923194	254.195711723	"9"	3376.988870125	2458.655624355	1.5	0.1
0.01	1	0.209455317999982	1	106	NA	264.74894362	0	1.03	4.78	1	254.427098013	254.636553331	"9"	3376.988870125	2458.655624355	1.5	0.1
0.01	1	0.206951955000022	1	106	NA	264.74894362	0	1.03	4.78	1	254.861001506	255.067953461	"9"	3376.988870125	2458.655624355	1.5	0.1
0.01	1	0.196958179000148	1	106	NA	264.74894362	0	1.03	4.78	1	255.295011966	255.491970145	"9"	3376.988870125	2458.655624355	1.5	0.1
0.01	1	0.171467539000105	1	106	NA	264.74894362	0	1.03	4.78	1	255.729134486	255.900602025	"9"	3376.988870125	2458.655624355	1.5	0.1
0.01	1	0.218876477000094	1	106	NA	264.74894362	0	1.03	4.78	1	256.129770171	256.348646648	"9"	3376.988870125	2458.655624355	1.5	0.1
0.01	1	0.222902224000109	1	106	NA	264.74894362	0	1.03	4.78	1	256.580547408	256.803449632	"9"	3376.988870125	2458.655624355	1.5	0.1
0.01	1	0.20545124399996	1	106	NA	264.74894362	0	1.03	4.78	1	257.031292563	257.236743807	"9"	3376.988870125	2458.655624355	1.5	0.1
0.01	1	0.186070751999978	1	106	NA	264.74894362	0	1.03	4.78	1	257.465343941	257.651414693	"9"	3376.988870125	2458.655624355	1.5	0.1
0.01	1	0.233220074999963	1	106	NA	264.74894362	0	1.03	4.78	1	257.882786786	258.116006861	"9"	3376.988870125	2458.655624355	1.5	0.1
0.01	1	0.189171505999866	1	106	NA	264.74894362	0	1.03	4.78	1	258.350275981	258.539447487	"9"	3376.988870125	2458.655624355	1.5	0.1
0.01	1	0.268472786000075	1	106	NA	264.74894362	0	1.03	4.78	1	258.767688416	259.036161202	"9"	3376.988870125	2458.655624355	1.5	0.1
0.01	1	0.183458946999963	1	106	NA	264.74894362	0	1.03	4.78	1	259.268457551	259.451916498	"9"	3376.988870125	2458.655624355	1.5	0.1
0.01	1	0.182586833999949	1	106	NA	264.74894362	0	1.03	4.78	1	259.685848263	259.868435097	"9"	3376.988870125	2458.655624355	1.5	0.1
0.01	1	0.398156573000051	1	106	NA	264.74894362	0	1.03	4.78	1	260.103168766	260.501325339	"9"	3376.988870125	2458.655624355	1.5	0.1
0.01	1	2.07387738299985	1	106	NA	264.74894362	0	1.03	4.78	1	260.737585726	262.811463109	"9"	3376.988870125	2458.655624355	1.5	0.1
0.01	1	0.234601486999964	1	106	NA	264.74894362	0	1.03	4.78	1	263.041370721	263.275972208	"9"	3376.988870125	2458.655624355	1.5	0.1
0.01	1	0.134846661999973	1	106	NA	264.74894362	0	1.03	4.78	1	263.508854801	263.643701463	"9"	3376.988870125	2458.655624355	1.5	0.1
0.01	1	0.223280208000006	1	106	NA	264.74894362	0	1.03	4.78	1	263.876185991	264.099466199	"9"	3376.988870125	2458.655624355	1.5	0.1
0.01	1	0.420499988999836	2	106	NA	264.74894362	0	1.03	4.78	1	264.326923983	264.747423972	"9"	3376.988870125	2458.655624355	1.5	0.1
0.01	1	5.22975990899999	1	21	279.321771623	NA	1	0	4.78	1	266.797804981	272.02756489	"10"	3376.988870125	2458.655624355	1.5	0.1
0.01	1	0.0823884319997887	1	21	279.321771623	NA	1	0	4.78	1	272.256858498	272.33924693	"10"	3376.988870125	2458.655624355	1.5	0.1
0.01	1	0.126622981000082	1	21	279.321771623	NA	1	0	4.78	1	272.574159649	272.70078263	"10"	3376.988870125	2458.655624355	1.5	0.1
0.01	1	0.136237648000133	1	21	279.321771623	NA	1	0	4.78	1	272.924675538	273.060913186	"10"	3376.988870125	2458.655624355	1.5	0.1
0.01	1	0.136343945999897	1	21	279.321771623	NA	1	0	4.78	1	273.291977918	273.428321864	"10"	3376.988870125	2458.655624355	1.5	0.1
0.01	1	0.120705702000123	1	21	279.321771623	NA	1	0	4.78	1	273.659285251	273.779990953	"10"	3376.988870125	2458.655624355	1.5	0.1
0.01	1	0.106401359000074	1	21	279.321771623	NA	1	0	4.78	1	274.009967591	274.11636895	"10"	3376.988870125	2458.655624355	1.5	0.1
0.01	1	0.131963294000116	1	21	279.321771623	NA	1	0	4.78	1	274.343779761	274.475743055	"10"	3376.988870125	2458.655624355	1.5	0.1
0.01	1	0.124769763000131	1	21	279.321771623	NA	1	0	4.78	1	274.711009336	274.835779099	"10"	3376.988870125	2458.655624355	1.5	0.1
0.01	1	0.110362354000017	1	21	279.321771623	NA	1	0	4.78	1	275.061628416	275.17199077	"10"	3376.988870125	2458.655624355	1.5	0.1
0.01	1	0.137216068000043	1	21	279.321771623	NA	1	0	4.78	1	275.395600071	275.532816139	"10"	3376.988870125	2458.655624355	1.5	0.1
0.01	1	0.136947739000107	1	21	279.321771623	NA	1	0	4.78	1	275.762942291	275.89989003	"10"	3376.988870125	2458.655624355	1.5	0.1
0.01	1	0.146924201000047	1	21	279.321771623	NA	1	0	4.78	1	276.130037588	276.276961789	"10"	3376.988870125	2458.655624355	1.5	0.1
0.01	1	0.121853062000127	1	21	279.321771623	NA	1	0	4.78	1	276.514167283	276.636020345	"10"	3376.988870125	2458.655624355	1.5	0.1
0.01	1	0.123711587999878	1	21	279.321771623	NA	1	0	4.78	1	276.864737943	276.988449531	"10"	3376.988870125	2458.655624355	1.5	0.1
0.01	1	0.11781447300018	1	21	279.321771623	NA	1	0	4.78	1	277.215324436	277.333138909	"10"	3376.988870125	2458.655624355	1.5	0.1
0.01	1	0.133621687999948	1	21	279.321771623	NA	1	0	4.78	1	277.565868671	277.699490359	"10"	3376.988870125	2458.655624355	1.5	0.1
0.01	1	0.119071869000209	1	21	279.321771623	NA	1	0	4.78	1	277.933181358	278.052253227	"10"	3376.988870125	2458.655624355	1.5	0.1
0.01	1	0.152222666000171	1	21	279.321771623	NA	1	0	4.78	1	278.283645043	278.435867709	"10"	3376.988870125	2458.655624355	1.5	0.1
0.01	1	0.144178128000021	1	21	279.321771623	NA	1	0	4.78	1	278.667694888	278.811873016	"10"	3376.988870125	2458.655624355	1.5	0.1
0.01	1	0.169518492999941	1	21	279.321771623	NA	1	0	4.78	1	279.035019571	279.204538064	"10"	3376.988870125	2458.655624355	1.5	0.1
0.01	1	0.584416286000078	1	19	288.453819083	NA	1	0	4.78	1	281.372208003	281.956624289	"11"	3376.988870125	2458.655624355	1.5	0.1
0.01	1	0.109304104000103	1	19	288.453819083	NA	1	0	4.78	1	282.190388691	282.299692795	"11"	3376.988870125	2458.655624355	1.5	0.1
0.01	1	0.136835284999961	1	19	288.453819083	NA	1	0	4.78	1	282.524238048	282.661073333	"11"	3376.988870125	2458.655624355	1.5	0.1
0.01	1	0.12039472399988	1	19	288.453819083	NA	1	0	4.78	1	282.891410803	283.011805527	"11"	3376.988870125	2458.655624355	1.5	0.1
0.01	1	0.129366398000002	1	19	288.453819083	NA	1	0	4.78	1	283.242098096	283.371464494	"11"	3376.988870125	2458.655624355	1.5	0.1
0.01	1	0.146120961999941	1	19	288.453819083	NA	1	0	4.78	1	283.609354541	283.755475503	"11"	3376.988870125	2458.655624355	1.5	0.1
0.01	1	0.138922727999898	1	19	288.453819083	NA	1	0	4.78	1	283.993270178	284.132192906	"11"	3376.988870125	2458.655624355	1.5	0.1
0.01	1	0.107733055999915	1	19	288.453819083	NA	1	0	4.78	1	284.360548803	284.468281859	"11"	3376.988870125	2458.655624355	1.5	0.1
0.01	1	0.110177856999826	1	19	288.453819083	NA	1	0	4.78	1	284.694512721	284.804690578	"11"	3376.988870125	2458.655624355	1.5	0.1
0.01	1	0.136454376000074	1	19	288.453819083	NA	1	0	4.78	1	285.028512411	285.164966787	"11"	3376.988870125	2458.655624355	1.5	0.1
0.01	1	0.119422995999912	1	19	288.453819083	NA	1	0	4.78	1	285.395692148	285.515115144	"11"	3376.988870125	2458.655624355	1.5	0.1
0.01	1	0.137718209000013	1	19	288.453819083	NA	1	0	4.78	1	285.746307117	285.884025326	"11"	3376.988870125	2458.655624355	1.5	0.1
0.01	1	0.130556593999927	1	19	288.453819083	NA	1	0	4.78	1	286.113559796	286.24411639	"11"	3376.988870125	2458.655624355	1.5	0.1
0.01	1	0.108116532000167	1	19	288.453819083	NA	1	0	4.78	1	286.480917461	286.589033993	"11"	3376.988870125	2458.655624355	1.5	0.1
0.01	1	0.125129898000068	1	19	288.453819083	NA	1	0	4.78	1	286.814700758	286.939830656	"11"	3376.988870125	2458.655624355	1.5	0.1
0.01	1	0.143578531000003	1	19	288.453819083	NA	1	0	4.78	1	287.165342496	287.308921027	"11"	3376.988870125	2458.655624355	1.5	0.1
0.01	1	0.120477323000159	1	19	288.453819083	NA	1	0	4.78	1	287.532563258	287.653040581	"11"	3376.988870125	2458.655624355	1.5	0.1
0.01	1	0.0653011229999265	1	19	288.453819083	NA	1	0	4.78	1	287.883178086	287.948479209	"11"	3376.988870125	2458.655624355	1.5	0.1
0.01	1	0.156292270999984	1	19	288.453819083	NA	1	0	4.78	1	288.183682046	288.339974317	"11"	3376.988870125	2458.655624355	1.5	0.1
0.01	1	0.00759687799995845	1	63	NA	311.74929332	0	0.58	5.36	1	290.504281291	290.511878169	"12"	3376.988870125	2458.655624355	1.5	0.1
0.01	1	0.129293567000104	1	63	NA	311.74929332	0	0.58	5.36	1	290.738069796	290.867363363	"12"	3376.988870125	2458.655624355	1.5	0.1
0.01	1	0.10732985300001	1	63	NA	311.74929332	0	0.58	5.36	1	291.105336416	291.212666269	"12"	3376.988870125	2458.655624355	1.5	0.1
0.01	1	0.124282430999983	1	63	NA	311.74929332	0	0.58	5.36	1	291.439136118	291.563418549	"12"	3376.988870125	2458.655624355	1.5	0.1
0.01	1	0.0943127400000776	1	63	NA	311.74929332	0	0.58	5.36	1	291.789822171	291.884134911	"12"	3376.988870125	2458.655624355	1.5	0.1
0.01	1	0.0891407809999691	1	63	NA	311.74929332	0	0.58	5.36	1	292.107063136	292.196203917	"12"	3376.988870125	2458.655624355	1.5	0.1
0.01	1	0.139649154999915	1	63	NA	311.74929332	0	0.58	5.36	1	292.424133811	292.563782966	"12"	3376.988870125	2458.655624355	1.5	0.1
0.01	1	0.108405086999937	1	63	NA	311.74929332	0	0.58	5.36	1	292.791532268	292.899937355	"12"	3376.988870125	2458.655624355	1.5	0.1
0.01	1	0.101969338999879	1	63	NA	311.74929332	0	0.58	5.36	1	293.125313656	293.227282995	"12"	3376.988870125	2458.655624355	1.5	0.1
0.01	1	0.0881686600000648	1	63	NA	311.74929332	0	0.58	5.36	1	293.459238781	293.547407441	"12"	3376.988870125	2458.655624355	1.5	0.1
0.01	1	0.15528462899988	1	63	NA	311.74929332	0	0.58	5.36	1	293.776492481	293.93177711	"12"	3376.988870125	2458.655624355	1.5	0.1
0.01	1	0.139901765000104	1	63	NA	311.74929332	0	0.58	5.36	1	294.160437621	294.300339386	"12"	3376.988870125	2458.655624355	1.5	0.1
0.01	1	0.123918939000077	1	63	NA	311.74929332	0	0.58	5.36	1	294.527748011	294.65166695	"12"	3376.988870125	2458.655624355	1.5	0.1
0.01	1	0.134687745000065	1	63	NA	311.74929332	0	0.58	5.36	1	294.878295498	295.012983243	"12"	3376.988870125	2458.655624355	1.5	0.1
0.01	1	0.134134633000031	1	63	NA	311.74929332	0	0.58	5.36	1	295.245687278	295.379821911	"12"	3376.988870125	2458.655624355	1.5	0.1
0.01	1	0.207432958000027	1	63	NA	311.74929332	0	0.58	5.36	1	295.612934218	295.820367176	"12"	3376.988870125	2458.655624355	1.5	0.1
0.01	1	0.108802798999932	1	63	NA	311.74929332	0	0.58	5.36	1	296.046953251	296.15575605	"12"	3376.988870125	2458.655624355	1.5	0.1
0.01	1	0.135187661000145	1	63	NA	311.74929332	0	0.58	5.36	1	296.380874236	296.516061897	"12"	3376.988870125	2458.655624355	1.5	0.1
0.01	1	0.104167750000215	1	63	NA	311.74929332	0	0.58	5.36	1	296.748045611	296.852213361	"12"	3376.988870125	2458.655624355	1.5	0.1
0.01	1	0.12184587999991	1	63	NA	311.74929332	0	0.58	5.36	1	297.082049301	297.203895181	"12"	3376.988870125	2458.655624355	1.5	0.1
0.01	1	0.14730491399996	1	63	NA	311.74929332	0	0.58	5.36	1	297.432654551	297.579959465	"12"	3376.988870125	2458.655624355	1.5	0.1
0.01	1	0.107014673000094	1	63	NA	311.74929332	0	0.58	5.36	1	297.816656754	297.923671427	"12"	3376.988870125	2458.655624355	1.5	0.1
0.01	1	0.0935844179998639	1	63	NA	311.74929332	0	0.58	5.36	1	298.150515061	298.244099479	"12"	3376.988870125	2458.655624355	1.5	0.1
0.01	1	0.135610071999963	1	63	NA	311.74929332	0	0.58	5.36	1	298.484485591	298.620095663	"12"	3376.988870125	2458.655624355	1.5	0.1
0.01	1	0.0966773199997988	1	63	NA	311.74929332	0	0.58	5.36	1	298.851632876	298.948310196	"12"	3376.988870125	2458.655624355	1.5	0.1
0.01	1	0.0899396479999268	1	63	NA	311.74929332	0	0.58	5.36	1	299.185625756	299.275565404	"12"	3376.988870125	2458.655624355	1.5	0.1
0.01	1	0.117332584999986	1	63	NA	311.74929332	0	0.58	5.36	1	299.502793538	299.620126123	"12"	3376.988870125	2458.655624355	1.5	0.1
0.01	1	0.118020825000031	1	63	NA	311.74929332	0	0.58	5.36	1	299.853415278	299.971436103	"12"	3376.988870125	2458.655624355	1.5	0.1
0.01	1	0.472591792999992	1	63	NA	311.74929332	0	0.58	5.36	1	300.204045296	300.676637089	"12"	3376.988870125	2458.655624355	1.5	0.1
0.01	1	0.121994837000102	1	63	NA	311.74929332	0	0.58	5.36	1	300.905142846	301.027137683	"12"	3376.988870125	2458.655624355	1.5	0.1
0.01	1	0.0995388339999863	1	63	NA	311.74929332	0	0.58	5.36	1	301.255653738	301.355192572	"12"	3376.988870125	2458.655624355	1.5	0.1
0.01	1	0.502137903000175	1	63	NA	311.74929332	0	0.58	5.36	1	301.589660466	302.091798369	"12"	3376.988870125	2458.655624355	1.5	0.1
0.01	1	0.127854379000155	1	63	NA	311.74929332	0	0.58	5.36	1	302.324178978	302.452033357	"12"	3376.988870125	2458.655624355	1.5	0.1
0.01	1	0.137904876999983	1	63	NA	311.74929332	0	0.58	5.36	1	302.674893236	302.812798113	"12"	3376.988870125	2458.655624355	1.5	0.1
0.01	1	0.122757130000082	1	63	NA	311.74929332	0	0.58	5.36	1	303.042078986	303.164836116	"12"	3376.988870125	2458.655624355	1.5	0.1
0.01	1	0.106940456000075	1	63	NA	311.74929332	0	0.58	5.36	1	303.392607831	303.499548287	"12"	3376.988870125	2458.655624355	1.5	0.1
0.01	1	0.0927726249999523	1	63	NA	311.74929332	0	0.58	5.36	1	303.726479111	303.819251736	"12"	3376.988870125	2458.655624355	1.5	0.1
0.01	1	0.0957207710000603	1	63	NA	311.74929332	0	0.58	5.36	1	304.043691483	304.139412254	"12"	3376.988870125	2458.655624355	1.5	0.1
0.01	1	0.0909015790000467	1	63	NA	311.74929332	0	0.58	5.36	1	304.377680691	304.46858227	"12"	3376.988870125	2458.655624355	1.5	0.1
0.01	1	0.157024402999923	1	63	NA	311.74929332	0	0.58	5.36	1	304.694906087	304.85193049	"12"	3376.988870125	2458.655624355	1.5	0.1
0.01	1	0.126016745000015	1	63	NA	311.74929332	0	0.58	5.36	1	305.078851601	305.204868346	"12"	3376.988870125	2458.655624355	1.5	0.1
0.01	1	0.101404809999849	1	63	NA	311.74929332	0	0.58	5.36	1	305.446100516	305.547505326	"12"	3376.988870125	2458.655624355	1.5	0.1
0.01	1	0.120077499999979	1	63	NA	311.74929332	0	0.58	5.36	1	305.779887351	305.899964851	"12"	3376.988870125	2458.655624355	1.5	0.1
0.01	1	0.121244804000071	1	63	NA	311.74929332	0	0.58	5.36	1	306.130565141	306.251809945	"12"	3376.988870125	2458.655624355	1.5	0.1
0.01	1	0.139606599999979	1	63	NA	311.74929332	0	0.58	5.36	1	306.481172158	306.620778758	"12"	3376.988870125	2458.655624355	1.5	0.1
0.01	1	0.155014929000117	1	63	NA	311.74929332	0	0.58	5.36	1	306.848441721	307.00345665	"12"	3376.988870125	2458.655624355	1.5	0.1
0.01	1	0.148603285000036	1	63	NA	311.74929332	0	0.58	5.36	1	307.232480161	307.381083446	"12"	3376.988870125	2458.655624355	1.5	0.1
0.01	1	0.107355167999913	1	63	NA	311.74929332	0	0.58	5.36	1	307.616325351	307.723680519	"12"	3376.988870125	2458.655624355	1.5	0.1
0.01	1	0.0943227840000418	1	63	NA	311.74929332	0	0.58	5.36	1	307.950263028	308.044585812	"12"	3376.988870125	2458.655624355	1.5	0.1
0.01	1	0.18415770799993	1	63	NA	311.74929332	0	0.58	5.36	1	308.267462976	308.451620684	"12"	3376.988870125	2458.655624355	1.5	0.1
0.01	1	0.0951254670001163	1	63	NA	311.74929332	0	0.58	5.36	1	308.684809928	308.779935395	"12"	3376.988870125	2458.655624355	1.5	0.1
0.01	1	0.130176181000024	1	63	NA	311.74929332	0	0.58	5.36	1	309.002034998	309.132211179	"12"	3376.988870125	2458.655624355	1.5	0.1
0.01	1	0.107208747999948	1	63	NA	311.74929332	0	0.58	5.36	1	309.369338398	309.476547146	"12"	3376.988870125	2458.655624355	1.5	0.1
0.01	1	0.116001240999822	1	63	NA	311.74929332	0	0.58	5.36	1	309.703325068	309.819326309	"12"	3376.988870125	2458.655624355	1.5	0.1
0.01	1	0.1264139970001	1	63	NA	311.74929332	0	0.58	5.36	1	310.053817426	310.180231423	"12"	3376.988870125	2458.655624355	1.5	0.1
0.01	1	0.120567148000191	1	63	NA	311.74929332	0	0.58	5.36	1	310.404462431	310.525029579	"12"	3376.988870125	2458.655624355	1.5	0.1
0.01	1	0.121678270000075	1	63	NA	311.74929332	0	0.58	5.36	1	310.755087316	310.876765586	"12"	3376.988870125	2458.655624355	1.5	0.1
0.01	1	0.154458789000046	1	63	NA	311.74929332	0	0.58	5.36	1	311.105673581	311.26013237	"12"	3376.988870125	2458.655624355	1.5	0.1
0.01	1	0.25818183399997	2	63	NA	311.74929332	0	0.58	5.36	1	311.489577578	311.747759412	"12"	3376.988870125	2458.655624355	1.5	0.1
0.01	1	5.74867640899993	1	54	340.226539081	NA	1	0	5.36	1	313.793472904	319.542149313	"13"	3376.988870125	2458.655624355	1.5	0.1
0.01	1	0.060989563000021	1	54	340.226539081	NA	1	0	5.36	1	319.770289856	319.831279419	"13"	3376.988870125	2458.655624355	1.5	0.1
0.01	1	0.0559273349999785	1	54	340.226539081	NA	1	0	5.36	1	320.070712938	320.126640273	"13"	3376.988870125	2458.655624355	1.5	0.1
0.01	1	0.108862066000029	1	54	340.226539081	NA	1	0	5.36	1	320.354456	320.463318066	"13"	3376.988870125	2458.655624355	1.5	0.1
0.01	1	0.102908509999907	1	54	340.226539081	NA	1	0	5.36	1	320.688508196	320.791416706	"13"	3376.988870125	2458.655624355	1.5	0.1
0.01	1	0.072715689000006	1	54	340.226539081	NA	1	0	5.36	1	321.022409151	321.09512484	"13"	3376.988870125	2458.655624355	1.5	0.1
0.01	1	0.10059805800006	1	54	340.226539081	NA	1	0	5.36	1	321.322752911	321.423350969	"13"	3376.988870125	2458.655624355	1.5	0.1
0.01	1	0.0615295439999954	1	54	340.226539081	NA	1	0	5.36	1	321.656697011	321.718226555	"13"	3376.988870125	2458.655624355	1.5	0.1
0.01	1	0.115144862999841	1	54	340.226539081	NA	1	0	5.36	1	321.940451087	322.05559595	"13"	3376.988870125	2458.655624355	1.5	0.1
0.01	1	0.0843564930000866	1	54	340.226539081	NA	1	0	5.36	1	322.291112208	322.375468701	"13"	3376.988870125	2458.655624355	1.5	0.1
0.01	1	0.102075772000035	1	54	340.226539081	NA	1	0	5.36	1	322.608314406	322.710390178	"13"	3376.988870125	2458.655624355	1.5	0.1
0.01	1	0.112770631999865	1	54	340.226539081	NA	1	0	5.36	1	322.942168246	323.054938878	"13"	3376.988870125	2458.655624355	1.5	0.1
0.01	1	0.0660058969999682	1	54	340.226539081	NA	1	0	5.36	1	323.292808241	323.358814138	"13"	3376.988870125	2458.655624355	1.5	0.1
0.01	1	0.0861354759999813	1	54	340.226539081	NA	1	0	5.36	1	323.593242483	323.679377959	"13"	3376.988870125	2458.655624355	1.5	0.1
0.01	1	0.144998083000019	1	54	340.226539081	NA	1	0	5.36	1	323.910493326	324.055491409	"13"	3376.988870125	2458.655624355	1.5	0.1
0.01	1	0.0892296220001754	1	54	340.226539081	NA	1	0	5.36	1	324.277708891	324.366938513	"13"	3376.988870125	2458.655624355	1.5	0.1
0.01	1	0.091325764999965	1	54	340.226539081	NA	1	0	5.36	1	324.594930887	324.686256652	"13"	3376.988870125	2458.655624355	1.5	0.1
0.01	1	0.102127082999914	1	54	340.226539081	NA	1	0	5.36	1	324.912243543	325.014370626	"13"	3376.988870125	2458.655624355	1.5	0.1
0.01	1	0.104045651999968	1	54	340.226539081	NA	1	0	5.36	1	325.246077021	325.350122673	"13"	3376.988870125	2458.655624355	1.5	0.1
0.01	1	0.122561783000037	1	54	340.226539081	NA	1	0	5.36	1	325.580008101	325.702569884	"13"	3376.988870125	2458.655624355	1.5	0.1
0.01	1	0.139965075999953	1	54	340.226539081	NA	1	0	5.36	1	325.930565453	326.070530529	"13"	3376.988870125	2458.655624355	1.5	0.1
0.01	1	0.173874755000043	1	54	340.226539081	NA	1	0	5.36	1	326.297875711	326.471750466	"13"	3376.988870125	2458.655624355	1.5	0.1
0.01	1	0.180532317999905	1	54	340.226539081	NA	1	0	5.36	1	326.698499058	326.879031376	"13"	3376.988870125	2458.655624355	1.5	0.1
0.01	1	0.195870526000135	1	54	340.226539081	NA	1	0	5.36	1	327.115930703	327.311801229	"13"	3376.988870125	2458.655624355	1.5	0.1
0.01	1	0.185396739999987	1	54	340.226539081	NA	1	0	5.36	1	327.549996673	327.735393413	"13"	3376.988870125	2458.655624355	1.5	0.1
0.01	1	0.216436187999989	1	54	340.226539081	NA	1	0	5.36	1	327.967253648	328.183689836	"13"	3376.988870125	2458.655624355	1.5	0.1
0.01	1	0.213725148999856	1	54	340.226539081	NA	1	0	5.36	1	328.418250431	328.63197558	"13"	3376.988870125	2458.655624355	1.5	0.1
0.01	1	0.169697805000169	1	54	340.226539081	NA	1	0	5.36	1	328.868812231	329.038510036	"13"	3376.988870125	2458.655624355	1.5	0.1
0.01	1	0.146064447999834	1	54	340.226539081	NA	1	0	5.36	1	329.269515841	329.415580289	"13"	3376.988870125	2458.655624355	1.5	0.1
0.01	1	0.121187933999863	1	54	340.226539081	NA	1	0	5.36	1	329.653419246	329.77460718	"13"	3376.988870125	2458.655624355	1.5	0.1
0.01	1	0.147537314999909	1	54	340.226539081	NA	1	0	5.36	1	330.004087916	330.151625231	"13"	3376.988870125	2458.655624355	1.5	0.1
0.01	1	0.139756264000198	1	54	340.226539081	NA	1	0	5.36	1	330.388033151	330.527789415	"13"	3376.988870125	2458.655624355	1.5	0.1
0.01	1	0.178980740000043	1	54	340.226539081	NA	1	0	5.36	1	330.755328556	330.934309296	"13"	3376.988870125	2458.655624355	1.5	0.1
0.01	1	0.163546457999928	1	54	340.226539081	NA	1	0	5.36	1	331.172696361	331.336242819	"13"	3376.988870125	2458.655624355	1.5	0.1
0.01	1	0.186260143000027	1	54	340.226539081	NA	1	0	5.36	1	331.573328501	331.759588644	"13"	3376.988870125	2458.655624355	1.5	0.1
0.01	1	0.184112249000009	1	54	340.226539081	NA	1	0	5.36	1	331.990707621	332.17481987	"13"	3376.988870125	2458.655624355	1.5	0.1
0.01	1	0.190628958999923	1	54	340.226539081	NA	1	0	5.36	1	332.408158761	332.59878772	"13"	3376.988870125	2458.655624355	1.5	0.1
0.01	1	0.172716604000016	1	54	340.226539081	NA	1	0	5.36	1	332.825600866	332.99831747	"13"	3376.988870125	2458.655624355	1.5	0.1
0.01	1	0.157097655000143	1	54	340.226539081	NA	1	0	5.36	1	333.226326301	333.383423956	"13"	3376.988870125	2458.655624355	1.5	0.1
0.01	1	0.228339515000016	1	54	340.226539081	NA	1	0	5.36	1	333.610190626	333.838530141	"13"	3376.988870125	2458.655624355	1.5	0.1
0.01	1	0.17795452900009	1	54	340.226539081	NA	1	0	5.36	1	334.077610351	334.25556488	"13"	3376.988870125	2458.655624355	1.5	0.1
0.01	1	0.177503047999835	1	54	340.226539081	NA	1	0	5.36	1	334.478197583	334.655700631	"13"	3376.988870125	2458.655624355	1.5	0.1
0.01	1	0.240414595999937	1	54	340.226539081	NA	1	0	5.36	1	334.878847201	335.119261797	"13"	3376.988870125	2458.655624355	1.5	0.1
0.01	1	0.20544014699999	1	54	340.226539081	NA	1	0	5.36	1	335.346381881	335.551822028	"13"	3376.988870125	2458.655624355	1.5	0.1
0.01	1	0.227146908999885	1	54	340.226539081	NA	1	0	5.36	1	335.780393998	336.007540907	"13"	3376.988870125	2458.655624355	1.5	0.1
0.01	1	0.231643554999891	1	54	340.226539081	NA	1	0	5.36	1	336.231161718	336.462805273	"13"	3376.988870125	2458.655624355	1.5	0.1
