"payoff.level"	"balloon"	"rt"	"resp"	"explode.trial"	"explode.time"	"finish.time"	"exploded"	"trial.total"	"cumulative.total"	"finished"	"trial.start"	"trial.end"	"trial.num"	"secs"	"start.time"	"iti"	"isi"
0.01	1	1.28603189200294	1	64	NA	6.36681894700087	0	0.08	0.08	1	0.0151357750000898	1.30116766700303	"1"	17334.48727346	17332.336348431	1.5	0.1
0.01	1	0.395431540000573	1	64	NA	6.36681894700087	0	0.08	0.08	1	2.00169997800185	2.39713151800242	"1"	17334.48727346	17332.336348431	1.5	0.1
0.01	1	0.306098180000845	1	64	NA	6.36681894700087	0	0.08	0.08	1	2.61944076500004	2.92553894500088	"1"	17334.48727346	17332.336348431	1.5	0.1
0.01	1	0.316087307997805	1	64	NA	6.36681894700087	0	0.08	0.08	1	3.15372153300268	3.46980884100049	"1"	17334.48727346	17332.336348431	1.5	0.1
0.01	1	0.300173298001027	1	64	NA	6.36681894700087	0	0.08	0.08	1	3.70469492800112	4.00486822600215	"1"	17334.48727346	17332.336348431	1.5	0.1
0.01	1	0.414259850000235	1	64	NA	6.36681894700087	0	0.08	0.08	1	4.2388582900021	4.65311814000233	"1"	17334.48727346	17332.336348431	1.5	0.1
0.01	1	0.282755275999079	1	64	NA	6.36681894700087	0	0.08	0.08	1	4.8899802900014	5.17273556600048	"1"	17334.48727346	17332.336348431	1.5	0.1
0.01	1	0.325753732999146	1	64	NA	6.36681894700087	0	0.08	0.08	1	5.40752704800252	5.73328078100167	"1"	17334.48727346	17332.336348431	1.5	0.1
0.01	1	0.406585794000421	2	64	NA	6.36681894700087	0	0.08	0.08	1	5.95850856000106	6.36509435400149	"1"	17334.48727346	17332.336348431	1.5	0.1
0.01	1	0.505607803999737	1	102	NA	23.8304365330005	0	0.35	0.43	1	8.4126352730018	8.91824307700153	"2"	17334.48727346	17332.336348431	1.5	0.1
0.01	1	0.650044803001947	1	102	NA	23.8304365330005	0	0.35	0.43	1	9.1470872280006	9.79713203100255	"2"	17334.48727346	17332.336348431	1.5	0.1
0.01	1	0.301657709998835	1	102	NA	23.8304365330005	0	0.35	0.43	1	10.0319912830018	10.3336489930007	"2"	17334.48727346	17332.336348431	1.5	0.1
0.01	1	0.256151464000141	1	102	NA	23.8304365330005	0	0.35	0.43	1	10.5661985730003	10.8223500370004	"2"	17334.48727346	17332.336348431	1.5	0.1
0.01	1	0.267672394998954	1	102	NA	23.8304365330005	0	0.35	0.43	1	11.0503593280009	11.3180317229999	"2"	17334.48727346	17332.336348431	1.5	0.1
0.01	1	0.262189860000944	1	102	NA	23.8304365330005	0	0.35	0.43	1	11.5511711130021	11.813360973003	"2"	17334.48727346	17332.336348431	1.5	0.1
0.01	1	0.273909136998554	1	102	NA	23.8304365330005	0	0.35	0.43	1	12.0520643200034	12.325973457002	"2"	17334.48727346	17332.336348431	1.5	0.1
0.01	1	0.244805861999339	1	102	NA	23.8304365330005	0	0.35	0.43	1	12.5528544780027	12.797660340002	"2"	17334.48727346	17332.336348431	1.5	0.1
0.01	1	0.304913105999731	1	102	NA	23.8304365330005	0	0.35	0.43	1	13.0370162880026	13.3419293940024	"2"	17334.48727346	17332.336348431	1.5	0.1
0.01	1	0.267208033001225	1	102	NA	23.8304365330005	0	0.35	0.43	1	13.5711758850011	13.8383839180024	"2"	17334.48727346	17332.336348431	1.5	0.1
0.01	1	0.0846957649991964	1	102	NA	23.8304365330005	0	0.35	0.43	1	14.0721186180017	14.1568143830009	"2"	17334.48727346	17332.336348431	1.5	0.1
0.01	1	0.0972270360034599	1	102	NA	23.8304365330005	0	0.35	0.43	1	14.389244258	14.4864712940034	"2"	17334.48727346	17332.336348431	1.5	0.1
0.01	1	0.491121067003405	1	102	NA	23.8304365330005	0	0.35	0.43	1	14.723206265	15.2143273320034	"2"	17334.48727346	17332.336348431	1.5	0.1
0.01	1	0.00458838000122341	1	102	NA	23.8304365330005	0	0.35	0.43	1	15.4410138530002	15.4456022330014	"2"	17334.48727346	17332.336348431	1.5	0.1
0.01	1	0.466625945999112	1	102	NA	23.8304365330005	0	0.35	0.43	1	15.6747632280021	16.1413891740012	"2"	17334.48727346	17332.336348431	1.5	0.1
0.01	1	0.124858705999941	1	102	NA	23.8304365330005	0	0.35	0.43	1	16.3759746000032	16.5008333060032	"2"	17334.48727346	17332.336348431	1.5	0.1
0.01	1	1.02358164000179	1	102	NA	23.8304365330005	0	0.35	0.43	1	16.7265895630007	17.7501712030025	"2"	17334.48727346	17332.336348431	1.5	0.1
0.01	1	0.210309873000369	1	102	NA	23.8304365330005	0	0.35	0.43	1	17.9787657880006	18.189075661001	"2"	17334.48727346	17332.336348431	1.5	0.1
0.01	1	0.0813253249980335	1	102	NA	23.8304365330005	0	0.35	0.43	1	18.4127797380024	18.4941050630005	"2"	17334.48727346	17332.336348431	1.5	0.1
0.01	1	0.0203146690000722	1	102	NA	23.8304365330005	0	0.35	0.43	1	18.7299415090019	18.750256178002	"2"	17334.48727346	17332.336348431	1.5	0.1
0.01	1	0.0095251080019807	1	102	NA	23.8304365330005	0	0.35	0.43	1	18.9804015830014	18.9899266910033	"2"	17334.48727346	17332.336348431	1.5	0.1
0.01	1	0.00226626900257543	1	102	NA	23.8304365330005	0	0.35	0.43	1	19.2140624439999	19.2163287130024	"2"	17334.48727346	17332.336348431	1.5	0.1
0.01	1	0.00383693299954757	1	102	NA	23.8304365330005	0	0.35	0.43	1	19.4478116800019	19.4516486130015	"2"	17334.48727346	17332.336348431	1.5	0.1
0.01	1	0.00323266000123112	1	102	NA	23.8304365330005	0	0.35	0.43	1	19.6815297110006	19.6847623710019	"2"	17334.48727346	17332.336348431	1.5	0.1
0.01	1	0.00455279500238248	1	102	NA	23.8304365330005	0	0.35	0.43	1	19.9153506080002	19.9199034030025	"2"	17334.48727346	17332.336348431	1.5	0.1
0.01	1	0.00985403699814924	1	102	NA	23.8304365330005	0	0.35	0.43	1	20.1489545280019	20.1588085650001	"2"	17334.48727346	17332.336348431	1.5	0.1
0.01	1	0.278583260998857	1	102	NA	23.8304365330005	0	0.35	0.43	1	20.3826459360025	20.6612291970014	"2"	17334.48727346	17332.336348431	1.5	0.1
0.01	1	0.218956385000638	1	102	NA	23.8304365330005	0	0.35	0.43	1	20.8835011800002	21.1024575650008	"2"	17334.48727346	17332.336348431	1.5	0.1
0.01	1	0.206899919001444	1	102	NA	23.8304365330005	0	0.35	0.43	1	21.3342882530014	21.5411881720029	"2"	17334.48727346	17332.336348431	1.5	0.1
0.01	1	0.157239628999378	1	102	NA	23.8304365330005	0	0.35	0.43	1	21.7683432290032	21.9255828580026	"2"	17334.48727346	17332.336348431	1.5	0.1
0.01	1	0.1249677779997	1	102	NA	23.8304365330005	0	0.35	0.43	1	22.1523512430031	22.2773190210028	"2"	17334.48727346	17332.336348431	1.5	0.1
0.01	1	0.0626322269999946	1	102	NA	23.8304365330005	0	0.35	0.43	1	22.5028862280014	22.5655184550014	"2"	17334.48727346	17332.336348431	1.5	0.1
0.01	1	0.0345500760013238	1	102	NA	23.8304365330005	0	0.35	0.43	1	22.8034524610011	22.8380025370025	"2"	17334.48727346	17332.336348431	1.5	0.1
0.01	1	0.032052473998192	1	102	NA	23.8304365330005	0	0.35	0.43	1	23.0705365730028	23.1025890470009	"2"	17334.48727346	17332.336348431	1.5	0.1
0.01	1	0.0286461889991187	1	102	NA	23.8304365330005	0	0.35	0.43	1	23.3376406630014	23.3662868520005	"2"	17334.48727346	17332.336348431	1.5	0.1
0.01	1	0.22385329700046	2	102	NA	23.8304365330005	0	0.35	0.43	1	23.6049179030015	23.8287712000019	"2"	17334.48727346	17332.336348431	1.5	0.1
0.01	1	0.514719934002642	1	97	NA	35.4797195110004	0	0.34	0.77	1	25.8585498690009	26.3732698030035	"3"	17334.48727346	17332.336348431	1.5	0.1
0.01	1	0.0834672439996211	1	97	NA	35.4797195110004	0	0.34	0.77	1	26.609934670003	26.6934019140026	"3"	17334.48727346	17332.336348431	1.5	0.1
0.01	1	0.111355044002266	1	97	NA	35.4797195110004	0	0.34	0.77	1	26.9270713080004	27.0384263520027	"3"	17334.48727346	17332.336348431	1.5	0.1
0.01	1	0.119853019001312	1	97	NA	35.4797195110004	0	0.34	0.77	1	27.2609034730012	27.3807564920025	"3"	17334.48727346	17332.336348431	1.5	0.1
0.01	1	0.113684485000704	1	97	NA	35.4797195110004	0	0.34	0.77	1	27.6114496530026	27.7251341380033	"3"	17334.48727346	17332.336348431	1.5	0.1
0.01	1	0.0844006740007899	1	97	NA	35.4797195110004	0	0.34	0.77	1	27.9621456580026	28.0465463320033	"3"	17334.48727346	17332.336348431	1.5	0.1
0.01	1	0.0044978270016145	1	97	NA	35.4797195110004	0	0.34	0.77	1	28.2793445380012	28.2838423650028	"3"	17334.48727346	17332.336348431	1.5	0.1
0.01	1	0.00394160299765645	1	97	NA	35.4797195110004	0	0.34	0.77	1	28.5130557380035	28.5169973410011	"3"	17334.48727346	17332.336348431	1.5	0.1
0.01	1	0.147336083999107	1	97	NA	35.4797195110004	0	0.34	0.77	1	28.746756448003	28.8940925320021	"3"	17334.48727346	17332.336348431	1.5	0.1
0.01	1	0.00337523100097314	1	97	NA	35.4797195110004	0	0.34	0.77	1	29.1307579480017	29.1341331790027	"3"	17334.48727346	17332.336348431	1.5	0.1
0.01	1	0.0042305459974159	1	97	NA	35.4797195110004	0	0.34	0.77	1	29.3645100820031	29.3687406280005	"3"	17334.48727346	17332.336348431	1.5	0.1
0.01	1	0.00456936500268057	1	97	NA	35.4797195110004	0	0.34	0.77	1	29.598240583	29.6028099480027	"3"	17334.48727346	17332.336348431	1.5	0.1
0.01	1	0.00445065200256067	1	97	NA	35.4797195110004	0	0.34	0.77	1	29.8319754479999	29.8364261000024	"3"	17334.48727346	17332.336348431	1.5	0.1
0.01	1	0.00388818900319166	1	97	NA	35.4797195110004	0	0.34	0.77	1	30.065661138	30.0695493270032	"3"	17334.48727346	17332.336348431	1.5	0.1
0.01	1	0.00398174499787274	1	97	NA	35.4797195110004	0	0.34	0.77	1	30.2993517000032	30.303333445001	"3"	17334.48727346	17332.336348431	1.5	0.1
0.01	1	0.0893149399998947	1	97	NA	35.4797195110004	0	0.34	0.77	1	30.533120023003	30.6224349630029	"3"	17334.48727346	17332.336348431	1.5	0.1
0.01	1	0.00447064000036335	1	97	NA	35.4797195110004	0	0.34	0.77	1	30.8503044429999	30.8547750830003	"3"	17334.48727346	17332.336348431	1.5	0.1
0.01	1	0.0025002639995364	1	97	NA	35.4797195110004	0	0.34	0.77	1	31.0840197970028	31.0865200610024	"3"	17334.48727346	17332.336348431	1.5	0.1
0.01	1	0.00383652299933601	1	97	NA	35.4797195110004	0	0.34	0.77	1	31.3177863000019	31.3216228230012	"3"	17334.48727346	17332.336348431	1.5	0.1
0.01	1	0.0039056729983713	1	97	NA	35.4797195110004	0	0.34	0.77	1	31.5515718100032	31.5554774830016	"3"	17334.48727346	17332.336348431	1.5	0.1
0.01	1	0.00420850400041672	1	97	NA	35.4797195110004	0	0.34	0.77	1	31.7852264690009	31.7894349730013	"3"	17334.48727346	17332.336348431	1.5	0.1
0.01	1	0.0915978510020068	1	97	NA	35.4797195110004	0	0.34	0.77	1	32.0189833900004	32.1105812410024	"3"	17334.48727346	17332.336348431	1.5	0.1
0.01	1	0.00237283000024036	1	97	NA	35.4797195110004	0	0.34	0.77	1	32.336206441003	32.3385792710033	"3"	17334.48727346	17332.336348431	1.5	0.1
0.01	1	0.00205307699798141	1	97	NA	35.4797195110004	0	0.34	0.77	1	32.569830143002	32.57188322	"3"	17334.48727346	17332.336348431	1.5	0.1
0.01	1	0.00384890500208712	1	97	NA	35.4797195110004	0	0.34	0.77	1	32.8036078500008	32.8074567550029	"3"	17334.48727346	17332.336348431	1.5	0.1
0.01	1	0.00448357700224733	1	97	NA	35.4797195110004	0	0.34	0.77	1	33.0373586130008	33.0418421900031	"3"	17334.48727346	17332.336348431	1.5	0.1
0.01	1	0.00388326800020877	1	97	NA	35.4797195110004	0	0.34	0.77	1	33.2709980450018	33.274881313002	"3"	17334.48727346	17332.336348431	1.5	0.1
0.01	1	0.107847541999945	1	97	NA	35.4797195110004	0	0.34	0.77	1	33.5047866430032	33.6126341850031	"3"	17334.48727346	17332.336348431	1.5	0.1
0.01	1	0.00257300000157556	1	97	NA	35.4797195110004	0	0.34	0.77	1	33.8386396610003	33.8412126610019	"3"	17334.48727346	17332.336348431	1.5	0.1
0.01	1	0.00202938800066477	1	97	NA	35.4797195110004	0	0.34	0.77	1	34.0723113790009	34.0743407670016	"3"	17334.48727346	17332.336348431	1.5	0.1
0.01	1	0.00209938500120188	1	97	NA	35.4797195110004	0	0.34	0.77	1	34.3060807580005	34.3081801430017	"3"	17334.48727346	17332.336348431	1.5	0.1
0.01	1	0.00388854099946911	1	97	NA	35.4797195110004	0	0.34	0.77	1	34.539825908003	34.5437144490024	"3"	17334.48727346	17332.336348431	1.5	0.1
0.01	1	0.00392779799949494	1	97	NA	35.4797195110004	0	0.34	0.77	1	34.7735436250005	34.777471423	"3"	17334.48727346	17332.336348431	1.5	0.1
0.01	1	0.00384318800206529	1	97	NA	35.4797195110004	0	0.34	0.77	1	35.0072660650003	35.0111092530024	"3"	17334.48727346	17332.336348431	1.5	0.1
0.01	1	0.237095847998717	2	97	NA	35.4797195110004	0	0.34	0.77	1	35.2411004330024	35.4781962810011	"3"	17334.48727346	17332.336348431	1.5	0.1
0.01	1	0.42903441299859	1	51	NA	42.6464371270013	0	0.17	0.94	1	37.5281883300013	37.9572227429999	"4"	17334.48727346	17332.336348431	1.5	0.1
0.01	1	0.0023380980019283	1	51	NA	42.6464371270013	0	0.17	0.94	1	38.1960272370015	38.1983653350035	"4"	17334.48727346	17332.336348431	1.5	0.1
0.01	1	0.0045519349987444	1	51	NA	42.6464371270013	0	0.17	0.94	1	38.4296888880017	38.4342408230004	"4"	17334.48727346	17332.336348431	1.5	0.1
0.01	1	0.109204683998541	1	51	NA	42.6464371270013	0	0.17	0.94	1	38.6634480080029	38.7726526920014	"4"	17334.48727346	17332.336348431	1.5	0.1
0.01	1	0.00269151899919962	1	51	NA	42.6464371270013	0	0.17	0.94	1	38.9973945990023	39.0000861180015	"4"	17334.48727346	17332.336348431	1.5	0.1
0.01	1	0.00385806900158059	1	51	NA	42.6464371270013	0	0.17	0.94	1	39.2310459280015	39.2349039970031	"4"	17334.48727346	17332.336348431	1.5	0.1
0.01	1	0.00428358499993919	1	51	NA	42.6464371270013	0	0.17	0.94	1	39.4648161950026	39.4690997800026	"4"	17334.48727346	17332.336348431	1.5	0.1
0.01	1	0.00381851299971459	1	51	NA	42.6464371270013	0	0.17	0.94	1	39.6984874980008	39.7023060110005	"4"	17334.48727346	17332.336348431	1.5	0.1
0.01	1	0.00370725900211255	1	51	NA	42.6464371270013	0	0.17	0.94	1	39.9322210999999	39.935928359002	"4"	17334.48727346	17332.336348431	1.5	0.1
0.01	1	0.00198134600213962	1	51	NA	42.6464371270013	0	0.17	0.94	1	40.1659671310008	40.1679484770029	"4"	17334.48727346	17332.336348431	1.5	0.1
0.01	1	0.00387629699980607	1	51	NA	42.6464371270013	0	0.17	0.94	1	40.3996584780034	40.4035347750032	"4"	17334.48727346	17332.336348431	1.5	0.1
0.01	1	0.0044730570007232	1	51	NA	42.6464371270013	0	0.17	0.94	1	40.6334566530022	40.6379297100029	"4"	17334.48727346	17332.336348431	1.5	0.1
0.01	1	0.00198922900017351	1	51	NA	42.6464371270013	0	0.17	0.94	1	40.8671578700014	40.8691470990016	"4"	17334.48727346	17332.336348431	1.5	0.1
0.01	1	0.00381912599914358	1	51	NA	42.6464371270013	0	0.17	0.94	1	41.1008075450009	41.104626671	"4"	17334.48727346	17332.336348431	1.5	0.1
0.01	1	0.00300991800031625	1	51	NA	42.6464371270013	0	0.17	0.94	1	41.3345629270007	41.337572845001	"4"	17334.48727346	17332.336348431	1.5	0.1
0.01	1	0.00362158899952192	1	51	NA	42.6464371270013	0	0.17	0.94	1	41.5683379880029	41.5719595770024	"4"	17334.48727346	17332.336348431	1.5	0.1
0.01	1	0.00378764499691897	1	51	NA	42.6464371270013	0	0.17	0.94	1	41.8020659580034	41.8058536030003	"4"	17334.48727346	17332.336348431	1.5	0.1
0.01	1	0.609196064997377	2	51	NA	42.6464371270013	0	0.17	0.94	1	42.0357223000028	42.6449183650002	"4"	17334.48727346	17332.336348431	1.5	0.1
0.01	1	0.00412961500114761	1	116	NA	46.1595632600001	0	0.06	1	1	44.6902902830006	44.6944198980018	"5"	17334.48727346	17332.336348431	1.5	0.1
0.01	1	0.00391209400186199	1	116	NA	46.1595632600001	0	0.06	1	1	44.9239756850002	44.927887779002	"5"	17334.48727346	17332.336348431	1.5	0.1
0.01	1	0.00372796900046524	1	116	NA	46.1595632600001	0	0.06	1	1	45.1577178780026	45.1614458470031	"5"	17334.48727346	17332.336348431	1.5	0.1
0.01	1	0.00400384599925019	1	116	NA	46.1595632600001	0	0.06	1	1	45.3914630450017	45.395466891001	"5"	17334.48727346	17332.336348431	1.5	0.1
0.01	1	0.0045855800017307	1	116	NA	46.1595632600001	0	0.06	1	1	45.6251149880009	45.6297005680026	"5"	17334.48727346	17332.336348431	1.5	0.1
0.01	1	0.00393624199932674	1	116	NA	46.1595632600001	0	0.06	1	1	45.8589003730012	45.8628366150006	"5"	17334.48727346	17332.336348431	1.5	0.1
0.01	1	0.065378351999243	2	116	NA	46.1595632600001	0	0.06	1	1	46.0926205680007	46.15799892	"5"	17334.48727346	17332.336348431	1.5	0.1
0.01	1	0.00422020699988934	1	118	NA	76.5913461490018	0	0.76	1.76	1	48.2128769130031	48.217097120003	"6"	17334.48727346	17332.336348431	1.5	0.1
0.01	1	0.00432299800013425	1	118	NA	76.5913461490018	0	0.76	1.76	1	48.4466180650015	48.4509410630017	"6"	17334.48727346	17332.336348431	1.5	0.1
0.01	1	0.00371609799913131	1	118	NA	76.5913461490018	0	0.76	1.76	1	48.6802845630009	48.684000661	"6"	17334.48727346	17332.336348431	1.5	0.1
0.01	1	0.00345489300161717	1	118	NA	76.5913461490018	0	0.76	1.76	1	48.9141132000004	48.917568093002	"6"	17334.48727346	17332.336348431	1.5	0.1
0.01	1	0.00438119899990852	1	118	NA	76.5913461490018	0	0.76	1.76	1	49.1476727860027	49.1520539850026	"6"	17334.48727346	17332.336348431	1.5	0.1
0.01	1	0.00370582200048375	1	118	NA	76.5913461490018	0	0.76	1.76	1	49.3814869330017	49.3851927550022	"6"	17334.48727346	17332.336348431	1.5	0.1
0.01	1	0.00202020500000799	1	118	NA	76.5913461490018	0	0.76	1.76	1	49.6152680780033	49.6172882830033	"6"	17334.48727346	17332.336348431	1.5	0.1
0.01	1	0.00364447799802292	1	118	NA	76.5913461490018	0	0.76	1.76	1	49.8489534130022	49.8525978910002	"6"	17334.48727346	17332.336348431	1.5	0.1
0.01	1	0.00370843600103399	1	118	NA	76.5913461490018	0	0.76	1.76	1	50.0826333650002	50.0863418010013	"6"	17334.48727346	17332.336348431	1.5	0.1
0.01	1	0.00353858500238857	1	118	NA	76.5913461490018	0	0.76	1.76	1	50.3163858500011	50.3199244350035	"6"	17334.48727346	17332.336348431	1.5	0.1
0.01	1	0.00413245700110565	1	118	NA	76.5913461490018	0	0.76	1.76	1	50.550097323001	50.5542297800021	"6"	17334.48727346	17332.336348431	1.5	0.1
0.01	1	0.00384674499946414	1	118	NA	76.5913461490018	0	0.76	1.76	1	50.783900450002	50.7877471950014	"6"	17334.48727346	17332.336348431	1.5	0.1
0.01	1	0.00462570499803405	1	118	NA	76.5913461490018	0	0.76	1.76	1	51.0175997030019	51.0222254079999	"6"	17334.48727346	17332.336348431	1.5	0.1
0.01	1	0.0037868420004088	1	118	NA	76.5913461490018	0	0.76	1.76	1	51.2512031650003	51.2549900070007	"6"	17334.48727346	17332.336348431	1.5	0.1
0.01	1	0.0036861089974991	1	118	NA	76.5913461490018	0	0.76	1.76	1	51.4850020600024	51.4886881689999	"6"	17334.48727346	17332.336348431	1.5	0.1
0.01	1	0.0038026690017432	1	118	NA	76.5913461490018	0	0.76	1.76	1	51.7187936080009	51.7225962770026	"6"	17334.48727346	17332.336348431	1.5	0.1
0.01	1	0.00306548400112661	1	118	NA	76.5913461490018	0	0.76	1.76	1	51.9525118050005	51.9555772890017	"6"	17334.48727346	17332.336348431	1.5	0.1
0.01	1	0.00376309000057518	1	118	NA	76.5913461490018	0	0.76	1.76	1	52.1861624030025	52.1899254930031	"6"	17334.48727346	17332.336348431	1.5	0.1
0.01	1	0.00380159600172192	1	118	NA	76.5913461490018	0	0.76	1.76	1	52.419897795	52.4236993910017	"6"	17334.48727346	17332.336348431	1.5	0.1
0.01	1	0.0038149659994815	1	118	NA	76.5913461490018	0	0.76	1.76	1	52.6536045230023	52.6574194890018	"6"	17334.48727346	17332.336348431	1.5	0.1
0.01	1	0.00454898700263584	1	118	NA	76.5913461490018	0	0.76	1.76	1	52.887458743	52.8920077300027	"6"	17334.48727346	17332.336348431	1.5	0.1
0.01	1	0.00212901099803275	1	118	NA	76.5913461490018	0	0.76	1.76	1	53.1211184080021	53.1232474190001	"6"	17334.48727346	17332.336348431	1.5	0.1
0.01	1	0.00215482299972791	1	118	NA	76.5913461490018	0	0.76	1.76	1	53.3548421170017	53.3569969400014	"6"	17334.48727346	17332.336348431	1.5	0.1
0.01	1	0.00413829199897009	1	118	NA	76.5913461490018	0	0.76	1.76	1	53.588521716003	53.592660008002	"6"	17334.48727346	17332.336348431	1.5	0.1
0.01	1	0.00428994799949578	1	118	NA	76.5913461490018	0	0.76	1.76	1	53.8222354820027	53.8265254300022	"6"	17334.48727346	17332.336348431	1.5	0.1
0.01	1	0.00422052899739356	1	118	NA	76.5913461490018	0	0.76	1.76	1	54.0560116760025	54.0602322049999	"6"	17334.48727346	17332.336348431	1.5	0.1
0.01	1	0.00327754500176525	1	118	NA	76.5913461490018	0	0.76	1.76	1	54.2897639100011	54.2930414550028	"6"	17334.48727346	17332.336348431	1.5	0.1
0.01	1	0.00378233200171962	1	118	NA	76.5913461490018	0	0.76	1.76	1	54.5234683650015	54.5272506970032	"6"	17334.48727346	17332.336348431	1.5	0.1
0.01	1	0.00362618299914175	1	118	NA	76.5913461490018	0	0.76	1.76	1	54.7571692580022	54.7607954410014	"6"	17334.48727346	17332.336348431	1.5	0.1
0.01	1	0.00363858999844524	1	118	NA	76.5913461490018	0	0.76	1.76	1	54.9908846230028	54.9945232130012	"6"	17334.48727346	17332.336348431	1.5	0.1
0.01	1	0.00438326699804747	1	118	NA	76.5913461490018	0	0.76	1.76	1	55.2247371460035	55.2291204130015	"6"	17334.48727346	17332.336348431	1.5	0.1
0.01	1	0.00346431899743038	1	118	NA	76.5913461490018	0	0.76	1.76	1	55.4583377200033	55.4618020390008	"6"	17334.48727346	17332.336348431	1.5	0.1
0.01	1	0.00452627399863559	1	118	NA	76.5913461490018	0	0.76	1.76	1	55.6921036430031	55.6966299170017	"6"	17334.48727346	17332.336348431	1.5	0.1
0.01	1	0.00389808700128924	1	118	NA	76.5913461490018	0	0.76	1.76	1	55.9258761580022	55.9297742450035	"6"	17334.48727346	17332.336348431	1.5	0.1
0.01	1	0.00374319099864806	1	118	NA	76.5913461490018	0	0.76	1.76	1	56.1595419600017	56.1632851510003	"6"	17334.48727346	17332.336348431	1.5	0.1
0.01	1	0.00383737100128201	1	118	NA	76.5913461490018	0	0.76	1.76	1	56.3933030500011	56.3971404210024	"6"	17334.48727346	17332.336348431	1.5	0.1
0.01	1	0.00379059300030349	1	118	NA	76.5913461490018	0	0.76	1.76	1	56.6270351480016	56.6308257410019	"6"	17334.48727346	17332.336348431	1.5	0.1
0.01	1	0.00398495799890952	1	118	NA	76.5913461490018	0	0.76	1.76	1	56.8607966030031	56.864781561002	"6"	17334.48727346	17332.336348431	1.5	0.1
0.01	1	0.00378218100013328	1	118	NA	76.5913461490018	0	0.76	1.76	1	57.0945058780017	57.0982880590018	"6"	17334.48727346	17332.336348431	1.5	0.1
0.01	1	0.00377352700161282	1	118	NA	76.5913461490018	0	0.76	1.76	1	57.3281242000012	57.3318977270028	"6"	17334.48727346	17332.336348431	1.5	0.1
0.01	1	0.00393882100252085	1	118	NA	76.5913461490018	0	0.76	1.76	1	57.5619982200005	57.5659370410031	"6"	17334.48727346	17332.336348431	1.5	0.1
0.01	1	0.00353276099849609	1	118	NA	76.5913461490018	0	0.76	1.76	1	57.7956661000026	57.7991988610011	"6"	17334.48727346	17332.336348431	1.5	0.1
0.01	1	0.00409435000256053	1	118	NA	76.5913461490018	0	0.76	1.76	1	58.0295849930008	58.0336793430033	"6"	17334.48727346	17332.336348431	1.5	0.1
0.01	1	0.00359080800262745	1	118	NA	76.5913461490018	0	0.76	1.76	1	58.2631187330007	58.2667095410034	"6"	17334.48727346	17332.336348431	1.5	0.1
0.01	1	0.00389317499866593	1	118	NA	76.5913461490018	0	0.76	1.76	1	58.4968532100029	58.5007463850015	"6"	17334.48727346	17332.336348431	1.5	0.1
0.01	1	0.0033290310020675	1	118	NA	76.5913461490018	0	0.76	1.76	1	58.7305929100003	58.7339219410023	"6"	17334.48727346	17332.336348431	1.5	0.1
0.01	1	0.0037960869995004	1	118	NA	76.5913461490018	0	0.76	1.76	1	58.9643475400007	58.9681436270002	"6"	17334.48727346	17332.336348431	1.5	0.1
0.01	1	0.00389378799809492	1	118	NA	76.5913461490018	0	0.76	1.76	1	59.1980386730029	59.201932461001	"6"	17334.48727346	17332.336348431	1.5	0.1
0.01	1	0.00367459799963399	1	118	NA	76.5913461490018	0	0.76	1.76	1	59.4317117730025	59.4353863710021	"6"	17334.48727346	17332.336348431	1.5	0.1
0.01	1	0.00395528299850412	1	118	NA	76.5913461490018	0	0.76	1.76	1	59.665389648002	59.6693449310005	"6"	17334.48727346	17332.336348431	1.5	0.1
0.01	1	0.0038717009992979	1	118	NA	76.5913461490018	0	0.76	1.76	1	59.8992520580032	59.9031237590025	"6"	17334.48727346	17332.336348431	1.5	0.1
0.01	1	0.00356321300205309	1	118	NA	76.5913461490018	0	0.76	1.76	1	60.1329143900002	60.1364776030023	"6"	17334.48727346	17332.336348431	1.5	0.1
0.01	1	0.00452504999702796	1	118	NA	76.5913461490018	0	0.76	1.76	1	60.3667381530031	60.3712632030001	"6"	17334.48727346	17332.336348431	1.5	0.1
0.01	1	0.00334691399984877	1	118	NA	76.5913461490018	0	0.76	1.76	1	60.6003988650009	60.6037457790007	"6"	17334.48727346	17332.336348431	1.5	0.1
0.01	1	0.00387523799872724	1	118	NA	76.5913461490018	0	0.76	1.76	1	60.8340958530025	60.8379710910012	"6"	17334.48727346	17332.336348431	1.5	0.1
0.01	1	0.00385028000164311	1	118	NA	76.5913461490018	0	0.76	1.76	1	61.0677277930008	61.0715780730025	"6"	17334.48727346	17332.336348431	1.5	0.1
0.01	1	0.0034895509998023	1	118	NA	76.5913461490018	0	0.76	1.76	1	61.3015162500014	61.3050058010012	"6"	17334.48727346	17332.336348431	1.5	0.1
0.01	1	0.00383842500013998	1	118	NA	76.5913461490018	0	0.76	1.76	1	61.5351989500014	61.5390373750015	"6"	17334.48727346	17332.336348431	1.5	0.1
0.01	1	0.00391558200135478	1	118	NA	76.5913461490018	0	0.76	1.76	1	61.7689797530002	61.7728953350015	"6"	17334.48727346	17332.336348431	1.5	0.1
0.01	1	0.00454555499891285	1	118	NA	76.5913461490018	0	0.76	1.76	1	62.0027608980017	62.0073064530006	"6"	17334.48727346	17332.336348431	1.5	0.1
0.01	1	0.00459519700234523	1	118	NA	76.5913461490018	0	0.76	1.76	1	62.2364820080002	62.2410772050025	"6"	17334.48727346	17332.336348431	1.5	0.1
0.01	1	0.00391664800190483	1	118	NA	76.5913461490018	0	0.76	1.76	1	62.4701354030003	62.4740520510022	"6"	17334.48727346	17332.336348431	1.5	0.1
0.01	1	0.00387385100111715	1	118	NA	76.5913461490018	0	0.76	1.76	1	62.7038403080005	62.7077141590016	"6"	17334.48727346	17332.336348431	1.5	0.1
0.01	1	0.00456699200003641	1	118	NA	76.5913461490018	0	0.76	1.76	1	62.9375519780006	62.9421189700006	"6"	17334.48727346	17332.336348431	1.5	0.1
0.01	1	0.00359661800030153	1	118	NA	76.5913461490018	0	0.76	1.76	1	63.1713319830014	63.1749286010017	"6"	17334.48727346	17332.336348431	1.5	0.1
0.01	1	0.00365374099783367	1	118	NA	76.5913461490018	0	0.76	1.76	1	63.4050576780028	63.4087114190006	"6"	17334.48727346	17332.336348431	1.5	0.1
0.01	1	0.00345283699789434	1	118	NA	76.5913461490018	0	0.76	1.76	1	63.6387674000034	63.6422202370013	"6"	17334.48727346	17332.336348431	1.5	0.1
0.01	1	0.00398289900113014	1	118	NA	76.5913461490018	0	0.76	1.76	1	63.8725526000017	63.8765354990028	"6"	17334.48727346	17332.336348431	1.5	0.1
0.01	1	4.45967815599943	1	118	NA	76.5913461490018	0	0.76	1.76	1	64.1062463530034	68.5659245090028	"6"	17334.48727346	17332.336348431	1.5	0.1
0.01	1	0.991836762001185	1	118	NA	76.5913461490018	0	0.76	1.76	1	68.7974603430011	69.7892971050023	"6"	17334.48727346	17332.336348431	1.5	0.1
0.01	1	0.236811768001644	1	118	NA	76.5913461490018	0	0.76	1.76	1	70.0162855980016	70.2530973660032	"6"	17334.48727346	17332.336348431	1.5	0.1
0.01	1	0.305211057999259	1	118	NA	76.5913461490018	0	0.76	1.76	1	70.4837004680012	70.7889115260004	"6"	17334.48727346	17332.336348431	1.5	0.1
0.01	1	3.70065597600114	1	118	NA	76.5913461490018	0	0.76	1.76	1	71.0179772990014	74.7186332750025	"6"	17334.48727346	17332.336348431	1.5	0.1
0.01	1	0.105031318002148	1	118	NA	76.5913461490018	0	0.76	1.76	1	74.9577897130002	75.0628210310024	"6"	17334.48727346	17332.336348431	1.5	0.1
0.01	1	0.147124264000013	1	118	NA	76.5913461490018	0	0.76	1.76	1	75.2917518530012	75.4388761170012	"6"	17334.48727346	17332.336348431	1.5	0.1
0.01	1	0.218860680000944	1	118	NA	76.5913461490018	0	0.76	1.76	1	75.6757511930009	75.8946118730018	"6"	17334.48727346	17332.336348431	1.5	0.1
0.01	1	0.463367096999718	2	118	NA	76.5913461490018	0	0.76	1.76	1	76.1264474980017	76.5898145950014	"6"	17334.48727346	17332.336348431	1.5	0.1
0.01	1	0.207983339998464	1	87	NA	88.8070830940014	0	0.27	2.03	1	78.6306781400017	78.8386614800002	"7"	17334.48727346	17332.336348431	1.5	0.1
0.01	1	0.0302699450003274	1	87	NA	88.8070830940014	0	0.27	2.03	1	79.0647495980011	79.0950195430014	"7"	17334.48727346	17332.336348431	1.5	0.1
0.01	1	0.00205803000062588	1	87	NA	88.8070830940014	0	0.27	2.03	1	79.3319580610005	79.3340160910011	"7"	17334.48727346	17332.336348431	1.5	0.1
0.01	1	0.00376732999939122	1	87	NA	88.8070830940014	0	0.27	2.03	1	79.5655483030023	79.5693156330017	"7"	17334.48727346	17332.336348431	1.5	0.1
0.01	1	0.0464261380002426	1	87	NA	88.8070830940014	0	0.27	2.03	1	79.7992852280004	79.8457113660006	"7"	17334.48727346	17332.336348431	1.5	0.1
0.01	1	0.00392608600304811	1	87	NA	88.8070830940014	0	0.27	2.03	1	80.0832373630001	80.0871634490031	"7"	17334.48727346	17332.336348431	1.5	0.1
0.01	1	0.072729175000859	1	87	NA	88.8070830940014	0	0.27	2.03	1	80.3168773030011	80.389606478002	"7"	17334.48727346	17332.336348431	1.5	0.1
0.01	1	0.0038161249976838	1	87	NA	88.8070830940014	0	0.27	2.03	1	80.617362488003	80.6211786130007	"7"	17334.48727346	17332.336348431	1.5	0.1
0.01	1	0.154723891002504	1	87	NA	88.8070830940014	0	0.27	2.03	1	80.8510336430008	81.0057575340034	"7"	17334.48727346	17332.336348431	1.5	0.1
0.01	1	0.00206762800007709	1	87	NA	88.8070830940014	0	0.27	2.03	1	81.235026585	81.2370942130001	"7"	17334.48727346	17332.336348431	1.5	0.1
0.01	1	0.00198381800146308	1	87	NA	88.8070830940014	0	0.27	2.03	1	81.4687493450001	81.4707331630016	"7"	17334.48727346	17332.336348431	1.5	0.1
0.01	1	0.00204484599817079	1	87	NA	88.8070830940014	0	0.27	2.03	1	81.7024830690025	81.7045279150007	"7"	17334.48727346	17332.336348431	1.5	0.1
0.01	1	0.00264207900181646	1	87	NA	88.8070830940014	0	0.27	2.03	1	81.9362095770011	81.938851656003	"7"	17334.48727346	17332.336348431	1.5	0.1
0.01	1	0.0530042199970922	1	87	NA	88.8070830940014	0	0.27	2.03	1	82.1701578900029	82.22316211	"7"	17334.48727346	17332.336348431	1.5	0.1
0.01	1	0.104988316001254	1	87	NA	88.8070830940014	0	0.27	2.03	1	82.4537631380008	82.558751454002	"7"	17334.48727346	17332.336348431	1.5	0.1
0.01	1	0.0992379670024093	1	87	NA	88.8070830940014	0	0.27	2.03	1	82.787663258001	82.8869012250034	"7"	17334.48727346	17332.336348431	1.5	0.1
0.01	1	0.101569798000128	1	87	NA	88.8070830940014	0	0.27	2.03	1	83.1215760030027	83.2231458010028	"7"	17334.48727346	17332.336348431	1.5	0.1
0.01	1	0.110801152997738	1	87	NA	88.8070830940014	0	0.27	2.03	1	83.4554325980025	83.5662337510003	"7"	17334.48727346	17332.336348431	1.5	0.1
0.01	1	0.0977858980004385	1	87	NA	88.8070830940014	0	0.27	2.03	1	83.7893175900026	83.887103488003	"7"	17334.48727346	17332.336348431	1.5	0.1
0.01	1	0.114689481000823	1	87	NA	88.8070830940014	0	0.27	2.03	1	84.1232786450018	84.2379681260027	"7"	17334.48727346	17332.336348431	1.5	0.1
0.01	1	0.0935124419993372	1	87	NA	88.8070830940014	0	0.27	2.03	1	84.4738610630011	84.5673735050004	"7"	17334.48727346	17332.336348431	1.5	0.1
0.01	1	0.142822907000664	1	87	NA	88.8070830940014	0	0.27	2.03	1	84.7910439280022	84.9338668350028	"7"	17334.48727346	17332.336348431	1.5	0.1
0.01	1	0.160525924002286	1	87	NA	88.8070830940014	0	0.27	2.03	1	85.1583539450003	85.3188798690026	"7"	17334.48727346	17332.336348431	1.5	0.1
0.01	1	0.135913348996837	1	87	NA	88.8070830940014	0	0.27	2.03	1	85.5590015280031	85.694914877	"7"	17334.48727346	17332.336348431	1.5	0.1
0.01	1	0.128551099998731	1	87	NA	88.8070830940014	0	0.27	2.03	1	85.9262923100032	86.0548434100019	"7"	17334.48727346	17332.336348431	1.5	0.1
0.01	1	0.168765802998678	1	87	NA	88.8070830940014	0	0.27	2.03	1	86.2768130050026	86.4455788080013	"7"	17334.48727346	17332.336348431	1.5	0.1
0.01	1	0.153369310999551	1	87	NA	88.8070830940014	0	0.27	2.03	1	86.6775893280028	86.8309586390023	"7"	17334.48727346	17332.336348431	1.5	0.1
0.01	1	1.74401303800187	2	87	NA	88.8070830940014	0	0.27	2.03	1	87.0615265730012	88.805539611003	"7"	17334.48727346	17332.336348431	1.5	0.1
0.01	1	0.00463834699985455	1	6	92.2567186800006	NA	1	0	2.03	1	90.8512026730023	90.8558410200021	"8"	17334.48727346	17332.336348431	1.5	0.1
0.01	1	0.00393417599843815	1	6	92.2567186800006	NA	1	0	2.03	1	91.0848986830024	91.0888328590008	"8"	17334.48727346	17332.336348431	1.5	0.1
0.01	1	0.00384655800007749	1	6	92.2567186800006	NA	1	0	2.03	1	91.3187394050001	91.3225859630002	"8"	17334.48727346	17332.336348431	1.5	0.1
0.01	1	0.117328238000482	1	6	92.2567186800006	NA	1	0	2.03	1	91.552411765002	91.6697400030025	"8"	17334.48727346	17332.336348431	1.5	0.1
0.01	1	0.00206704300217098	1	6	92.2567186800006	NA	1	0	2.03	1	91.9030263530003	91.9050933960025	"8"	17334.48727346	17332.336348431	1.5	0.1
0.01	1	0.00454789499781327	1	6	92.2567186800006	NA	1	0	2.03	1	92.1367039330034	92.1412518280013	"8"	17334.48727346	17332.336348431	1.5	0.1
0.01	1	0.676428513001156	1	106	NA	105.30393342	0	0.44	2.47	1	94.290405705	94.9668342180012	"9"	17334.48727346	17332.336348431	1.5	0.1
0.01	1	0.00208287199711776	1	106	NA	105.30393342	0	0.44	2.47	1	95.1919537910035	95.1940366630006	"9"	17334.48727346	17332.336348431	1.5	0.1
0.01	1	0.00333120000141207	1	106	NA	105.30393342	0	0.44	2.47	1	95.4256188250001	95.4289500250015	"9"	17334.48727346	17332.336348431	1.5	0.1
0.01	1	0.00408135900215711	1	106	NA	105.30393342	0	0.44	2.47	1	95.6592916500013	95.6633730090034	"9"	17334.48727346	17332.336348431	1.5	0.1
0.01	1	0.00438318700253149	1	106	NA	105.30393342	0	0.44	2.47	1	95.8931481910004	95.8975313780029	"9"	17334.48727346	17332.336348431	1.5	0.1
0.01	1	0.00367258899859735	1	106	NA	105.30393342	0	0.44	2.47	1	96.126782770003	96.1304553590016	"9"	17334.48727346	17332.336348431	1.5	0.1
0.01	1	0.00457824699697085	1	106	NA	105.30393342	0	0.44	2.47	1	96.3605257030031	96.36510395	"9"	17334.48727346	17332.336348431	1.5	0.1
0.01	1	0.00420438099899911	1	106	NA	105.30393342	0	0.44	2.47	1	96.594266752003	96.598471133002	"9"	17334.48727346	17332.336348431	1.5	0.1
0.01	1	0.00396223300049314	1	106	NA	105.30393342	0	0.44	2.47	1	96.8280072699999	96.8319695030004	"9"	17334.48727346	17332.336348431	1.5	0.1
0.01	1	0.00369020599828218	1	106	NA	105.30393342	0	0.44	2.47	1	97.0617038030032	97.0653940090015	"9"	17334.48727346	17332.336348431	1.5	0.1
0.01	1	0.00380104000214487	1	106	NA	105.30393342	0	0.44	2.47	1	97.2954777230007	97.2992787630028	"9"	17334.48727346	17332.336348431	1.5	0.1
0.01	1	0.00354159099879325	1	106	NA	105.30393342	0	0.44	2.47	1	97.5291678700014	97.5327094610002	"9"	17334.48727346	17332.336348431	1.5	0.1
0.01	1	0.00393241100027808	1	106	NA	105.30393342	0	0.44	2.47	1	97.7628158780026	97.7667482890029	"9"	17334.48727346	17332.336348431	1.5	0.1
0.01	1	0.0037936679982522	1	106	NA	105.30393342	0	0.44	2.47	1	97.9965794750024	98.0003731430006	"9"	17334.48727346	17332.336348431	1.5	0.1
0.01	1	0.00384414599830052	1	106	NA	105.30393342	0	0.44	2.47	1	98.2304164250017	98.234260571	"9"	17334.48727346	17332.336348431	1.5	0.1
0.01	1	0.00387404799766955	1	106	NA	105.30393342	0	0.44	2.47	1	98.4640690430024	98.4679430910001	"9"	17334.48727346	17332.336348431	1.5	0.1
0.01	1	0.00371972900029505	1	106	NA	105.30393342	0	0.44	2.47	1	98.6976889380021	98.7014086670024	"9"	17334.48727346	17332.336348431	1.5	0.1
0.01	1	0.00376430499818525	1	106	NA	105.30393342	0	0.44	2.47	1	98.9316392400033	98.9354035450015	"9"	17334.48727346	17332.336348431	1.5	0.1
0.01	1	0.00387187500018626	1	106	NA	105.30393342	0	0.44	2.47	1	99.1652294500018	99.169101325002	"9"	17334.48727346	17332.336348431	1.5	0.1
0.01	1	0.00393564099795185	1	106	NA	105.30393342	0	0.44	2.47	1	99.3990210300035	99.4029566710014	"9"	17334.48727346	17332.336348431	1.5	0.1
0.01	1	0.00389392500073882	1	106	NA	105.30393342	0	0.44	2.47	1	99.6327383380012	99.636632263002	"9"	17334.48727346	17332.336348431	1.5	0.1
0.01	1	0.00375652100046864	1	106	NA	105.30393342	0	0.44	2.47	1	99.8664781000007	99.8702346210011	"9"	17334.48727346	17332.336348431	1.5	0.1
0.01	1	0.00378721000015503	1	106	NA	105.30393342	0	0.44	2.47	1	100.100168443001	100.103955653001	"9"	17334.48727346	17332.336348431	1.5	0.1
0.01	1	0.00428289900082746	1	106	NA	105.30393342	0	0.44	2.47	1	100.333858706003	100.338141605003	"9"	17334.48727346	17332.336348431	1.5	0.1
0.01	1	0.00381288100106758	1	106	NA	105.30393342	0	0.44	2.47	1	100.567629920002	100.571442801003	"9"	17334.48727346	17332.336348431	1.5	0.1
0.01	1	0.00418733500191593	1	106	NA	105.30393342	0	0.44	2.47	1	100.801362718001	100.805550053003	"9"	17334.48727346	17332.336348431	1.5	0.1
0.01	1	0.00365813100142987	1	106	NA	105.30393342	0	0.44	2.47	1	101.035087548	101.038745679001	"9"	17334.48727346	17332.336348431	1.5	0.1
0.01	1	0.00361843300197506	1	106	NA	105.30393342	0	0.44	2.47	1	101.268737258	101.272355691002	"9"	17334.48727346	17332.336348431	1.5	0.1
0.01	1	0.00392829300108133	1	106	NA	105.30393342	0	0.44	2.47	1	101.502528678	101.506456971001	"9"	17334.48727346	17332.336348431	1.5	0.1
0.01	1	0.00390433499705978	1	106	NA	105.30393342	0	0.44	2.47	1	101.736236300003	101.740140635	"9"	17334.48727346	17332.336348431	1.5	0.1
0.01	1	0.0045002150000073	1	106	NA	105.30393342	0	0.44	2.47	1	101.969970438	101.974470653	"9"	17334.48727346	17332.336348431	1.5	0.1
0.01	1	0.00384032999863848	1	106	NA	105.30393342	0	0.44	2.47	1	102.203731025002	102.207571355	"9"	17334.48727346	17332.336348431	1.5	0.1
0.01	1	0.00395887000195216	1	106	NA	105.30393342	0	0.44	2.47	1	102.437375163001	102.441334033003	"9"	17334.48727346	17332.336348431	1.5	0.1
0.01	1	0.00389220699798898	1	106	NA	105.30393342	0	0.44	2.47	1	102.671106158003	102.674998365001	"9"	17334.48727346	17332.336348431	1.5	0.1
0.01	1	0.0032565319997957	1	106	NA	105.30393342	0	0.44	2.47	1	102.904837591002	102.908094123002	"9"	17334.48727346	17332.336348431	1.5	0.1
0.01	1	0.00379726599931018	1	106	NA	105.30393342	0	0.44	2.47	1	103.138573543001	103.142370809001	"9"	17334.48727346	17332.336348431	1.5	0.1
0.01	1	0.00382607500068843	1	106	NA	105.30393342	0	0.44	2.47	1	103.372290130003	103.376116205003	"9"	17334.48727346	17332.336348431	1.5	0.1
0.01	1	0.00371114600056899	1	106	NA	105.30393342	0	0.44	2.47	1	103.606009155003	103.609720301003	"9"	17334.48727346	17332.336348431	1.5	0.1
0.01	1	0.00458118499955162	1	106	NA	105.30393342	0	0.44	2.47	1	103.839808993001	103.844390178001	"9"	17334.48727346	17332.336348431	1.5	0.1
0.01	1	0.0033893049985636	1	106	NA	105.30393342	0	0.44	2.47	1	104.073523878003	104.076913183002	"9"	17334.48727346	17332.336348431	1.5	0.1
0.01	1	0.00337130000116304	1	106	NA	105.30393342	0	0.44	2.47	1	104.307227673002	104.310598973003	"9"	17334.48727346	17332.336348431	1.5	0.1
0.01	1	0.00447869400159107	1	106	NA	105.30393342	0	0.44	2.47	1	104.540920166	104.545398860002	"9"	17334.48727346	17332.336348431	1.5	0.1
0.01	1	0.00423295600194251	1	106	NA	105.30393342	0	0.44	2.47	1	104.774715109001	104.778948065003	"9"	17334.48727346	17332.336348431	1.5	0.1
0.01	1	0.00394169699939084	1	106	NA	105.30393342	0	0.44	2.47	1	105.008465020001	105.012406717	"9"	17334.48727346	17332.336348431	1.5	0.1
0.01	1	0.0603097100029117	2	106	NA	105.30393342	0	0.44	2.47	1	105.242108388	105.302418098003	"9"	17334.48727346	17332.336348431	1.5	0.1
0.01	1	1.05302715499784	1	21	113.175076145002	NA	1	0	2.47	1	107.328954725002	108.38198188	"10"	17334.48727346	17332.336348431	1.5	0.1
0.01	1	0.00451350000003004	1	21	113.175076145002	NA	1	0	2.47	1	108.614479413001	108.618992913001	"10"	17334.48727346	17332.336348431	1.5	0.1
0.01	1	0.00384071500229766	1	21	113.175076145002	NA	1	0	2.47	1	108.84814749	108.851988205002	"10"	17334.48727346	17332.336348431	1.5	0.1
0.01	1	0.00362618299914175	1	21	113.175076145002	NA	1	0	2.47	1	109.081975568002	109.085601751001	"10"	17334.48727346	17332.336348431	1.5	0.1
0.01	1	0.0037520929981838	1	21	113.175076145002	NA	1	0	2.47	1	109.315549910003	109.319302003001	"10"	17334.48727346	17332.336348431	1.5	0.1
0.01	1	0.00395172799835564	1	21	113.175076145002	NA	1	0	2.47	1	109.549269705003	109.553221433001	"10"	17334.48727346	17332.336348431	1.5	0.1
0.01	1	0.00388388600185863	1	21	113.175076145002	NA	1	0	2.47	1	109.783124623002	109.787008509003	"10"	17334.48727346	17332.336348431	1.5	0.1
0.01	1	0.00387506399783888	1	21	113.175076145002	NA	1	0	2.47	1	110.016840635002	110.020715699	"10"	17334.48727346	17332.336348431	1.5	0.1
0.01	1	0.00448249699911685	1	21	113.175076145002	NA	1	0	2.47	1	110.250536463001	110.255018960001	"10"	17334.48727346	17332.336348431	1.5	0.1
0.01	1	0.00372316699940711	1	21	113.175076145002	NA	1	0	2.47	1	110.484234658001	110.487957825	"10"	17334.48727346	17332.336348431	1.5	0.1
0.01	1	0.00373136400230578	1	21	113.175076145002	NA	1	0	2.47	1	110.717997403	110.721728767003	"10"	17334.48727346	17332.336348431	1.5	0.1
0.01	1	0.00391906799995922	1	21	113.175076145002	NA	1	0	2.47	1	110.951692655002	110.955611723002	"10"	17334.48727346	17332.336348431	1.5	0.1
0.01	1	0.00466266199873644	1	21	113.175076145002	NA	1	0	2.47	1	111.185559798003	111.190222460002	"10"	17334.48727346	17332.336348431	1.5	0.1
0.01	1	0.00391050100006396	1	21	113.175076145002	NA	1	0	2.47	1	111.419233390003	111.423143891003	"10"	17334.48727346	17332.336348431	1.5	0.1
0.01	1	0.00379587299903505	1	21	113.175076145002	NA	1	0	2.47	1	111.652828388003	111.656624261002	"10"	17334.48727346	17332.336348431	1.5	0.1
0.01	1	0.003922744999727	1	21	113.175076145002	NA	1	0	2.47	1	111.886512128003	111.890434873003	"10"	17334.48727346	17332.336348431	1.5	0.1
0.01	1	0.004166721002548	1	21	113.175076145002	NA	1	0	2.47	1	112.120427652	112.124594373003	"10"	17334.48727346	17332.336348431	1.5	0.1
0.01	1	0.00454645499848993	1	21	113.175076145002	NA	1	0	2.47	1	112.354131333002	112.358677788001	"10"	17334.48727346	17332.336348431	1.5	0.1
0.01	1	0.00370130100054666	1	21	113.175076145002	NA	1	0	2.47	1	112.587735880003	112.591437181003	"10"	17334.48727346	17332.336348431	1.5	0.1
0.01	1	0.00414038199960487	1	21	113.175076145002	NA	1	0	2.47	1	112.821501578001	112.82564196	"10"	17334.48727346	17332.336348431	1.5	0.1
0.01	1	0.00381459299751441	1	21	113.175076145002	NA	1	0	2.47	1	113.055255188003	113.059069781	"10"	17334.48727346	17332.336348431	1.5	0.1
0.01	1	0.00200610899992171	1	19	120.303753953001	NA	1	0	2.47	1	115.225573769003	115.227579878003	"11"	17334.48727346	17332.336348431	1.5	0.1
0.01	1	0.131234468000912	1	19	120.303753953001	NA	1	0	2.47	1	115.459396778002	115.590631246003	"11"	17334.48727346	17332.336348431	1.5	0.1
0.01	1	0.0109525910011143	1	19	120.303753953001	NA	1	0	2.47	1	115.826585573002	115.837538164003	"11"	17334.48727346	17332.336348431	1.5	0.1
0.01	1	0.00400169700151309	1	19	120.303753953001	NA	1	0	2.47	1	116.06029198	116.064293677002	"11"	17334.48727346	17332.336348431	1.5	0.1
0.01	1	0.00205085199922905	1	19	120.303753953001	NA	1	0	2.47	1	116.294116191002	116.296167043001	"11"	17334.48727346	17332.336348431	1.5	0.1
0.01	1	0.00377202299932833	1	19	120.303753953001	NA	1	0	2.47	1	116.527832570002	116.531604593001	"11"	17334.48727346	17332.336348431	1.5	0.1
0.01	1	0.115861023001344	1	19	120.303753953001	NA	1	0	2.47	1	116.761555828001	116.877416851003	"11"	17334.48727346	17332.336348431	1.5	0.1
0.01	1	0.00382506800087867	1	19	120.303753953001	NA	1	0	2.47	1	117.112084425	117.115909493001	"11"	17334.48727346	17332.336348431	1.5	0.1
0.01	1	0.092994364000333	1	19	120.303753953001	NA	1	0	2.47	1	117.345850648002	117.438845012002	"11"	17334.48727346	17332.336348431	1.5	0.1
0.01	1	0.00197778599977028	1	19	120.303753953001	NA	1	0	2.47	1	117.663067252	117.665045038	"11"	17334.48727346	17332.336348431	1.5	0.1
0.01	1	0.00389956700018956	1	19	120.303753953001	NA	1	0	2.47	1	117.896695760002	117.900595327003	"11"	17334.48727346	17332.336348431	1.5	0.1
0.01	1	0.100886100000935	1	19	120.303753953001	NA	1	0	2.47	1	118.130517173002	118.231403273003	"11"	17334.48727346	17332.336348431	1.5	0.1
0.01	1	0.158757223001885	1	19	120.303753953001	NA	1	0	2.47	1	118.46433966	118.623096883002	"11"	17334.48727346	17332.336348431	1.5	0.1
0.01	1	0.00214330299786525	1	19	120.303753953001	NA	1	0	2.47	1	118.848268102003	118.850411405001	"11"	17334.48727346	17332.336348431	1.5	0.1
0.01	1	0.00349917399944388	1	19	120.303753953001	NA	1	0	2.47	1	119.082117623002	119.085616797001	"11"	17334.48727346	17332.336348431	1.5	0.1
0.01	1	0.0189251080009853	1	19	120.303753953001	NA	1	0	2.47	1	119.315818813	119.334743921001	"11"	17334.48727346	17332.336348431	1.5	0.1
0.01	1	0.0246517570012657	1	19	120.303753953001	NA	1	0	2.47	1	119.566150005001	119.590801762002	"11"	17334.48727346	17332.336348431	1.5	0.1
0.01	1	0.0697673680006119	1	19	120.303753953001	NA	1	0	2.47	1	119.816618813002	119.886386181002	"11"	17334.48727346	17332.336348431	1.5	0.1
0.01	1	0.0654037450003671	1	19	120.303753953001	NA	1	0	2.47	1	120.117120003	120.182523748001	"11"	17334.48727346	17332.336348431	1.5	0.1
0.01	1	0.00390543499815976	1	63	NA	124.607728778003	0	0.09	2.56	1	122.354261840002	122.358167275001	"12"	17334.48727346	17332.336348431	1.5	0.1
0.01	1	0.00390234700171277	1	63	NA	124.607728778003	0	0.09	2.56	1	122.587874598001	122.591776945002	"12"	17334.48727346	17332.336348431	1.5	0.1
0.01	1	0.0033758850004233	1	63	NA	124.607728778003	0	0.09	2.56	1	122.821686480002	122.825062365002	"12"	17334.48727346	17332.336348431	1.5	0.1
0.01	1	0.00396371299939346	1	63	NA	124.607728778003	0	0.09	2.56	1	123.055466520003	123.059430233003	"12"	17334.48727346	17332.336348431	1.5	0.1
0.01	1	0.00206134299878613	1	63	NA	124.607728778003	0	0.09	2.56	1	123.289100377002	123.291161720001	"12"	17334.48727346	17332.336348431	1.5	0.1
0.01	1	0.00387935300022946	1	63	NA	124.607728778003	0	0.09	2.56	1	123.522818318001	123.526697671001	"12"	17334.48727346	17332.336348431	1.5	0.1
0.01	1	0.00373548800052959	1	63	NA	124.607728778003	0	0.09	2.56	1	123.756584433002	123.760319921003	"12"	17334.48727346	17332.336348431	1.5	0.1
0.01	1	0.00398855800085585	1	63	NA	124.607728778003	0	0.09	2.56	1	123.990361475	123.994350033001	"12"	17334.48727346	17332.336348431	1.5	0.1
0.01	1	0.00350127199999406	1	63	NA	124.607728778003	0	0.09	2.56	1	124.223998303001	124.227499575001	"12"	17334.48727346	17332.336348431	1.5	0.1
0.01	1	0.148415859999659	2	63	NA	124.607728778003	0	0.09	2.56	1	124.457786603001	124.606202463001	"12"	17334.48727346	17332.336348431	1.5	0.1
0.01	1	0.104884206000861	1	54	NA	144.535436046001	0	0.4	2.96	1	126.661502653002	126.766386859003	"13"	17334.48727346	17332.336348431	1.5	0.1
0.01	1	0.00202484099645517	1	54	NA	144.535436046001	0	0.4	2.96	1	126.995441452003	126.997466293	"13"	17334.48727346	17332.336348431	1.5	0.1
0.01	1	0.00375031799921999	1	54	NA	144.535436046001	0	0.4	2.96	1	127.229042153002	127.232792471001	"13"	17334.48727346	17332.336348431	1.5	0.1
0.01	1	0.11247949799872	1	54	NA	144.535436046001	0	0.4	2.96	1	127.462850325002	127.575329823001	"13"	17334.48727346	17332.336348431	1.5	0.1
0.01	1	0.0019520010027918	1	54	NA	144.535436046001	0	0.4	2.96	1	127.813361998	127.815313999003	"13"	17334.48727346	17332.336348431	1.5	0.1
0.01	1	0.00204401600058191	1	54	NA	144.535436046001	0	0.4	2.96	1	128.047079563003	128.049123579003	"13"	17334.48727346	17332.336348431	1.5	0.1
0.01	1	0.0144467669997539	1	54	NA	144.535436046001	0	0.4	2.96	1	128.280852875003	128.295299642003	"13"	17334.48727346	17332.336348431	1.5	0.1
0.01	1	0.00393551499655587	1	54	NA	144.535436046001	0	0.4	2.96	1	128.531358220003	128.535293735	"13"	17334.48727346	17332.336348431	1.5	0.1
0.01	1	0.0243027840006107	1	54	NA	144.535436046001	0	0.4	2.96	1	128.765099283002	128.789402067003	"13"	17334.48727346	17332.336348431	1.5	0.1
0.01	1	0.015338356999564	1	54	NA	144.535436046001	0	0.4	2.96	1	129.015360950001	129.030699307001	"13"	17334.48727346	17332.336348431	1.5	0.1
0.01	1	0.00716805699994438	1	54	NA	144.535436046001	0	0.4	2.96	1	129.265817848001	129.272985905001	"13"	17334.48727346	17332.336348431	1.5	0.1
0.01	1	0.0194372750011098	1	54	NA	144.535436046001	0	0.4	2.96	1	129.499615163	129.519052438001	"13"	17334.48727346	17332.336348431	1.5	0.1
0.01	1	0.0104827489994932	1	54	NA	144.535436046001	0	0.4	2.96	1	129.750002782002	129.760485531002	"13"	17334.48727346	17332.336348431	1.5	0.1
0.01	1	0.0397151049983222	1	54	NA	144.535436046001	0	0.4	2.96	1	129.983762638003	130.023477743001	"13"	17334.48727346	17332.336348431	1.5	0.1
0.01	1	0.0430429890002415	1	54	NA	144.535436046001	0	0.4	2.96	1	130.250933568001	130.293976557001	"13"	17334.48727346	17332.336348431	1.5	0.1
0.01	1	0.0318612609989941	1	54	NA	144.535436046001	0	0.4	2.96	1	130.534688938002	130.566550199001	"13"	17334.48727346	17332.336348431	1.5	0.1
0.01	1	0.0455480290002015	1	54	NA	144.535436046001	0	0.4	2.96	1	130.801753643002	130.847301672002	"13"	17334.48727346	17332.336348431	1.5	0.1
0.01	1	0.0319508650027274	1	54	NA	144.535436046001	0	0.4	2.96	1	131.085563793	131.117514658003	"13"	17334.48727346	17332.336348431	1.5	0.1
0.01	1	0.0446063179988414	1	54	NA	144.535436046001	0	0.4	2.96	1	131.352801273002	131.397407591001	"13"	17334.48727346	17332.336348431	1.5	0.1
0.01	1	0.0511701590003213	1	54	NA	144.535436046001	0	0.4	2.96	1	131.619871678002	131.671041837002	"13"	17334.48727346	17332.336348431	1.5	0.1
0.01	1	0.0463442500004021	1	54	NA	144.535436046001	0	0.4	2.96	1	131.903669310002	131.950013560003	"13"	17334.48727346	17332.336348431	1.5	0.1
0.01	1	0.0269982229983725	1	54	NA	144.535436046001	0	0.4	2.96	1	132.187448240002	132.214446463	"13"	17334.48727346	17332.336348431	1.5	0.1
0.01	1	0.0481383339974855	1	54	NA	144.535436046001	0	0.4	2.96	1	132.437854440002	132.485992774	"13"	17334.48727346	17332.336348431	1.5	0.1
0.01	1	0.0373435600013181	1	54	NA	144.535436046001	0	0.4	2.96	1	132.721664518001	132.759008078003	"13"	17334.48727346	17332.336348431	1.5	0.1
0.01	1	0.0581867450018763	1	54	NA	144.535436046001	0	0.4	2.96	1	132.988832890002	133.047019635003	"13"	17334.48727346	17332.336348431	1.5	0.1
0.01	1	0.0455412260016601	1	54	NA	144.535436046001	0	0.4	2.96	1	133.272658703001	133.318199929003	"13"	17334.48727346	17332.336348431	1.5	0.1
0.01	1	0.0334585000018706	1	54	NA	144.535436046001	0	0.4	2.96	1	133.556374443	133.589832943002	"13"	17334.48727346	17332.336348431	1.5	0.1
0.01	1	0.0622717160003958	1	54	NA	144.535436046001	0	0.4	2.96	1	133.823488090002	133.885759806002	"13"	17334.48727346	17332.336348431	1.5	0.1
0.01	1	5.56931877999887	1	54	NA	144.535436046001	0	0.4	2.96	1	134.124073530002	139.69339231	"13"	17334.48727346	17332.336348431	1.5	0.1
0.01	1	0.0647835279996798	1	54	NA	144.535436046001	0	0.4	2.96	1	139.933804850003	139.998588378003	"13"	17334.48727346	17332.336348431	1.5	0.1
0.01	1	0.252006072998483	1	54	NA	144.535436046001	0	0.4	2.96	1	140.234296285002	140.486302358	"13"	17334.48727346	17332.336348431	1.5	0.1
0.01	1	0.223102183001174	1	54	NA	144.535436046001	0	0.4	2.96	1	140.718437880001	140.941540063002	"13"	17334.48727346	17332.336348431	1.5	0.1
0.01	1	0.173432641000545	1	54	NA	144.535436046001	0	0.4	2.96	1	141.169270868002	141.342703509003	"13"	17334.48727346	17332.336348431	1.5	0.1
0.01	1	0.124359138000727	1	54	NA	144.535436046001	0	0.4	2.96	1	141.569850265001	141.694209403002	"13"	17334.48727346	17332.336348431	1.5	0.1
0.01	1	0.110453547997167	1	54	NA	144.535436046001	0	0.4	2.96	1	141.920480390003	142.030933938	"13"	17334.48727346	17332.336348431	1.5	0.1
0.01	1	0.0950988049989974	1	54	NA	144.535436046001	0	0.4	2.96	1	142.254415303003	142.349514108002	"13"	17334.48727346	17332.336348431	1.5	0.1
0.01	1	0.13030983200224	1	54	NA	144.535436046001	0	0.4	2.96	1	142.571587300001	142.701897132003	"13"	17334.48727346	17332.336348431	1.5	0.1
0.01	1	0.123148880000372	1	54	NA	144.535436046001	0	0.4	2.96	1	142.938840340001	143.061989220001	"13"	17334.48727346	17332.336348431	1.5	0.1
0.01	1	0.100491342000169	1	54	NA	144.535436046001	0	0.4	2.96	1	143.289432290003	143.389923632003	"13"	17334.48727346	17332.336348431	1.5	0.1
0.01	1	0.119881810998777	1	54	NA	144.535436046001	0	0.4	2.96	1	143.623319928003	143.743201739002	"13"	17334.48727346	17332.336348431	1.5	0.1
0.01	1	0.559890583997912	2	54	NA	144.535436046001	0	0.4	2.96	1	143.974003885003	144.533894469001	"13"	17334.48727346	17332.336348431	1.5	0.1
0.01	1	0.171399729002587	1	103	NA	173.987621771001	0	0.52	3.48	1	146.57828664	146.749686369003	"14"	17334.48727346	17332.336348431	1.5	0.1
0.01	1	0.083000015001744	1	103	NA	173.987621771001	0	0.52	3.48	1	146.978991323002	147.061991338003	"14"	17334.48727346	17332.336348431	1.5	0.1
0.01	1	0.0698686159994395	1	103	NA	173.987621771001	0	0.52	3.48	1	147.296284415002	147.366153031002	"14"	17334.48727346	17332.336348431	1.5	0.1
0.01	1	0.114284668001346	1	103	NA	173.987621771001	0	0.52	3.48	1	147.596737472002	147.711022140003	"14"	17334.48727346	17332.336348431	1.5	0.1
0.01	1	0.09031410100215	1	103	NA	173.987621771001	0	0.52	3.48	1	147.947317045	148.037631146002	"14"	17334.48727346	17332.336348431	1.5	0.1
0.01	1	0.10269975400297	1	103	NA	173.987621771001	0	0.52	3.48	1	148.264542768	148.367242522003	"14"	17334.48727346	17332.336348431	1.5	0.1
0.01	1	0.0960520170010568	1	103	NA	173.987621771001	0	0.52	3.48	1	148.598373958001	148.694425975002	"14"	17334.48727346	17332.336348431	1.5	0.1
0.01	1	0.0892622600003961	1	103	NA	173.987621771001	0	0.52	3.48	1	148.932243323001	149.021505583001	"14"	17334.48727346	17332.336348431	1.5	0.1
0.01	1	0.0603290330000164	1	103	NA	173.987621771001	0	0.52	3.48	1	149.249491973002	149.309821006002	"14"	17334.48727346	17332.336348431	1.5	0.1
0.01	1	0.0894821330002742	1	103	NA	173.987621771001	0	0.52	3.48	1	149.533377735002	149.622859868003	"14"	17334.48727346	17332.336348431	1.5	0.1
0.01	1	0.0767178670030262	1	103	NA	173.987621771001	0	0.52	3.48	1	149.850477918	149.927195785003	"14"	17334.48727346	17332.336348431	1.5	0.1
0.01	1	0.0861338769973372	1	103	NA	173.987621771001	0	0.52	3.48	1	150.167671623003	150.2538055	"14"	17334.48727346	17332.336348431	1.5	0.1
0.01	1	0.145832931997575	1	103	NA	173.987621771001	0	0.52	3.48	1	150.484935415003	150.630768347	"14"	17334.48727346	17332.336348431	1.5	0.1
0.01	1	0.129633203003323	1	103	NA	173.987621771001	0	0.52	3.48	1	150.852123793	150.981756996003	"14"	17334.48727346	17332.336348431	1.5	0.1
0.01	1	0.114864043000125	1	103	NA	173.987621771001	0	0.52	3.48	1	151.219481443	151.334345486001	"14"	17334.48727346	17332.336348431	1.5	0.1
0.01	1	0.0925119370003813	1	103	NA	173.987621771001	0	0.52	3.48	1	151.570028563001	151.662540500001	"14"	17334.48727346	17332.336348431	1.5	0.1
0.01	1	0.144171262996679	1	103	NA	173.987621771001	0	0.52	3.48	1	151.887247395003	152.031418658	"14"	17334.48727346	17332.336348431	1.5	0.1
0.01	1	0.135169797998969	1	103	NA	173.987621771001	0	0.52	3.48	1	152.254671490002	152.389841288001	"14"	17334.48727346	17332.336348431	1.5	0.1
0.01	1	0.143775901997287	1	103	NA	173.987621771001	0	0.52	3.48	1	152.621722663003	152.765498565001	"14"	17334.48727346	17332.336348431	1.5	0.1
0.01	1	0.112917422000464	1	103	NA	173.987621771001	0	0.52	3.48	1	152.989120105001	153.102037527002	"14"	17334.48727346	17332.336348431	1.5	0.1
0.01	1	6.65907040900129	1	103	NA	173.987621771001	0	0.52	3.48	1	153.339641938001	159.998712347002	"14"	17334.48727346	17332.336348431	1.5	0.1
0.01	1	2.03624766599751	1	103	NA	173.987621771001	0	0.52	3.48	1	160.234599229003	162.270846895	"14"	17334.48727346	17332.336348431	1.5	0.1
0.01	1	2.2054908099999	1	103	NA	173.987621771001	0	0.52	3.48	1	162.505050833002	164.710541643002	"14"	17334.48727346	17332.336348431	1.5	0.1
0.01	1	0.263353638998524	1	103	NA	173.987621771001	0	0.52	3.48	1	164.942523878002	165.205877517001	"14"	17334.48727346	17332.336348431	1.5	0.1
0.01	1	0.0507073040025716	1	103	NA	173.987621771001	0	0.52	3.48	1	165.443346108001	165.494053412003	"14"	17334.48727346	17332.336348431	1.5	0.1
0.01	1	0.00354884999978822	1	103	NA	173.987621771001	0	0.52	3.48	1	165.727142523003	165.730691373003	"14"	17334.48727346	17332.336348431	1.5	0.1
0.01	1	0.00339825199989718	1	103	NA	173.987621771001	0	0.52	3.48	1	165.960869655002	165.964267907002	"14"	17334.48727346	17332.336348431	1.5	0.1
0.01	1	0.00442322199887712	1	103	NA	173.987621771001	0	0.52	3.48	1	166.194677168001	166.19910039	"14"	17334.48727346	17332.336348431	1.5	0.1
0.01	1	0.00210567700196407	1	103	NA	173.987621771001	0	0.52	3.48	1	166.428448088001	166.430553765003	"14"	17334.48727346	17332.336348431	1.5	0.1
0.01	1	0.00204486700022244	1	103	NA	173.987621771001	0	0.52	3.48	1	166.662054282002	166.664099149002	"14"	17334.48727346	17332.336348431	1.5	0.1
0.01	1	0.00272008100000676	1	103	NA	173.987621771001	0	0.52	3.48	1	166.895871117002	166.898591198002	"14"	17334.48727346	17332.336348431	1.5	0.1
0.01	1	0.00799288700000034	1	103	NA	173.987621771001	0	0.52	3.48	1	167.129553228002	167.137546115002	"14"	17334.48727346	17332.336348431	1.5	0.1
0.01	1	0.0192471999980626	1	103	NA	173.987621771001	0	0.52	3.48	1	167.363290108002	167.382537308	"14"	17334.48727346	17332.336348431	1.5	0.1
0.01	1	0.0238907950006251	1	103	NA	173.987621771001	0	0.52	3.48	1	167.613683988002	167.637574783002	"14"	17334.48727346	17332.336348431	1.5	0.1
0.01	1	0.0225011260008614	1	103	NA	173.987621771001	0	0.52	3.48	1	167.864088525002	167.886589651003	"14"	17334.48727346	17332.336348431	1.5	0.1
0.01	1	0.0193529009993654	1	103	NA	173.987621771001	0	0.52	3.48	1	168.114652053002	168.134004954001	"14"	17334.48727346	17332.336348431	1.5	0.1
0.01	1	0.0110500299997511	1	103	NA	173.987621771001	0	0.52	3.48	1	168.364922913002	168.375972943002	"14"	17334.48727346	17332.336348431	1.5	0.1
0.01	1	0.0240336569986539	1	103	NA	173.987621771001	0	0.52	3.48	1	168.598673891003	168.622707548002	"14"	17334.48727346	17332.336348431	1.5	0.1
0.01	1	0.765139099999942	1	103	NA	173.987621771001	0	0.52	3.48	1	168.849149939	169.614289039	"14"	17334.48727346	17332.336348431	1.5	0.1
0.01	1	0.0190993699980027	1	103	NA	173.987621771001	0	0.52	3.48	1	169.850905123003	169.870004493001	"14"	17334.48727346	17332.336348431	1.5	0.1
0.01	1	0.00198770700080786	1	103	NA	173.987621771001	0	0.52	3.48	1	170.101183170002	170.103170877002	"14"	17334.48727346	17332.336348431	1.5	0.1
0.01	1	0.0712671969995426	1	103	NA	173.987621771001	0	0.52	3.48	1	170.334981790002	170.406248987001	"14"	17334.48727346	17332.336348431	1.5	0.1
0.01	1	0.0912138769999729	1	103	NA	173.987621771001	0	0.52	3.48	1	170.635457508	170.726671385	"14"	17334.48727346	17332.336348431	1.5	0.1
0.01	1	0.00386179499764694	1	103	NA	173.987621771001	0	0.52	3.48	1	170.952594468003	170.956456263	"14"	17334.48727346	17332.336348431	1.5	0.1
0.01	1	0.0438573450010153	1	103	NA	173.987621771001	0	0.52	3.48	1	171.186377173002	171.230234518003	"14"	17334.48727346	17332.336348431	1.5	0.1
0.01	1	0.00393919500129414	1	103	NA	173.987621771001	0	0.52	3.48	1	171.453409090002	171.457348285003	"14"	17334.48727346	17332.336348431	1.5	0.1
0.01	1	0.0957468710003013	1	103	NA	173.987621771001	0	0.52	3.48	1	171.687224700003	171.782971571003	"14"	17334.48727346	17332.336348431	1.5	0.1
0.01	1	0.00204366500111064	1	103	NA	173.987621771001	0	0.52	3.48	1	172.021130058001	172.023173723002	"14"	17334.48727346	17332.336348431	1.5	0.1
0.01	1	0.00382992899903911	1	103	NA	173.987621771001	0	0.52	3.48	1	172.254808738002	172.258638667001	"14"	17334.48727346	17332.336348431	1.5	0.1
0.01	1	0.0859441699976742	1	103	NA	173.987621771001	0	0.52	3.48	1	172.488568963003	172.574513133	"14"	17334.48727346	17332.336348431	1.5	0.1
0.01	1	0.00209638900196296	1	103	NA	173.987621771001	0	0.52	3.48	1	172.805782463001	172.807878852003	"14"	17334.48727346	17332.336348431	1.5	0.1
0.01	1	0.0038570129981963	1	103	NA	173.987621771001	0	0.52	3.48	1	173.039511818002	173.043368831	"14"	17334.48727346	17332.336348431	1.5	0.1
0.01	1	0.712804448998213	2	103	NA	173.987621771001	0	0.52	3.48	1	173.273242378003	173.986046827002	"14"	17334.48727346	17332.336348431	1.5	0.1
0.01	1	0.00396384700070485	1	120	NA	186.775852144001	0	0.39	3.87	1	176.027828878003	176.031792725003	"15"	17334.48727346	17332.336348431	1.5	0.1
0.01	1	0.00373274700177717	1	120	NA	186.775852144001	0	0.39	3.87	1	176.261585420001	176.265318167003	"15"	17334.48727346	17332.336348431	1.5	0.1
0.01	1	0.00337864900211571	1	120	NA	186.775852144001	0	0.39	3.87	1	176.495340628	176.498719277002	"15"	17334.48727346	17332.336348431	1.5	0.1
0.01	1	0.00406313499843236	1	120	NA	186.775852144001	0	0.39	3.87	1	176.729025258002	176.733088393001	"15"	17334.48727346	17332.336348431	1.5	0.1
0.01	1	0.00391351399957784	1	120	NA	186.775852144001	0	0.39	3.87	1	176.962774045001	176.966687559001	"15"	17334.48727346	17332.336348431	1.5	0.1
0.01	1	0.00396495199674973	1	120	NA	186.775852144001	0	0.39	3.87	1	177.196437043003	177.200401995	"15"	17334.48727346	17332.336348431	1.5	0.1
0.01	1	0.00385673299751943	1	120	NA	186.775852144001	0	0.39	3.87	1	177.430210960003	177.434067693001	"15"	17334.48727346	17332.336348431	1.5	0.1
0.01	1	0.00372270699881483	1	120	NA	186.775852144001	0	0.39	3.87	1	177.663905330002	177.667628037001	"15"	17334.48727346	17332.336348431	1.5	0.1
0.01	1	0.00370267399921431	1	120	NA	186.775852144001	0	0.39	3.87	1	177.897703853003	177.901406527002	"15"	17334.48727346	17332.336348431	1.5	0.1
0.01	1	0.0037136470018595	1	120	NA	186.775852144001	0	0.39	3.87	1	178.131404068001	178.135117715003	"15"	17334.48727346	17332.336348431	1.5	0.1
0.01	1	0.00436387099762214	1	120	NA	186.775852144001	0	0.39	3.87	1	178.365140159003	178.369504030001	"15"	17334.48727346	17332.336348431	1.5	0.1
0.01	1	0.00338790800014976	1	120	NA	186.775852144001	0	0.39	3.87	1	178.598812123	178.602200031	"15"	17334.48727346	17332.336348431	1.5	0.1
0.01	1	0.00401305299965315	1	120	NA	186.775852144001	0	0.39	3.87	1	178.832593880001	178.836606933	"15"	17334.48727346	17332.336348431	1.5	0.1
0.01	1	0.00453887000185205	1	120	NA	186.775852144001	0	0.39	3.87	1	179.066231428002	179.070770298003	"15"	17334.48727346	17332.336348431	1.5	0.1
0.01	1	0.00464815699888277	1	120	NA	186.775852144001	0	0.39	3.87	1	179.300037103003	179.304685260002	"15"	17334.48727346	17332.336348431	1.5	0.1
0.01	1	0.00362192600005073	1	120	NA	186.775852144001	0	0.39	3.87	1	179.533732853	179.537354779	"15"	17334.48727346	17332.336348431	1.5	0.1
0.01	1	0.00363388100231532	1	120	NA	186.775852144001	0	0.39	3.87	1	179.767513928	179.771147809002	"15"	17334.48727346	17332.336348431	1.5	0.1
0.01	1	0.00371038299999782	1	120	NA	186.775852144001	0	0.39	3.87	1	180.00121704	180.004927423	"15"	17334.48727346	17332.336348431	1.5	0.1
0.01	1	0.00393733199962298	1	120	NA	186.775852144001	0	0.39	3.87	1	180.234941973002	180.238879305001	"15"	17334.48727346	17332.336348431	1.5	0.1
0.01	1	0.00378024900055607	1	120	NA	186.775852144001	0	0.39	3.87	1	180.468613810001	180.472394059001	"15"	17334.48727346	17332.336348431	1.5	0.1
0.01	1	0.00330595799823641	1	120	NA	186.775852144001	0	0.39	3.87	1	180.702411125003	180.705717083001	"15"	17334.48727346	17332.336348431	1.5	0.1
0.01	1	0.00355917900014902	1	120	NA	186.775852144001	0	0.39	3.87	1	180.936136710003	180.939695889003	"15"	17334.48727346	17332.336348431	1.5	0.1
0.01	1	0.00343883800087497	1	120	NA	186.775852144001	0	0.39	3.87	1	181.169870373	181.173309211001	"15"	17334.48727346	17332.336348431	1.5	0.1
0.01	1	0.00363518399899476	1	120	NA	186.775852144001	0	0.39	3.87	1	181.403554145003	181.407189329002	"15"	17334.48727346	17332.336348431	1.5	0.1
0.01	1	0.00345431800087681	1	120	NA	186.775852144001	0	0.39	3.87	1	181.637281503001	181.640735821002	"15"	17334.48727346	17332.336348431	1.5	0.1
0.01	1	0.00345073300195509	1	120	NA	186.775852144001	0	0.39	3.87	1	181.870979888001	181.874430621003	"15"	17334.48727346	17332.336348431	1.5	0.1
0.01	1	0.00368278700261726	1	120	NA	186.775852144001	0	0.39	3.87	1	182.104646198	182.108328985003	"15"	17334.48727346	17332.336348431	1.5	0.1
0.01	1	0.00384527800270007	1	120	NA	186.775852144001	0	0.39	3.87	1	182.338434473	182.342279751003	"15"	17334.48727346	17332.336348431	1.5	0.1
0.01	1	0.00473694700121996	1	120	NA	186.775852144001	0	0.39	3.87	1	182.572200178001	182.576937125003	"15"	17334.48727346	17332.336348431	1.5	0.1
0.01	1	0.00459321000016644	1	120	NA	186.775852144001	0	0.39	3.87	1	182.805998288	182.810591498001	"15"	17334.48727346	17332.336348431	1.5	0.1
0.01	1	0.00350451999838697	1	120	NA	186.775852144001	0	0.39	3.87	1	183.039596583003	183.043101103001	"15"	17334.48727346	17332.336348431	1.5	0.1
0.01	1	0.00379933499789331	1	120	NA	186.775852144001	0	0.39	3.87	1	183.273299538003	183.277098873001	"15"	17334.48727346	17332.336348431	1.5	0.1
0.01	1	0.00387765699997544	1	120	NA	186.775852144001	0	0.39	3.87	1	183.507106190002	183.510983847002	"15"	17334.48727346	17332.336348431	1.5	0.1
0.01	1	0.00374866499987547	1	120	NA	186.775852144001	0	0.39	3.87	1	183.740898470001	183.744647135001	"15"	17334.48727346	17332.336348431	1.5	0.1
0.01	1	0.00381436600218876	1	120	NA	186.775852144001	0	0.39	3.87	1	183.974573683001	183.978388049003	"15"	17334.48727346	17332.336348431	1.5	0.1
0.01	1	0.00463836199924117	1	120	NA	186.775852144001	0	0.39	3.87	1	184.208222723002	184.212861085001	"15"	17334.48727346	17332.336348431	1.5	0.1
0.01	1	0.180073910003557	1	120	NA	186.775852144001	0	0.39	3.87	1	184.442017685	184.622091595003	"15"	17334.48727346	17332.336348431	1.5	0.1
0.01	1	0.147238495999773	1	120	NA	186.775852144001	0	0.39	3.87	1	184.859413470003	185.006651966003	"15"	17334.48727346	17332.336348431	1.5	0.1
0.01	1	0.202521322000393	1	120	NA	186.775852144001	0	0.39	3.87	1	185.243345998002	185.445867320002	"15"	17334.48727346	17332.336348431	1.5	0.1
0.01	1	1.09679520099962	2	120	NA	186.775852144001	0	0.39	3.87	1	185.677500133002	186.774295334002	"15"	17334.48727346	17332.336348431	1.5	0.1
0.01	1	0.00441785400107619	1	109	NA	205.464248063003	0	0.7	4.57	1	188.832666029	188.837083883001	"16"	17334.48727346	17332.336348431	1.5	0.1
0.01	1	0.00366337600280531	1	109	NA	205.464248063003	0	0.7	4.57	1	189.066506993	189.070170369003	"16"	17334.48727346	17332.336348431	1.5	0.1
0.01	1	0.00368651999815484	1	109	NA	205.464248063003	0	0.7	4.57	1	189.300142285003	189.303828805001	"16"	17334.48727346	17332.336348431	1.5	0.1
0.01	1	0.00454649000312202	1	109	NA	205.464248063003	0	0.7	4.57	1	189.533942168	189.538488658003	"16"	17334.48727346	17332.336348431	1.5	0.1
0.01	1	0.00460621700040065	1	109	NA	205.464248063003	0	0.7	4.57	1	189.767674653001	189.772280870002	"16"	17334.48727346	17332.336348431	1.5	0.1
0.01	1	0.00395985100112739	1	109	NA	205.464248063003	0	0.7	4.57	1	190.001368000001	190.005327851002	"16"	17334.48727346	17332.336348431	1.5	0.1
0.01	1	0.00455620200227713	1	109	NA	205.464248063003	0	0.7	4.57	1	190.235124028	190.239680230003	"16"	17334.48727346	17332.336348431	1.5	0.1
0.01	1	0.00398139000026276	1	109	NA	205.464248063003	0	0.7	4.57	1	190.468849095003	190.472830485003	"16"	17334.48727346	17332.336348431	1.5	0.1
0.01	1	0.00389371599885635	1	109	NA	205.464248063003	0	0.7	4.57	1	190.702466685001	190.706360401	"16"	17334.48727346	17332.336348431	1.5	0.1
0.01	1	0.00385548000122071	1	109	NA	205.464248063003	0	0.7	4.57	1	190.936225403002	190.940080883003	"16"	17334.48727346	17332.336348431	1.5	0.1
0.01	1	0.00326577799933148	1	109	NA	205.464248063003	0	0.7	4.57	1	191.169983683001	191.173249461001	"16"	17334.48727346	17332.336348431	1.5	0.1
0.01	1	0.00349444700259482	1	109	NA	205.464248063003	0	0.7	4.57	1	191.403733518	191.407227965003	"16"	17334.48727346	17332.336348431	1.5	0.1
0.01	1	0.00389324199932162	1	109	NA	205.464248063003	0	0.7	4.57	1	191.637452923002	191.641346165001	"16"	17334.48727346	17332.336348431	1.5	0.1
0.01	1	0.0037887469989073	1	109	NA	205.464248063003	0	0.7	4.57	1	191.871209028002	191.874997775001	"16"	17334.48727346	17332.336348431	1.5	0.1
0.01	1	0.00385665300200344	1	109	NA	205.464248063003	0	0.7	4.57	1	192.10494456	192.108801213002	"16"	17334.48727346	17332.336348431	1.5	0.1
0.01	1	0.00458556000012322	1	109	NA	205.464248063003	0	0.7	4.57	1	192.338579563002	192.343165123002	"16"	17334.48727346	17332.336348431	1.5	0.1
0.01	1	0.00392888300120831	1	109	NA	205.464248063003	0	0.7	4.57	1	192.572345970002	192.576274853003	"16"	17334.48727346	17332.336348431	1.5	0.1
0.01	1	0.004019641000923	1	109	NA	205.464248063003	0	0.7	4.57	1	192.806121858001	192.810141499001	"16"	17334.48727346	17332.336348431	1.5	0.1
0.01	1	0.00387860300179454	1	109	NA	205.464248063003	0	0.7	4.57	1	193.039844518	193.043723121002	"16"	17334.48727346	17332.336348431	1.5	0.1
0.01	1	0.00387922099980642	1	109	NA	205.464248063003	0	0.7	4.57	1	193.273555698001	193.277434919	"16"	17334.48727346	17332.336348431	1.5	0.1
0.01	1	0.00391262599805486	1	109	NA	205.464248063003	0	0.7	4.57	1	193.507318933003	193.511231559001	"16"	17334.48727346	17332.336348431	1.5	0.1
0.01	1	0.00331999700210872	1	109	NA	205.464248063003	0	0.7	4.57	1	193.740975460001	193.744295457003	"16"	17334.48727346	17332.336348431	1.5	0.1
0.01	1	0.00387300100192078	1	109	NA	205.464248063003	0	0.7	4.57	1	193.97469848	193.978571481002	"16"	17334.48727346	17332.336348431	1.5	0.1
0.01	1	0.00327689400000963	1	109	NA	205.464248063003	0	0.7	4.57	1	194.208338713001	194.211615607001	"16"	17334.48727346	17332.336348431	1.5	0.1
0.01	1	0.00372436000179732	1	109	NA	205.464248063003	0	0.7	4.57	1	194.442124255002	194.445848615003	"16"	17334.48727346	17332.336348431	1.5	0.1
0.01	1	0.00337801299974672	1	109	NA	205.464248063003	0	0.7	4.57	1	194.675857668	194.679235681	"16"	17334.48727346	17332.336348431	1.5	0.1
0.01	1	0.00424960799864493	1	109	NA	205.464248063003	0	0.7	4.57	1	194.909662355003	194.913911963002	"16"	17334.48727346	17332.336348431	1.5	0.1
0.01	1	0.00370106299669715	1	109	NA	205.464248063003	0	0.7	4.57	1	195.143361650003	195.147062713	"16"	17334.48727346	17332.336348431	1.5	0.1
0.01	1	0.00392164799995953	1	109	NA	205.464248063003	0	0.7	4.57	1	195.377169785002	195.381091433002	"16"	17334.48727346	17332.336348431	1.5	0.1
0.01	1	0.00394765300006839	1	109	NA	205.464248063003	0	0.7	4.57	1	195.610795068002	195.614742721002	"16"	17334.48727346	17332.336348431	1.5	0.1
0.01	1	0.00458771199919283	1	109	NA	205.464248063003	0	0.7	4.57	1	195.844529093003	195.849116805002	"16"	17334.48727346	17332.336348431	1.5	0.1
0.01	1	0.00376009799947497	1	109	NA	205.464248063003	0	0.7	4.57	1	196.078219415002	196.081979513001	"16"	17334.48727346	17332.336348431	1.5	0.1
0.01	1	0.00385896999796387	1	109	NA	205.464248063003	0	0.7	4.57	1	196.311999945003	196.315858915001	"16"	17334.48727346	17332.336348431	1.5	0.1
0.01	1	0.00384545500128297	1	109	NA	205.464248063003	0	0.7	4.57	1	196.545722220002	196.549567675003	"16"	17334.48727346	17332.336348431	1.5	0.1
0.01	1	0.00332450800124207	1	109	NA	205.464248063003	0	0.7	4.57	1	196.779529895	196.782854403002	"16"	17334.48727346	17332.336348431	1.5	0.1
0.01	1	0.00388899499739637	1	109	NA	205.464248063003	0	0.7	4.57	1	197.013161140003	197.017050135	"16"	17334.48727346	17332.336348431	1.5	0.1
0.01	1	0.00418060700030765	1	109	NA	205.464248063003	0	0.7	4.57	1	197.246903958003	197.251084565003	"16"	17334.48727346	17332.336348431	1.5	0.1
0.01	1	0.00433560800229316	1	109	NA	205.464248063003	0	0.7	4.57	1	197.480554662001	197.484890270003	"16"	17334.48727346	17332.336348431	1.5	0.1
0.01	1	0.00372587600213592	1	109	NA	205.464248063003	0	0.7	4.57	1	197.714319625	197.718045501002	"16"	17334.48727346	17332.336348431	1.5	0.1
0.01	1	0.00341244299852406	1	109	NA	205.464248063003	0	0.7	4.57	1	197.948032210003	197.951444653001	"16"	17334.48727346	17332.336348431	1.5	0.1
0.01	1	0.00342392899983679	1	109	NA	205.464248063003	0	0.7	4.57	1	198.181755150003	198.185179079002	"16"	17334.48727346	17332.336348431	1.5	0.1
0.01	1	0.00383983500069007	1	109	NA	205.464248063003	0	0.7	4.57	1	198.415653610002	198.419493445002	"16"	17334.48727346	17332.336348431	1.5	0.1
0.01	1	0.00390527099807514	1	109	NA	205.464248063003	0	0.7	4.57	1	198.649228370003	198.653133641001	"16"	17334.48727346	17332.336348431	1.5	0.1
0.01	1	0.00337251499877311	1	109	NA	205.464248063003	0	0.7	4.57	1	198.882911268003	198.886283783002	"16"	17334.48727346	17332.336348431	1.5	0.1
0.01	1	0.00381214800290763	1	109	NA	205.464248063003	0	0.7	4.57	1	199.116715573	199.120527721003	"16"	17334.48727346	17332.336348431	1.5	0.1
0.01	1	0.00372792900088825	1	109	NA	205.464248063003	0	0.7	4.57	1	199.350394190002	199.354122119003	"16"	17334.48727346	17332.336348431	1.5	0.1
0.01	1	0.00383032500030822	1	109	NA	205.464248063003	0	0.7	4.57	1	199.584160810002	199.587991135002	"16"	17334.48727346	17332.336348431	1.5	0.1
0.01	1	0.00367953100067098	1	109	NA	205.464248063003	0	0.7	4.57	1	199.817797390002	199.821476921003	"16"	17334.48727346	17332.336348431	1.5	0.1
0.01	1	0.00328567799806478	1	109	NA	205.464248063003	0	0.7	4.57	1	200.051536067003	200.054821745001	"16"	17334.48727346	17332.336348431	1.5	0.1
0.01	1	0.00354777000029571	1	109	NA	205.464248063003	0	0.7	4.57	1	200.285331745003	200.288879515003	"16"	17334.48727346	17332.336348431	1.5	0.1
0.01	1	0.00394521099951817	1	109	NA	205.464248063003	0	0.7	4.57	1	200.519025560003	200.522970771002	"16"	17334.48727346	17332.336348431	1.5	0.1
0.01	1	0.00386944999991101	1	109	NA	205.464248063003	0	0.7	4.57	1	200.752700243003	200.756569693003	"16"	17334.48727346	17332.336348431	1.5	0.1
0.01	1	0.00388619399745949	1	109	NA	205.464248063003	0	0.7	4.57	1	200.986468443003	200.990354637001	"16"	17334.48727346	17332.336348431	1.5	0.1
0.01	1	0.00355935599873192	1	109	NA	205.464248063003	0	0.7	4.57	1	201.220185625003	201.223744981002	"16"	17334.48727346	17332.336348431	1.5	0.1
0.01	1	0.00372586299999966	1	109	NA	205.464248063003	0	0.7	4.57	1	201.453932370001	201.457658233001	"16"	17334.48727346	17332.336348431	1.5	0.1
0.01	1	0.00425629199889954	1	109	NA	205.464248063003	0	0.7	4.57	1	201.687728733003	201.691985025001	"16"	17334.48727346	17332.336348431	1.5	0.1
0.01	1	0.00401271500231815	1	109	NA	205.464248063003	0	0.7	4.57	1	201.92136973	201.925382445002	"16"	17334.48727346	17332.336348431	1.5	0.1
0.01	1	0.00411526600146317	1	109	NA	205.464248063003	0	0.7	4.57	1	202.155099845	202.159215111002	"16"	17334.48727346	17332.336348431	1.5	0.1
0.01	1	0.00479967999854125	1	109	NA	205.464248063003	0	0.7	4.57	1	202.388853513003	202.393653193001	"16"	17334.48727346	17332.336348431	1.5	0.1
0.01	1	0.00346981099937693	1	109	NA	205.464248063003	0	0.7	4.57	1	202.622572068001	202.626041879001	"16"	17334.48727346	17332.336348431	1.5	0.1
0.01	1	0.00370859100075904	1	109	NA	205.464248063003	0	0.7	4.57	1	202.8562719	202.859980491001	"16"	17334.48727346	17332.336348431	1.5	0.1
0.01	1	0.0036225559997547	1	109	NA	205.464248063003	0	0.7	4.57	1	203.090066453002	203.093689009002	"16"	17334.48727346	17332.336348431	1.5	0.1
0.01	1	0.00370294399908744	1	109	NA	205.464248063003	0	0.7	4.57	1	203.323842313002	203.327545257001	"16"	17334.48727346	17332.336348431	1.5	0.1
0.01	1	0.00339789099962218	1	109	NA	205.464248063003	0	0.7	4.57	1	203.557492170003	203.560890061002	"16"	17334.48727346	17332.336348431	1.5	0.1
0.01	1	0.00431310999920242	1	109	NA	205.464248063003	0	0.7	4.57	1	203.791166373001	203.795479483	"16"	17334.48727346	17332.336348431	1.5	0.1
0.01	1	0.00451819199952297	1	109	NA	205.464248063003	0	0.7	4.57	1	204.024960238003	204.029478430002	"16"	17334.48727346	17332.336348431	1.5	0.1
0.01	1	0.00383844400130329	1	109	NA	205.464248063003	0	0.7	4.57	1	204.258725165	204.262563609002	"16"	17334.48727346	17332.336348431	1.5	0.1
0.01	1	0.00395710600059829	1	109	NA	205.464248063003	0	0.7	4.57	1	204.492353013	204.496310119001	"16"	17334.48727346	17332.336348431	1.5	0.1
0.01	1	0.00358326999776182	1	109	NA	205.464248063003	0	0.7	4.57	1	204.726143063002	204.729726333	"16"	17334.48727346	17332.336348431	1.5	0.1
0.01	1	0.00455907599825878	1	109	NA	205.464248063003	0	0.7	4.57	1	204.959830622003	204.964389698001	"16"	17334.48727346	17332.336348431	1.5	0.1
0.01	1	0.269072240000241	2	109	NA	205.464248063003	0	0.7	4.57	1	205.193630599002	205.462702839002	"16"	17334.48727346	17332.336348431	1.5	0.1
0.01	1	0.156515890001174	1	71	224.145006520001	NA	1	0	4.57	1	207.514133828001	207.670649718002	"17"	17334.48727346	17332.336348431	1.5	0.1
0.01	1	0.00398045100155286	1	71	224.145006520001	NA	1	0	4.57	1	207.898058372	207.902038823002	"17"	17334.48727346	17332.336348431	1.5	0.1
0.01	1	0.00373930800196831	1	71	224.145006520001	NA	1	0	4.57	1	208.131823353	208.135562661002	"17"	17334.48727346	17332.336348431	1.5	0.1
0.01	1	0.00390729799983092	1	71	224.145006520001	NA	1	0	4.57	1	208.365663223001	208.369570521001	"17"	17334.48727346	17332.336348431	1.5	0.1
0.01	1	0.00346786000227439	1	71	224.145006520001	NA	1	0	4.57	1	208.599261323001	208.602729183003	"17"	17334.48727346	17332.336348431	1.5	0.1
0.01	1	0.00434868800221011	1	71	224.145006520001	NA	1	0	4.57	1	208.832980422001	208.837329110003	"17"	17334.48727346	17332.336348431	1.5	0.1
0.01	1	0.00374124999871128	1	71	224.145006520001	NA	1	0	4.57	1	209.066702503002	209.070443753	"17"	17334.48727346	17332.336348431	1.5	0.1
0.01	1	0.00429689500015229	1	71	224.145006520001	NA	1	0	4.57	1	209.300482128001	209.304779023001	"17"	17334.48727346	17332.336348431	1.5	0.1
0.01	1	0.00387884799783933	1	71	224.145006520001	NA	1	0	4.57	1	209.534215333002	209.538094181	"17"	17334.48727346	17332.336348431	1.5	0.1
0.01	1	0.00350812100077746	1	71	224.145006520001	NA	1	0	4.57	1	209.767957968001	209.771466089001	"17"	17334.48727346	17332.336348431	1.5	0.1
0.01	1	0.00380791900170152	1	71	224.145006520001	NA	1	0	4.57	1	210.001691318001	210.005499237002	"17"	17334.48727346	17332.336348431	1.5	0.1
0.01	1	0.00450479500068468	1	71	224.145006520001	NA	1	0	4.57	1	210.235432298003	210.239937093003	"17"	17334.48727346	17332.336348431	1.5	0.1
0.01	1	0.00391195399788558	1	71	224.145006520001	NA	1	0	4.57	1	210.469191725002	210.473103679	"17"	17334.48727346	17332.336348431	1.5	0.1
0.01	1	0.00384592499904102	1	71	224.145006520001	NA	1	0	4.57	1	210.702864018003	210.706709943002	"17"	17334.48727346	17332.336348431	1.5	0.1
0.01	1	0.00449893199765938	1	71	224.145006520001	NA	1	0	4.57	1	210.936561116003	210.941060048001	"17"	17334.48727346	17332.336348431	1.5	0.1
0.01	1	0.00382245500077261	1	71	224.145006520001	NA	1	0	4.57	1	211.170243868	211.174066323001	"17"	17334.48727346	17332.336348431	1.5	0.1
0.01	1	0.00429128700125148	1	71	224.145006520001	NA	1	0	4.57	1	211.403979218001	211.408270505002	"17"	17334.48727346	17332.336348431	1.5	0.1
0.01	1	0.00460969300183933	1	71	224.145006520001	NA	1	0	4.57	1	211.63782756	211.642437253002	"17"	17334.48727346	17332.336348431	1.5	0.1
0.01	1	0.0037493749987334	1	71	224.145006520001	NA	1	0	4.57	1	211.871389180003	211.875138555002	"17"	17334.48727346	17332.336348431	1.5	0.1
0.01	1	0.00376269700063858	1	71	224.145006520001	NA	1	0	4.57	1	212.105261090001	212.109023787001	"17"	17334.48727346	17332.336348431	1.5	0.1
0.01	1	0.00397508999958518	1	71	224.145006520001	NA	1	0	4.57	1	212.338915225002	212.342890315002	"17"	17334.48727346	17332.336348431	1.5	0.1
0.01	1	0.0039083780029614	1	71	224.145006520001	NA	1	0	4.57	1	212.572665165	212.576573543003	"17"	17334.48727346	17332.336348431	1.5	0.1
0.01	1	0.00384408900208655	1	71	224.145006520001	NA	1	0	4.57	1	212.806452638	212.810296727002	"17"	17334.48727346	17332.336348431	1.5	0.1
0.01	1	0.00355066699921736	1	71	224.145006520001	NA	1	0	4.57	1	213.040146348001	213.043697015	"17"	17334.48727346	17332.336348431	1.5	0.1
0.01	1	0.00406668299910962	1	71	224.145006520001	NA	1	0	4.57	1	213.273873330003	213.277940013002	"17"	17334.48727346	17332.336348431	1.5	0.1
0.01	1	0.00386794500082033	1	71	224.145006520001	NA	1	0	4.57	1	213.507648718001	213.511516663002	"17"	17334.48727346	17332.336348431	1.5	0.1
0.01	1	0.0038832589998492	1	71	224.145006520001	NA	1	0	4.57	1	213.741304040002	213.745187299002	"17"	17334.48727346	17332.336348431	1.5	0.1
0.01	1	0.00350882100246963	1	71	224.145006520001	NA	1	0	4.57	1	213.974963500001	213.978472321003	"17"	17334.48727346	17332.336348431	1.5	0.1
0.01	1	0.00385174800248933	1	71	224.145006520001	NA	1	0	4.57	1	214.208694523	214.212546271003	"17"	17334.48727346	17332.336348431	1.5	0.1
0.01	1	0.00394333800068125	1	71	224.145006520001	NA	1	0	4.57	1	214.442468753001	214.446412091002	"17"	17334.48727346	17332.336348431	1.5	0.1
0.01	1	0.00377884800036554	1	71	224.145006520001	NA	1	0	4.57	1	214.676203205003	214.679982053003	"17"	17334.48727346	17332.336348431	1.5	0.1
0.01	1	0.00454756499675568	1	71	224.145006520001	NA	1	0	4.57	1	214.909973323003	214.914520888	"17"	17334.48727346	17332.336348431	1.5	0.1
0.01	1	0.00457775199902244	1	71	224.145006520001	NA	1	0	4.57	1	215.143627933001	215.148205685	"17"	17334.48727346	17332.336348431	1.5	0.1
0.01	1	0.00433139799861237	1	71	224.145006520001	NA	1	0	4.57	1	215.377332122003	215.381663520002	"17"	17334.48727346	17332.336348431	1.5	0.1
0.01	1	0.00384570400274242	1	71	224.145006520001	NA	1	0	4.57	1	215.611079823	215.614925527003	"17"	17334.48727346	17332.336348431	1.5	0.1
0.01	1	0.00455742700069095	1	71	224.145006520001	NA	1	0	4.57	1	215.844900443	215.849457870001	"17"	17334.48727346	17332.336348431	1.5	0.1
0.01	1	0.00325088200042956	1	71	224.145006520001	NA	1	0	4.57	1	216.078589251003	216.081840133003	"17"	17334.48727346	17332.336348431	1.5	0.1
0.01	1	0.00353304000236676	1	71	224.145006520001	NA	1	0	4.57	1	216.312277163001	216.315810203003	"17"	17334.48727346	17332.336348431	1.5	0.1
0.01	1	0.00379543899907731	1	71	224.145006520001	NA	1	0	4.57	1	216.546037748001	216.549833187	"17"	17334.48727346	17332.336348431	1.5	0.1
0.01	1	0.00457096999889472	1	71	224.145006520001	NA	1	0	4.57	1	216.779839410003	216.784410380002	"17"	17334.48727346	17332.336348431	1.5	0.1
0.01	1	0.00451862000045367	1	71	224.145006520001	NA	1	0	4.57	1	217.013493753002	217.018012373002	"17"	17334.48727346	17332.336348431	1.5	0.1
0.01	1	0.00330627299990738	1	71	224.145006520001	NA	1	0	4.57	1	217.247244908001	217.250551181001	"17"	17334.48727346	17332.336348431	1.5	0.1
0.01	1	0.00380367500110879	1	71	224.145006520001	NA	1	0	4.57	1	217.480971478002	217.484775153003	"17"	17334.48727346	17332.336348431	1.5	0.1
0.01	1	0.00364588799857302	1	71	224.145006520001	NA	1	0	4.57	1	217.714733313001	217.718379201	"17"	17334.48727346	17332.336348431	1.5	0.1
0.01	1	0.00388597599885543	1	71	224.145006520001	NA	1	0	4.57	1	217.948382153001	217.952268129	"17"	17334.48727346	17332.336348431	1.5	0.1
0.01	1	0.00434607100032736	1	71	224.145006520001	NA	1	0	4.57	1	218.182099472	218.186445543	"17"	17334.48727346	17332.336348431	1.5	0.1
0.01	1	0.0037304640027287	1	71	224.145006520001	NA	1	0	4.57	1	218.415734873	218.419465337003	"17"	17334.48727346	17332.336348431	1.5	0.1
0.01	1	0.00349391599957016	1	71	224.145006520001	NA	1	0	4.57	1	218.649545813001	218.653039729001	"17"	17334.48727346	17332.336348431	1.5	0.1
0.01	1	0.00456531199961319	1	71	224.145006520001	NA	1	0	4.57	1	218.883227008002	218.887792320002	"17"	17334.48727346	17332.336348431	1.5	0.1
0.01	1	0.00386000799699104	1	71	224.145006520001	NA	1	0	4.57	1	219.116964473003	219.120824481	"17"	17334.48727346	17332.336348431	1.5	0.1
0.01	1	0.00378650399943581	1	71	224.145006520001	NA	1	0	4.57	1	219.350786373001	219.354572877	"17"	17334.48727346	17332.336348431	1.5	0.1
0.01	1	0.00453139000092051	1	71	224.145006520001	NA	1	0	4.57	1	219.584416058002	219.588947448003	"17"	17334.48727346	17332.336348431	1.5	0.1
0.01	1	0.00448353400133783	1	71	224.145006520001	NA	1	0	4.57	1	219.818326919001	219.822810453003	"17"	17334.48727346	17332.336348431	1.5	0.1
0.01	1	0.00449403499806067	1	71	224.145006520001	NA	1	0	4.57	1	220.052009818002	220.056503853	"17"	17334.48727346	17332.336348431	1.5	0.1
0.01	1	0.00380186799884541	1	71	224.145006520001	NA	1	0	4.57	1	220.285692665002	220.289494533001	"17"	17334.48727346	17332.336348431	1.5	0.1
0.01	1	0.00341771500097821	1	71	224.145006520001	NA	1	0	4.57	1	220.519394538002	220.522812253002	"17"	17334.48727346	17332.336348431	1.5	0.1
0.01	1	0.0036071130016353	1	71	224.145006520001	NA	1	0	4.57	1	220.753123220002	220.756730333003	"17"	17334.48727346	17332.336348431	1.5	0.1
0.01	1	0.00454338000054122	1	71	224.145006520001	NA	1	0	4.57	1	220.986883043002	220.991426423003	"17"	17334.48727346	17332.336348431	1.5	0.1
0.01	1	0.00381393800125807	1	71	224.145006520001	NA	1	0	4.57	1	221.220585543	221.224399481001	"17"	17334.48727346	17332.336348431	1.5	0.1
0.01	1	0.00397194600009243	1	71	224.145006520001	NA	1	0	4.57	1	221.454240153002	221.458212099002	"17"	17334.48727346	17332.336348431	1.5	0.1
0.01	1	0.00389413199809496	1	71	224.145006520001	NA	1	0	4.57	1	221.687932175002	221.691826307	"17"	17334.48727346	17332.336348431	1.5	0.1
0.01	1	0.00362666699948022	1	71	224.145006520001	NA	1	0	4.57	1	221.921745578002	221.925372245001	"17"	17334.48727346	17332.336348431	1.5	0.1
0.01	1	0.00388817099883454	1	71	224.145006520001	NA	1	0	4.57	1	222.155425920002	222.159314091001	"17"	17334.48727346	17332.336348431	1.5	0.1
0.01	1	0.0038512510000146	1	71	224.145006520001	NA	1	0	4.57	1	222.389104068003	222.392955319003	"17"	17334.48727346	17332.336348431	1.5	0.1
0.01	1	0.00373539900101605	1	71	224.145006520001	NA	1	0	4.57	1	222.622909768001	222.626645167002	"17"	17334.48727346	17332.336348431	1.5	0.1
0.01	1	0.00393902100040577	1	71	224.145006520001	NA	1	0	4.57	1	222.856647208002	222.860586229002	"17"	17334.48727346	17332.336348431	1.5	0.1
0.01	1	0.0036011670017615	1	71	224.145006520001	NA	1	0	4.57	1	223.09034957	223.093950737002	"17"	17334.48727346	17332.336348431	1.5	0.1
0.01	1	0.00380875100017875	1	71	224.145006520001	NA	1	0	4.57	1	223.324061288	223.327870039	"17"	17334.48727346	17332.336348431	1.5	0.1
0.01	1	0.00390430600236868	1	71	224.145006520001	NA	1	0	4.57	1	223.557747265	223.561651571003	"17"	17334.48727346	17332.336348431	1.5	0.1
0.01	1	0.00368257499940228	1	71	224.145006520001	NA	1	0	4.57	1	223.791498310002	223.795180885001	"17"	17334.48727346	17332.336348431	1.5	0.1
0.01	1	0.00365017299918691	1	71	224.145006520001	NA	1	0	4.57	1	224.025264510001	224.028914683	"17"	17334.48727346	17332.336348431	1.5	0.1
0.01	1	0.100266435001686	1	96	NA	232.271954041003	0	0.25	4.82	1	226.178872433	226.279138868002	"18"	17334.48727346	17332.336348431	1.5	0.1
0.01	1	0.00363437399937538	1	96	NA	232.271954041003	0	0.25	4.82	1	226.512680723001	226.516315097	"18"	17334.48727346	17332.336348431	1.5	0.1
0.01	1	0.00385507700048038	1	96	NA	232.271954041003	0	0.25	4.82	1	226.746553320001	226.750408397002	"18"	17334.48727346	17332.336348431	1.5	0.1
0.01	1	0.00389111800177488	1	96	NA	232.271954041003	0	0.25	4.82	1	226.980296343001	226.984187461003	"18"	17334.48727346	17332.336348431	1.5	0.1
0.01	1	0.00456994500200381	1	96	NA	232.271954041003	0	0.25	4.82	1	227.214009118001	227.218579063003	"18"	17334.48727346	17332.336348431	1.5	0.1
0.01	1	0.00417354200180853	1	96	NA	232.271954041003	0	0.25	4.82	1	227.447744058001	227.451917600003	"18"	17334.48727346	17332.336348431	1.5	0.1
0.01	1	0.00383700300153578	1	96	NA	232.271954041003	0	0.25	4.82	1	227.681371130002	227.685208133003	"18"	17334.48727346	17332.336348431	1.5	0.1
0.01	1	0.00385589200232062	1	96	NA	232.271954041003	0	0.25	4.82	1	227.915106425	227.918962317002	"18"	17334.48727346	17332.336348431	1.5	0.1
0.01	1	0.00331954400098766	1	96	NA	232.271954041003	0	0.25	4.82	1	228.149000147001	228.152319691002	"18"	17334.48727346	17332.336348431	1.5	0.1
0.01	1	0.00384438100081752	1	96	NA	232.271954041003	0	0.25	4.82	1	228.382553668001	228.386398049002	"18"	17334.48727346	17332.336348431	1.5	0.1
0.01	1	0.00397014500049409	1	96	NA	232.271954041003	0	0.25	4.82	1	228.6163529	228.620323045001	"18"	17334.48727346	17332.336348431	1.5	0.1
0.01	1	0.00386172599974088	1	96	NA	232.271954041003	0	0.25	4.82	1	228.850113533001	228.853975259	"18"	17334.48727346	17332.336348431	1.5	0.1
0.01	1	0.00387020299967844	1	96	NA	232.271954041003	0	0.25	4.82	1	229.083834880003	229.087705083002	"18"	17334.48727346	17332.336348431	1.5	0.1
0.01	1	0.00300205800158437	1	96	NA	232.271954041003	0	0.25	4.82	1	229.317527997002	229.320530055003	"18"	17334.48727346	17332.336348431	1.5	0.1
0.01	1	0.00355681499786442	1	96	NA	232.271954041003	0	0.25	4.82	1	229.551228570002	229.554785385	"18"	17334.48727346	17332.336348431	1.5	0.1
0.01	1	0.00395488399954047	1	96	NA	232.271954041003	0	0.25	4.82	1	229.784942175003	229.788897059003	"18"	17334.48727346	17332.336348431	1.5	0.1
0.01	1	0.00389987299786299	1	96	NA	232.271954041003	0	0.25	4.82	1	230.018687310003	230.022587183001	"18"	17334.48727346	17332.336348431	1.5	0.1
0.01	1	0.0043273160008539	1	96	NA	232.271954041003	0	0.25	4.82	1	230.252360009003	230.256687325003	"18"	17334.48727346	17332.336348431	1.5	0.1
0.01	1	0.00365065499863704	1	96	NA	232.271954041003	0	0.25	4.82	1	230.486176378003	230.489827033001	"18"	17334.48727346	17332.336348431	1.5	0.1
0.01	1	0.00403295800060732	1	96	NA	232.271954041003	0	0.25	4.82	1	230.719899053001	230.723932011002	"18"	17334.48727346	17332.336348431	1.5	0.1
0.01	1	0.00380615699759801	1	96	NA	232.271954041003	0	0.25	4.82	1	230.953658338003	230.957464495001	"18"	17334.48727346	17332.336348431	1.5	0.1
0.01	1	0.00369778900130768	1	96	NA	232.271954041003	0	0.25	4.82	1	231.187299870002	231.190997659003	"18"	17334.48727346	17332.336348431	1.5	0.1
0.01	1	0.00438853500236291	1	96	NA	232.271954041003	0	0.25	4.82	1	231.421057265001	231.425445800003	"18"	17334.48727346	17332.336348431	1.5	0.1
0.01	1	0.00353086600080132	1	96	NA	232.271954041003	0	0.25	4.82	1	231.654726343	231.658257209001	"18"	17334.48727346	17332.336348431	1.5	0.1
0.01	1	0.00439282700244803	1	96	NA	232.271954041003	0	0.25	4.82	1	231.888628908	231.893021735003	"18"	17334.48727346	17332.336348431	1.5	0.1
0.01	1	0.14808965300108	2	96	NA	232.271954041003	0	0.25	4.82	1	232.122257225001	232.270346878002	"18"	17334.48727346	17332.336348431	1.5	0.1
0.01	1	0.113213543998427	1	91	NA	246.135079252002	0	0.45	5.27	1	234.325874025002	234.439087569001	"19"	17334.48727346	17332.336348431	1.5	0.1
0.01	1	0.00208649500200409	1	91	NA	246.135079252002	0	0.45	5.27	1	234.676533193	234.678619688002	"19"	17334.48727346	17332.336348431	1.5	0.1
0.01	1	0.00249217600139673	1	91	NA	246.135079252002	0	0.45	5.27	1	234.910236747	234.912728923002	"19"	17334.48727346	17332.336348431	1.5	0.1
0.01	1	0.00369136299923412	1	91	NA	246.135079252002	0	0.45	5.27	1	235.143882020002	235.147573383001	"19"	17334.48727346	17332.336348431	1.5	0.1
0.01	1	0.0137298839981668	1	91	NA	246.135079252002	0	0.45	5.27	1	235.377699953002	235.391429837	"19"	17334.48727346	17332.336348431	1.5	0.1
0.01	1	0.00394427300125244	1	91	NA	246.135079252002	0	0.45	5.27	1	235.628033338002	235.631977611003	"19"	17334.48727346	17332.336348431	1.5	0.1
0.01	1	0.0169510670020827	1	91	NA	246.135079252002	0	0.45	5.27	1	235.861823830001	235.878774897003	"19"	17334.48727346	17332.336348431	1.5	0.1
0.01	1	0.0142959670010896	1	91	NA	246.135079252002	0	0.45	5.27	1	236.112231878	236.126527845001	"19"	17334.48727346	17332.336348431	1.5	0.1
0.01	1	0.0122056469990639	1	91	NA	246.135079252002	0	0.45	5.27	1	236.362677759003	236.374883406002	"19"	17334.48727346	17332.336348431	1.5	0.1
0.01	1	0.00218970400237595	1	91	NA	246.135079252002	0	0.45	5.27	1	236.613004487001	236.615194191003	"19"	17334.48727346	17332.336348431	1.5	0.1
0.01	1	0.00369174300067243	1	91	NA	246.135079252002	0	0.45	5.27	1	236.846728458	236.850420201001	"19"	17334.48727346	17332.336348431	1.5	0.1
0.01	1	0.00265891500021098	1	91	NA	246.135079252002	0	0.45	5.27	1	237.080515907001	237.083174822001	"19"	17334.48727346	17332.336348431	1.5	0.1
0.01	1	0.00239912800316233	1	91	NA	246.135079252002	0	0.45	5.27	1	237.314273549	237.316672677003	"19"	17334.48727346	17332.336348431	1.5	0.1
0.01	1	0.00198631799867144	1	91	NA	246.135079252002	0	0.45	5.27	1	237.547942648001	237.549928966	"19"	17334.48727346	17332.336348431	1.5	0.1
0.01	1	0.00206194700149354	1	91	NA	246.135079252002	0	0.45	5.27	1	237.781664883001	237.783726830003	"19"	17334.48727346	17332.336348431	1.5	0.1
0.01	1	0.00262808199840947	1	91	NA	246.135079252002	0	0.45	5.27	1	238.015459371003	238.018087453001	"19"	17334.48727346	17332.336348431	1.5	0.1
0.01	1	0.00216488499791012	1	91	NA	246.135079252002	0	0.45	5.27	1	238.249267500003	238.251432385001	"19"	17334.48727346	17332.336348431	1.5	0.1
0.01	1	0.00209978699786006	1	91	NA	246.135079252002	0	0.45	5.27	1	238.482907692003	238.485007479001	"19"	17334.48727346	17332.336348431	1.5	0.1
0.01	1	0.00272542099992279	1	91	NA	246.135079252002	0	0.45	5.27	1	238.716615257003	238.719340678002	"19"	17334.48727346	17332.336348431	1.5	0.1
0.01	1	0.0319964440022886	1	91	NA	246.135079252002	0	0.45	5.27	1	238.950439993001	238.982436437003	"19"	17334.48727346	17332.336348431	1.5	0.1
0.01	1	0.00712549099989701	1	91	NA	246.135079252002	0	0.45	5.27	1	239.217386310003	239.224511801003	"19"	17334.48727346	17332.336348431	1.5	0.1
0.01	1	0.0126397219974024	1	91	NA	246.135079252002	0	0.45	5.27	1	239.451196585003	239.463836307001	"19"	17334.48727346	17332.336348431	1.5	0.1
0.01	1	0.0104675430011412	1	91	NA	246.135079252002	0	0.45	5.27	1	239.701590246001	239.712057789002	"19"	17334.48727346	17332.336348431	1.5	0.1
0.01	1	0.0161237329994037	1	91	NA	246.135079252002	0	0.45	5.27	1	239.935362970002	239.951486703001	"19"	17334.48727346	17332.336348431	1.5	0.1
0.01	1	0.00317760599864414	1	91	NA	246.135079252002	0	0.45	5.27	1	240.185766523002	240.188944129	"19"	17334.48727346	17332.336348431	1.5	0.1
0.01	1	0.00461191499925917	1	91	NA	246.135079252002	0	0.45	5.27	1	240.419514683002	240.424126598002	"19"	17334.48727346	17332.336348431	1.5	0.1
0.01	1	0.00241561800066847	1	91	NA	246.135079252002	0	0.45	5.27	1	240.653218997002	240.655634615003	"19"	17334.48727346	17332.336348431	1.5	0.1
0.01	1	0.00452650700026425	1	91	NA	246.135079252002	0	0.45	5.27	1	240.886979413001	240.891505920001	"19"	17334.48727346	17332.336348431	1.5	0.1
0.01	1	0.0023692819995631	1	91	NA	246.135079252002	0	0.45	5.27	1	241.120674817001	241.123044099	"19"	17334.48727346	17332.336348431	1.5	0.1
0.01	1	0.00231162500131177	1	91	NA	246.135079252002	0	0.45	5.27	1	241.354428947001	241.356740572002	"19"	17334.48727346	17332.336348431	1.5	0.1
0.01	1	0.00238497100144741	1	91	NA	246.135079252002	0	0.45	5.27	1	241.588156147001	241.590541118003	"19"	17334.48727346	17332.336348431	1.5	0.1
0.01	1	0.00227348599946708	1	91	NA	246.135079252002	0	0.45	5.27	1	241.821932377003	241.824205863002	"19"	17334.48727346	17332.336348431	1.5	0.1
0.01	1	0.00354709199746139	1	91	NA	246.135079252002	0	0.45	5.27	1	242.055581063003	242.059128155001	"19"	17334.48727346	17332.336348431	1.5	0.1
0.01	1	0.00332191800043802	1	91	NA	246.135079252002	0	0.45	5.27	1	242.289207951002	242.292529869002	"19"	17334.48727346	17332.336348431	1.5	0.1
0.01	1	0.00387282100200537	1	91	NA	246.135079252002	0	0.45	5.27	1	242.523030150001	242.526902971003	"19"	17334.48727346	17332.336348431	1.5	0.1
0.01	1	0.0039602830001968	1	91	NA	246.135079252002	0	0.45	5.27	1	242.756624760001	242.760585043001	"19"	17334.48727346	17332.336348431	1.5	0.1
0.01	1	0.00950435800041305	1	91	NA	246.135079252002	0	0.45	5.27	1	242.99063955	243.000143908001	"19"	17334.48727346	17332.336348431	1.5	0.1
0.01	1	0.00787531899914029	1	91	NA	246.135079252002	0	0.45	5.27	1	243.224208612002	243.232083931001	"19"	17334.48727346	17332.336348431	1.5	0.1
0.01	1	0.007108548998076	1	91	NA	246.135079252002	0	0.45	5.27	1	243.457872170002	243.464980719	"19"	17334.48727346	17332.336348431	1.5	0.1
0.01	1	0.018282184999407	1	91	NA	246.135079252002	0	0.45	5.27	1	243.691757578003	243.710039763002	"19"	17334.48727346	17332.336348431	1.5	0.1
0.01	1	0.00247557500188123	1	91	NA	246.135079252002	0	0.45	5.27	1	243.942057819	243.944533394002	"19"	17334.48727346	17332.336348431	1.5	0.1
0.01	1	0.00387175600189948	1	91	NA	246.135079252002	0	0.45	5.27	1	244.175773183	244.179644939002	"19"	17334.48727346	17332.336348431	1.5	0.1
0.01	1	0.00392668300264631	1	91	NA	246.135079252002	0	0.45	5.27	1	244.409516828	244.413443511003	"19"	17334.48727346	17332.336348431	1.5	0.1
0.01	1	0.187722360999032	1	91	NA	246.135079252002	0	0.45	5.27	1	244.643358607002	244.831080968001	"19"	17334.48727346	17332.336348431	1.5	0.1
0.01	1	0.00320051399830845	1	91	NA	246.135079252002	0	0.45	5.27	1	245.060589159002	245.063789673	"19"	17334.48727346	17332.336348431	1.5	0.1
0.01	1	0.839177994999773	2	91	NA	246.135079252002	0	0.45	5.27	1	245.294370848002	246.133548843001	"19"	17334.48727346	17332.336348431	1.5	0.1
0.01	1	0.00447673699818552	1	5	249.471153968003	NA	1	0	5.27	1	248.182568433003	248.187045170002	"20"	17334.48727346	17332.336348431	1.5	0.1
0.01	1	0.0621630160021596	1	5	249.471153968003	NA	1	0	5.27	1	248.416307862	248.478470878003	"20"	17334.48727346	17332.336348431	1.5	0.1
0.01	1	0.105839250998542	1	5	249.471153968003	NA	1	0	5.27	1	248.716715080001	248.822554331	"20"	17334.48727346	17332.336348431	1.5	0.1
0.01	1	0.0276562409999315	1	5	249.471153968003	NA	1	0	5.27	1	249.050661438003	249.078317679003	"20"	17334.48727346	17332.336348431	1.5	0.1
0.01	1	0.0580270639984519	1	5	249.471153968003	NA	1	0	5.27	1	249.301097933003	249.359124997001	"20"	17334.48727346	17332.336348431	1.5	0.1
0.01	1	0.342520255999261	1	123	NA	264.559356768001	0	0.34	5.61	1	251.504761553002	251.847281809001	"21"	17334.48727346	17332.336348431	1.5	0.1
0.01	1	0.0938817429996561	1	123	NA	264.559356768001	0	0.34	5.61	1	252.072508778001	252.166390521001	"21"	17334.48727346	17332.336348431	1.5	0.1
0.01	1	0.0731009739974979	1	123	NA	264.559356768001	0	0.34	5.61	1	252.406266528003	252.479367502001	"21"	17334.48727346	17332.336348431	1.5	0.1
0.01	1	0.122717379999813	1	123	NA	264.559356768001	0	0.34	5.61	1	252.706799520001	252.829516900001	"21"	17334.48727346	17332.336348431	1.5	0.1
0.01	1	0.108685078001145	1	123	NA	264.559356768001	0	0.34	5.61	1	253.057479133	253.166164211001	"21"	17334.48727346	17332.336348431	1.5	0.1
0.01	1	0.0786048549998668	1	123	NA	264.559356768001	0	0.34	5.61	1	253.391232982001	253.469837837001	"21"	17334.48727346	17332.336348431	1.5	0.1
0.01	1	0.0661445160003495	1	123	NA	264.559356768001	0	0.34	5.61	1	253.691796995001	253.757941511001	"21"	17334.48727346	17332.336348431	1.5	0.1
0.01	1	0.0711836440023035	1	123	NA	264.559356768001	0	0.34	5.61	1	253.992379708001	254.063563352003	"21"	17334.48727346	17332.336348431	1.5	0.1
0.01	1	0.0823701019980945	1	123	NA	264.559356768001	0	0.34	5.61	1	254.293034738002	254.375404840001	"21"	17334.48727346	17332.336348431	1.5	0.1
0.01	1	0.093380520997016	1	123	NA	264.559356768001	0	0.34	5.61	1	254.610002045003	254.703382566	"21"	17334.48727346	17332.336348431	1.5	0.1
0.01	1	0.0544760830016457	1	123	NA	264.559356768001	0	0.34	5.61	1	254.927230460002	254.981706543003	"21"	17334.48727346	17332.336348431	1.5	0.1
0.01	1	0.124166838999372	1	123	NA	264.559356768001	0	0.34	5.61	1	255.211090320001	255.335257159	"21"	17334.48727346	17332.336348431	1.5	0.1
0.01	1	0.0935950429993682	1	123	NA	264.559356768001	0	0.34	5.61	1	255.561700918002	255.655295961002	"21"	17334.48727346	17332.336348431	1.5	0.1
0.01	1	0.134826634999627	1	123	NA	264.559356768001	0	0.34	5.61	1	255.878827730001	256.013654365001	"21"	17334.48727346	17332.336348431	1.5	0.1
0.01	1	0.111374878000788	1	123	NA	264.559356768001	0	0.34	5.61	1	256.246072253001	256.357447131002	"21"	17334.48727346	17332.336348431	1.5	0.1
0.01	1	0.217862023000635	1	123	NA	264.559356768001	0	0.34	5.61	1	256.579986340003	256.797848363003	"21"	17334.48727346	17332.336348431	1.5	0.1
0.01	1	0.160538097999961	1	123	NA	264.559356768001	0	0.34	5.61	1	257.030824208003	257.191362306003	"21"	17334.48727346	17332.336348431	1.5	0.1
0.01	1	0.143779961999826	1	123	NA	264.559356768001	0	0.34	5.61	1	257.414687819	257.558467781	"21"	17334.48727346	17332.336348431	1.5	0.1
0.01	1	0.16939372500201	1	123	NA	264.559356768001	0	0.34	5.61	1	257.782019913	257.951413638002	"21"	17334.48727346	17332.336348431	1.5	0.1
0.01	1	0.134691156999907	1	123	NA	264.559356768001	0	0.34	5.61	1	258.182697348002	258.317388505002	"21"	17334.48727346	17332.336348431	1.5	0.1
0.01	1	0.160944849998486	1	123	NA	264.559356768001	0	0.34	5.61	1	258.549903213003	258.710848063001	"21"	17334.48727346	17332.336348431	1.5	0.1
0.01	1	0.167961219998688	1	123	NA	264.559356768001	0	0.34	5.61	1	258.933991852002	259.101953072	"21"	17334.48727346	17332.336348431	1.5	0.1
0.01	1	0.176507675001631	1	123	NA	264.559356768001	0	0.34	5.61	1	259.334753323001	259.511260998002	"21"	17334.48727346	17332.336348431	1.5	0.1
0.01	1	0.239628824998363	1	123	NA	264.559356768001	0	0.34	5.61	1	259.735249633002	259.974878458001	"21"	17334.48727346	17332.336348431	1.5	0.1
0.01	1	0.204107777997706	1	123	NA	264.559356768001	0	0.34	5.61	1	260.202839496003	260.406947274001	"21"	17334.48727346	17332.336348431	1.5	0.1
0.01	1	0.170556167999166	1	123	NA	264.559356768001	0	0.34	5.61	1	260.636824520003	260.807380688002	"21"	17334.48727346	17332.336348431	1.5	0.1
0.01	1	0.151992813000106	1	123	NA	264.559356768001	0	0.34	5.61	1	261.037509338003	261.189502151003	"21"	17334.48727346	17332.336348431	1.5	0.1
0.01	1	0.200431212997501	1	123	NA	264.559356768001	0	0.34	5.61	1	261.421420068003	261.621851281001	"21"	17334.48727346	17332.336348431	1.5	0.1
0.01	1	0.167745995000587	1	123	NA	264.559356768001	0	0.34	5.61	1	261.855576983002	262.023322978002	"21"	17334.48727346	17332.336348431	1.5	0.1
0.01	1	0.174514135997015	1	123	NA	264.559356768001	0	0.34	5.61	1	262.256252598003	262.430766734	"21"	17334.48727346	17332.336348431	1.5	0.1
0.01	1	0.174139933002152	1	123	NA	264.559356768001	0	0.34	5.61	1	262.656890408001	262.831030341003	"21"	17334.48727346	17332.336348431	1.5	0.1
0.01	1	0.188950881998608	1	123	NA	264.559356768001	0	0.34	5.61	1	263.057576098003	263.246526980001	"21"	17334.48727346	17332.336348431	1.5	0.1
0.01	1	0.179293568999128	1	123	NA	264.559356768001	0	0.34	5.61	1	263.474966780002	263.654260349002	"21"	17334.48727346	17332.336348431	1.5	0.1
0.01	1	0.193636397998489	1	123	NA	264.559356768001	0	0.34	5.61	1	263.892286600003	264.085922998001	"21"	17334.48727346	17332.336348431	1.5	0.1
0.01	1	0.231515176998073	2	123	NA	264.559356768001	0	0.34	5.61	1	264.326313765003	264.557828942001	"21"	17334.48727346	17332.336348431	1.5	0.1
0.01	1	0.0490821300008975	1	81	NA	279.679132377001	0	0.48	6.09	1	266.596827117002	266.645909247003	"22"	17334.48727346	17332.336348431	1.5	0.1
0.01	1	0.00210466100179474	1	81	NA	279.679132377001	0	0.48	6.09	1	266.880654034001	266.882758695003	"22"	17334.48727346	17332.336348431	1.5	0.1
0.01	1	0.00383821799914585	1	81	NA	279.679132377001	0	0.48	6.09	1	267.114331525001	267.118169743	"22"	17334.48727346	17332.336348431	1.5	0.1
0.01	1	0.106314856002427	1	81	NA	279.679132377001	0	0.48	6.09	1	267.348125943001	267.454440799003	"22"	17334.48727346	17332.336348431	1.5	0.1
0.01	1	0.00449344200023916	1	81	NA	279.679132377001	0	0.48	6.09	1	267.682032358003	267.686525800003	"22"	17334.48727346	17332.336348431	1.5	0.1
