"payoff.level"	"balloon"	"rt"	"resp"	"explode.trial"	"explode.time"	"finish.time"	"exploded"	"trial.total"	"cumulative.total"	"finished"	"trial.start"	"trial.end"	"trial.num"	"secs"	"start.time"	"iti"	"isi"
0.01	1	2.27882004699859	NA	64	NA	2.42186788799881	0	0	0	1	0.0133869880010025	2.29220703499959	"1"	30483.556887604	30481.134515886	1.5	0.1
0.01	1	1.29860627200105	NA	102	NA	5.77141328200014	0	0	0	1	4.47091357799945	5.76951985000051	"2"	30483.556887604	30481.134515886	1.5	0.1
0.01	1	0.326290575001622	NA	97	NA	8.154522042998	0	0	0	1	7.82655291799892	8.15284349300055	"3"	30483.556887604	30481.134515886	1.5	0.1
0.01	1	3.05555680199905	NA	51	NA	13.2710494329986	0	0	0	1	10.2139623129988	13.2695191149978	"4"	30483.556887604	30481.134515886	1.5	0.1
0.01	1	14.8795550899995	1	116	NA	74.8745189330002	0	0.09	0.09	1	15.3224984029985	30.2020534929979	"5"	30483.556887604	30481.134515886	1.5	0.1
0.01	1	0.465547237999999	1	116	NA	74.8745189330002	0	0.09	0.09	1	30.4312417309993	30.8967889689993	"5"	30483.556887604	30481.134515886	1.5	0.1
0.01	1	30.8216760779978	1	116	NA	74.8745189330002	0	0.09	0.09	1	31.1323859479999	61.9540620259977	"5"	30483.556887604	30481.134515886	1.5	0.1
0.01	1	0.608838994998223	1	116	NA	74.8745189330002	0	0.09	0.09	1	62.1847122649997	62.7935512599979	"5"	30483.556887604	30481.134515886	1.5	0.1
0.01	1	0.990319867996732	1	116	NA	74.8745189330002	0	0.09	0.09	1	63.019412048001	64.0097319159977	"5"	30483.556887604	30481.134515886	1.5	0.1
0.01	1	1.53154840900243	1	116	NA	74.8745189330002	0	0.09	0.09	1	64.2382243049979	65.7697727140003	"5"	30483.556887604	30481.134515886	1.5	0.1
0.01	1	1.04988236499776	1	116	NA	74.8745189330002	0	0.09	0.09	1	66.0078621350003	67.0577444999981	"5"	30483.556887604	30481.134515886	1.5	0.1
0.01	1	0.429824759001349	1	116	NA	74.8745189330002	0	0.09	0.09	1	67.2932771849992	67.7231019440005	"5"	30483.556887604	30481.134515886	1.5	0.1
0.01	1	0.353055694999057	1	116	NA	74.8745189330002	0	0.09	0.09	1	67.9610958880003	68.3141515829993	"5"	30483.556887604	30481.134515886	1.5	0.1
0.01	1	6.32749953299935	2	116	NA	74.8745189330002	0	0.09	0.09	1	68.5453234529996	74.8728229859989	"5"	30483.556887604	30481.134515886	1.5	0.1
0.01	1	1.2119216760002	1	118	NA	84.9885156060009	0	0.1	0.19	1	76.9261847179987	78.1381063939989	"6"	30483.556887604	30481.134515886	1.5	0.1
0.01	1	0.375908475001779	1	118	NA	84.9885156060009	0	0.1	0.19	1	78.3785527379987	78.7544612130005	"6"	30483.556887604	30481.134515886	1.5	0.1
0.01	1	0.350950364998425	1	118	NA	84.9885156060009	0	0.1	0.19	1	78.9796034030005	79.3305537679989	"6"	30483.556887604	30481.134515886	1.5	0.1
0.01	1	0.534393392998027	1	118	NA	84.9885156060009	0	0.1	0.19	1	79.5638706530008	80.0982640459988	"6"	30483.556887604	30481.134515886	1.5	0.1
0.01	1	0.487050897998415	1	118	NA	84.9885156060009	0	0.1	0.19	1	80.3319070350008	80.8189579329992	"6"	30483.556887604	30481.134515886	1.5	0.1
0.01	1	0.416898334002326	1	118	NA	84.9885156060009	0	0.1	0.19	1	81.0497928779987	81.466691212001	"6"	30483.556887604	30481.134515886	1.5	0.1
0.01	1	0.372466111002723	1	118	NA	84.9885156060009	0	0.1	0.19	1	81.7009292529983	82.073395364001	"6"	30483.556887604	30481.134515886	1.5	0.1
0.01	1	0.324527919001412	1	118	NA	84.9885156060009	0	0.1	0.19	1	82.3018657229986	82.626393642	"6"	30483.556887604	30481.134515886	1.5	0.1
0.01	1	0.316323166000075	1	118	NA	84.9885156060009	0	0.1	0.19	1	82.8527708229994	83.1690939889995	"6"	30483.556887604	30481.134515886	1.5	0.1
0.01	1	0.41452269599904	1	118	NA	84.9885156060009	0	0.1	0.19	1	83.4037843199985	83.8183070159976	"6"	30483.556887604	30481.134515886	1.5	0.1
0.01	1	0.931974443999934	2	118	NA	84.9885156060009	0	0.1	0.19	1	84.0548466479995	84.9868210919994	"6"	30483.556887604	30481.134515886	1.5	0.1
0.01	1	0.99096663799719	1	87	NA	96.4029659759981	0	0.12	0.31	1	87.0431494580007	88.0341160959979	"7"	30483.556887604	30481.134515886	1.5	0.1
0.01	1	0.348080846000812	1	87	NA	96.4029659759981	0	0.12	0.31	1	88.2618423309978	88.6099231769986	"7"	30483.556887604	30481.134515886	1.5	0.1
0.01	1	0.380637563001073	1	87	NA	96.4029659759981	0	0.12	0.31	1	88.8462413649977	89.2268789279988	"7"	30483.556887604	30481.134515886	1.5	0.1
0.01	1	0.402390169998398	1	87	NA	96.4029659759981	0	0.12	0.31	1	89.4639366980009	89.8663268679993	"7"	30483.556887604	30481.134515886	1.5	0.1
0.01	1	0.359329998998874	1	87	NA	96.4029659759981	0	0.12	0.31	1	90.0983481059993	90.4576781049982	"7"	30483.556887604	30481.134515886	1.5	0.1
0.01	1	0.431579659001727	1	87	NA	96.4029659759981	0	0.12	0.31	1	90.6827116629975	91.1142913219992	"7"	30483.556887604	30481.134515886	1.5	0.1
0.01	1	0.50826271799815	1	87	NA	96.4029659759981	0	0.12	0.31	1	91.3504701679994	91.8587328859976	"7"	30483.556887604	30481.134515886	1.5	0.1
0.01	1	0.572777760000463	1	87	NA	96.4029659759981	0	0.12	0.31	1	92.0850562880005	92.657834048001	"7"	30483.556887604	30481.134515886	1.5	0.1
0.01	1	0.547552284999256	1	87	NA	96.4029659759981	0	0.12	0.31	1	92.8864185249986	93.4339708099978	"7"	30483.556887604	30481.134515886	1.5	0.1
0.01	1	0.602957408998918	1	87	NA	96.4029659759981	0	0.12	0.31	1	93.6710363530001	94.273993761999	"7"	30483.556887604	30481.134515886	1.5	0.1
0.01	1	0.535495126998285	1	87	NA	96.4029659759981	0	0.12	0.31	1	94.5057893230005	95.0412844499988	"7"	30483.556887604	30481.134515886	1.5	0.1
0.01	1	0.424995919001958	1	87	NA	96.4029659759981	0	0.12	0.31	1	95.2736796479985	95.6986755670005	"7"	30483.556887604	30481.134515886	1.5	0.1
0.01	1	0.476521575001243	2	87	NA	96.4029659759981	0	0.12	0.31	1	95.9247480279992	96.4012696030004	"7"	30483.556887604	30481.134515886	1.5	0.1
0.01	1	0.853381796998292	1	6	102.789583138001	NA	1	0	0.31	1	98.4456920080011	99.2990738049994	"8"	30483.556887604	30481.134515886	1.5	0.1
0.01	1	0.406585573000484	1	6	102.789583138001	NA	1	0	0.31	1	99.5309235729983	99.9375091459988	"8"	30483.556887604	30481.134515886	1.5	0.1
0.01	1	0.388096897997457	1	6	102.789583138001	NA	1	0	0.31	1	100.165262800001	100.553359697999	"8"	30483.556887604	30481.134515886	1.5	0.1
0.01	1	0.530459735000477	1	6	102.789583138001	NA	1	0	0.31	1	100.782960444998	101.313420179999	"8"	30483.556887604	30481.134515886	1.5	0.1
0.01	1	0.450964596999256	1	6	102.789583138001	NA	1	0	0.31	1	101.550962398	102.001926994999	"8"	30483.556887604	30481.134515886	1.5	0.1
0.01	1	0.430445679001423	1	6	102.789583138001	NA	1	0	0.31	1	102.235480774998	102.665926453999	"8"	30483.556887604	30481.134515886	1.5	0.1
0.01	1	0.873274667999794	1	106	NA	117.115969481998	0	0.11	0.42	1	104.839764632998	105.713039300997	"9"	30483.556887604	30481.134515886	1.5	0.1
0.01	1	0.340001666998432	1	106	NA	117.115969481998	0	0.11	0.42	1	105.941667068	106.281668734999	"9"	30483.556887604	30481.134515886	1.5	0.1
0.01	1	0.403955633002624	1	106	NA	117.115969481998	0	0.11	0.42	1	106.509334842998	106.913290476001	"9"	30483.556887604	30481.134515886	1.5	0.1
0.01	1	0.379196804002277	1	106	NA	117.115969481998	0	0.11	0.42	1	107.143756942998	107.522953747	"9"	30483.556887604	30481.134515886	1.5	0.1
0.01	1	0.440740989000915	1	106	NA	117.115969481998	0	0.11	0.42	1	107.761386737999	108.202127727	"9"	30483.556887604	30481.134515886	1.5	0.1
0.01	1	0.837423060002038	1	106	NA	117.115969481998	0	0.11	0.42	1	108.429099132998	109.266522193	"9"	30483.556887604	30481.134515886	1.5	0.1
0.01	1	1.51940001500043	1	106	NA	117.115969481998	0	0.11	0.42	1	109.497664348	111.017064363001	"9"	30483.556887604	30481.134515886	1.5	0.1
0.01	1	1.49509019700054	1	106	NA	117.115969481998	0	0.11	0.42	1	111.25062164	112.745711837	"9"	30483.556887604	30481.134515886	1.5	0.1
0.01	1	0.655019075999007	1	106	NA	117.115969481998	0	0.11	0.42	1	112.970212583001	113.625231659	"9"	30483.556887604	30481.134515886	1.5	0.1
0.01	1	0.563348510000651	1	106	NA	117.115969481998	0	0.11	0.42	1	113.855051478	114.418399988001	"9"	30483.556887604	30481.134515886	1.5	0.1
0.01	1	0.961702649001381	1	106	NA	117.115969481998	0	0.11	0.42	1	114.656334623	115.618037272001	"9"	30483.556887604	30481.134515886	1.5	0.1
0.01	1	1.27256743999897	2	106	NA	117.115969481998	0	0.11	0.42	1	115.841710979999	117.114278419998	"9"	30483.556887604	30481.134515886	1.5	0.1
0.01	1	3.05491850700128	1	21	NA	137.325019086999	0	0.2	0.62	1	119.163892678	122.218811185001	"10"	30483.556887604	30481.134515886	1.5	0.1
0.01	1	0.429042945001129	1	21	NA	137.325019086999	0	0.2	0.62	1	122.452811579999	122.881854525	"10"	30483.556887604	30481.134515886	1.5	0.1
0.01	1	0.498768677000044	1	21	NA	137.325019086999	0	0.2	0.62	1	123.120560208001	123.619328885001	"10"	30483.556887604	30481.134515886	1.5	0.1
0.01	1	0.540222775001894	1	21	NA	137.325019086999	0	0.2	0.62	1	123.855131452998	124.395354228	"10"	30483.556887604	30481.134515886	1.5	0.1
0.01	1	0.564430959002493	1	21	NA	137.325019086999	0	0.2	0.62	1	124.622988234998	125.187419194001	"10"	30483.556887604	30481.134515886	1.5	0.1
0.01	1	0.545683854001254	1	21	NA	137.325019086999	0	0.2	0.62	1	125.424427277998	125.970111131999	"10"	30483.556887604	30481.134515886	1.5	0.1
0.01	1	0.521862337998755	1	21	NA	137.325019086999	0	0.2	0.62	1	126.192400382999	126.714262720998	"10"	30483.556887604	30481.134515886	1.5	0.1
0.01	1	0.546808656999929	1	21	NA	137.325019086999	0	0.2	0.62	1	126.943617779998	127.490426436998	"10"	30483.556887604	30481.134515886	1.5	0.1
0.01	1	0.555105661002017	1	21	NA	137.325019086999	0	0.2	0.62	1	127.728307082998	128.283412744	"10"	30483.556887604	30481.134515886	1.5	0.1
0.01	1	0.553573170000163	1	21	NA	137.325019086999	0	0.2	0.62	1	128.512901503	129.066474673	"10"	30483.556887604	30481.134515886	1.5	0.1
0.01	1	0.601898226002959	1	21	NA	137.325019086999	0	0.2	0.62	1	129.297716697998	129.899614924001	"10"	30483.556887604	30481.134515886	1.5	0.1
0.01	1	0.565411843999755	1	21	NA	137.325019086999	0	0.2	0.62	1	130.132341562999	130.697753406999	"10"	30483.556887604	30481.134515886	1.5	0.1
0.01	1	0.525894918999256	1	21	NA	137.325019086999	0	0.2	0.62	1	130.933657670001	131.459552589	"10"	30483.556887604	30481.134515886	1.5	0.1
0.01	1	0.468791167997551	1	21	NA	137.325019086999	0	0.2	0.62	1	131.684977498	132.153768665998	"10"	30483.556887604	30481.134515886	1.5	0.1
0.01	1	0.513290438000695	1	21	NA	137.325019086999	0	0.2	0.62	1	132.386082375	132.899372813001	"10"	30483.556887604	30481.134515886	1.5	0.1
0.01	1	0.464370240999415	1	21	NA	137.325019086999	0	0.2	0.62	1	133.137439126	133.601809366999	"10"	30483.556887604	30481.134515886	1.5	0.1
0.01	1	0.435684399999445	1	21	NA	137.325019086999	0	0.2	0.62	1	133.838586275	134.274270675	"10"	30483.556887604	30481.134515886	1.5	0.1
0.01	1	0.45591043999957	1	21	NA	137.325019086999	0	0.2	0.62	1	134.506425983	134.962336422999	"10"	30483.556887604	30481.134515886	1.5	0.1
0.01	1	0.427551141001459	1	21	NA	137.325019086999	0	0.2	0.62	1	135.190889392998	135.618440533999	"10"	30483.556887604	30481.134515886	1.5	0.1
0.01	1	0.441242434000742	1	21	NA	137.325019086999	0	0.2	0.62	1	135.841893412999	136.283135846999	"10"	30483.556887604	30481.134515886	1.5	0.1
0.01	1	0.813484800997685	2	21	NA	137.325019086999	0	0.2	0.62	1	136.509816203001	137.323301003998	"10"	30483.556887604	30481.134515886	1.5	0.1
0.01	1	0.718125198000052	1	19	152.322774493001	NA	1	0	0.62	1	139.381254137999	140.099379335999	"11"	30483.556887604	30481.134515886	1.5	0.1
0.01	1	0.446502509999846	1	19	152.322774493001	NA	1	0	0.62	1	140.332767012998	140.779269522998	"11"	30483.556887604	30481.134515886	1.5	0.1
0.01	1	0.385011185000621	1	19	152.322774493001	NA	1	0	0.62	1	141.017396292998	141.402407477999	"11"	30483.556887604	30481.134515886	1.5	0.1
0.01	1	0.446749198999896	1	19	152.322774493001	NA	1	0	0.62	1	141.635081453998	142.081830652998	"11"	30483.556887604	30481.134515886	1.5	0.1
0.01	1	0.459752269998717	1	19	152.322774493001	NA	1	0	0.62	1	142.319498948	142.779251217999	"11"	30483.556887604	30481.134515886	1.5	0.1
0.01	1	0.510248521000904	1	19	152.322774493001	NA	1	0	0.62	1	143.004028544998	143.514277065999	"11"	30483.556887604	30481.134515886	1.5	0.1
0.01	1	0.415931450999778	1	19	152.322774493001	NA	1	0	0.62	1	143.755257542998	144.171188993998	"11"	30483.556887604	30481.134515886	1.5	0.1
0.01	1	0.48406458199679	1	19	152.322774493001	NA	1	0	0.62	1	144.406345290001	144.890409871998	"11"	30483.556887604	30481.134515886	1.5	0.1
0.01	1	0.446911099999852	1	19	152.322774493001	NA	1	0	0.62	1	145.124282402998	145.571193502998	"11"	30483.556887604	30481.134515886	1.5	0.1
0.01	1	0.458697140998993	1	19	152.322774493001	NA	1	0	0.62	1	145.808696286	146.267393426999	"11"	30483.556887604	30481.134515886	1.5	0.1
0.01	1	0.413719774001947	1	19	152.322774493001	NA	1	0	0.62	1	146.493143732998	146.906863507	"11"	30483.556887604	30481.134515886	1.5	0.1
0.01	1	0.450324248002289	1	19	152.322774493001	NA	1	0	0.62	1	147.144285597999	147.594609846001	"11"	30483.556887604	30481.134515886	1.5	0.1
0.01	1	0.413260029999947	1	19	152.322774493001	NA	1	0	0.62	1	147.828775747999	148.242035777999	"11"	30483.556887604	30481.134515886	1.5	0.1
0.01	1	0.442118142000254	1	19	152.322774493001	NA	1	0	0.62	1	148.479813168	148.92193131	"11"	30483.556887604	30481.134515886	1.5	0.1
0.01	1	0.463554967998789	1	19	152.322774493001	NA	1	0	0.62	1	149.147703574999	149.611258542998	"11"	30483.556887604	30481.134515886	1.5	0.1
0.01	1	0.458492660000047	1	19	152.322774493001	NA	1	0	0.62	1	149.848880467998	150.307373127998	"11"	30483.556887604	30481.134515886	1.5	0.1
0.01	1	0.388923736998549	1	19	152.322774493001	NA	1	0	0.62	1	150.533408302999	150.922332039998	"11"	30483.556887604	30481.134515886	1.5	0.1
0.01	1	0.443879786998878	1	19	152.322774493001	NA	1	0	0.62	1	151.151062774999	151.594942561998	"11"	30483.556887604	30481.134515886	1.5	0.1
0.01	1	0.374532277000981	1	19	152.322774493001	NA	1	0	0.62	1	151.835467678	152.209999955001	"11"	30483.556887604	30481.134515886	1.5	0.1
0.01	1	0.00202768599774572	1	63	NA	161.603668625998	0	0.15	0.77	1	154.356440042	154.358467727998	"12"	30483.556887604	30481.134515886	1.5	0.1
0.01	1	0.180064650001441	1	63	NA	161.603668625998	0	0.15	0.77	1	154.590109254998	154.770173904999	"12"	30483.556887604	30481.134515886	1.5	0.1
0.01	1	0.203254534000735	1	63	NA	161.603668625998	0	0.15	0.77	1	155.007485654998	155.210740188999	"12"	30483.556887604	30481.134515886	1.5	0.1
0.01	1	0.0644084079976892	1	63	NA	161.603668625998	0	0.15	0.77	1	155.441682008	155.506090415998	"12"	30483.556887604	30481.134515886	1.5	0.1
0.01	1	0.0769356359996891	1	63	NA	161.603668625998	0	0.15	0.77	1	155.742009117999	155.818944753999	"12"	30483.556887604	30481.134515886	1.5	0.1
0.01	1	0.0472414280011435	1	63	NA	161.603668625998	0	0.15	0.77	1	156.042577554999	156.089818983	"12"	30483.556887604	30481.134515886	1.5	0.1
0.01	1	0.00709708000067621	1	63	NA	161.603668625998	0	0.15	0.77	1	156.32635372	156.333450800001	"12"	30483.556887604	30481.134515886	1.5	0.1
0.01	1	0.00404352099940297	1	63	NA	161.603668625998	0	0.15	0.77	1	156.560115142998	156.564158663998	"12"	30483.556887604	30481.134515886	1.5	0.1
0.01	1	0.00206309299755958	1	63	NA	161.603668625998	0	0.15	0.77	1	156.793934604	156.795997696998	"12"	30483.556887604	30481.134515886	1.5	0.1
0.01	1	0.015290803003154	1	63	NA	161.603668625998	0	0.15	0.77	1	157.027595314998	157.042886118001	"12"	30483.556887604	30481.134515886	1.5	0.1
0.01	1	0.0448541110017686	1	63	NA	161.603668625998	0	0.15	0.77	1	157.277922732999	157.322776844001	"12"	30483.556887604	30481.134515886	1.5	0.1
0.01	1	0.568705723999301	1	63	NA	161.603668625998	0	0.15	0.77	1	157.545052067999	158.113757791998	"12"	30483.556887604	30481.134515886	1.5	0.1
0.01	1	0.343688062999718	1	63	NA	161.603668625998	0	0.15	0.77	1	158.346477386	158.690165448999	"12"	30483.556887604	30481.134515886	1.5	0.1
0.01	1	0.337622906998149	1	63	NA	161.603668625998	0	0.15	0.77	1	158.914013965001	159.251636871999	"12"	30483.556887604	30481.134515886	1.5	0.1
0.01	1	1.22409376499854	1	63	NA	161.603668625998	0	0.15	0.77	1	159.481687953001	160.705781717999	"12"	30483.556887604	30481.134515886	1.5	0.1
0.01	1	0.668000698002288	2	63	NA	161.603668625998	0	0.15	0.77	1	160.934104414999	161.602105113001	"12"	30483.556887604	30481.134515886	1.5	0.1
0.01	1	0.411507140997855	1	54	NA	170.810367046	0	0.14	0.91	1	163.655358065	164.066865205998	"13"	30483.556887604	30481.134515886	1.5	0.1
0.01	1	0.0037509610010602	1	54	NA	170.810367046	0	0.14	0.91	1	164.306427514999	164.310178476	"13"	30483.556887604	30481.134515886	1.5	0.1
0.01	1	0.00217204399814364	1	54	NA	170.810367046	0	0.14	0.91	1	164.540183770001	164.542355813999	"13"	30483.556887604	30481.134515886	1.5	0.1
0.01	1	0.00203725599931204	1	54	NA	170.810367046	0	0.14	0.91	1	164.773988416	164.776025671999	"13"	30483.556887604	30481.134515886	1.5	0.1
0.01	1	0.00196104900169303	1	54	NA	170.810367046	0	0.14	0.91	1	165.007657312999	165.009618362001	"13"	30483.556887604	30481.134515886	1.5	0.1
0.01	1	0.00204187399867806	1	54	NA	170.810367046	0	0.14	0.91	1	165.241384057001	165.243425930999	"13"	30483.556887604	30481.134515886	1.5	0.1
0.01	1	0.00455860999863944	1	54	NA	170.810367046	0	0.14	0.91	1	165.475116718	165.479675327999	"13"	30483.556887604	30481.134515886	1.5	0.1
0.01	1	0.292933733999234	1	54	NA	170.810367046	0	0.14	0.91	1	165.708843177999	166.001776911999	"13"	30483.556887604	30481.134515886	1.5	0.1
0.01	1	0.288584470999922	1	54	NA	170.810367046	0	0.14	0.91	1	166.226414736	166.514999207	"13"	30483.556887604	30481.134515886	1.5	0.1
0.01	1	0.242506554001011	1	54	NA	170.810367046	0	0.14	0.91	1	166.743915029998	166.986421583999	"13"	30483.556887604	30481.134515886	1.5	0.1
0.01	1	0.294777807001083	1	54	NA	170.810367046	0	0.14	0.91	1	167.211343753999	167.506121561	"13"	30483.556887604	30481.134515886	1.5	0.1
0.01	1	0.193611532999057	1	54	NA	170.810367046	0	0.14	0.91	1	167.745550493	167.939162025999	"13"	30483.556887604	30481.134515886	1.5	0.1
0.01	1	0.440825088997371	1	54	NA	170.810367046	0	0.14	0.91	1	168.162907145001	168.603732233998	"13"	30483.556887604	30481.134515886	1.5	0.1
0.01	1	1.04369883699837	1	54	NA	170.810367046	0	0.14	0.91	1	168.830718865	169.874417701998	"13"	30483.556887604	30481.134515886	1.5	0.1
0.01	1	0.709298967001814	2	54	NA	170.810367046	0	0.14	0.91	1	170.099514362999	170.808813330001	"13"	30483.556887604	30481.134515886	1.5	0.1
0.01	1	0.363676552002289	1	103	NA	178.021083027001	0	0.12	1.03	1	172.854264417998	173.21794097	"14"	30483.556887604	30481.134515886	1.5	0.1
0.01	1	0.0115621379991353	1	103	NA	178.021083027001	0	0.12	1.03	1	173.455202019999	173.466764157998	"14"	30483.556887604	30481.134515886	1.5	0.1
0.01	1	0.00457564499811269	1	103	NA	178.021083027001	0	0.12	1.03	1	173.688978758	173.693554402998	"14"	30483.556887604	30481.134515886	1.5	0.1
0.01	1	0.00448965500254417	1	103	NA	178.021083027001	0	0.12	1.03	1	173.922631212998	173.927120868	"14"	30483.556887604	30481.134515886	1.5	0.1
0.01	1	0.00398974599738722	1	103	NA	178.021083027001	0	0.12	1.03	1	174.156362056001	174.160351801998	"14"	30483.556887604	30481.134515886	1.5	0.1
0.01	1	0.00207618299828027	1	103	NA	178.021083027001	0	0.12	1.03	1	174.390175853001	174.392252035999	"14"	30483.556887604	30481.134515886	1.5	0.1
0.01	1	0.00380864699764061	1	103	NA	178.021083027001	0	0.12	1.03	1	174.623840483	174.627649129998	"14"	30483.556887604	30481.134515886	1.5	0.1
0.01	1	0.0037404399990919	1	103	NA	178.021083027001	0	0.12	1.03	1	174.857563707999	174.861304147998	"14"	30483.556887604	30481.134515886	1.5	0.1
0.01	1	0.0081301899990649	1	103	NA	178.021083027001	0	0.12	1.03	1	175.091322138	175.099452327999	"14"	30483.556887604	30481.134515886	1.5	0.1
0.01	1	0.229262746001041	1	103	NA	178.021083027001	0	0.12	1.03	1	175.325101877999	175.554364624	"14"	30483.556887604	30481.134515886	1.5	0.1
0.01	1	0.409867254998971	1	103	NA	178.021083027001	0	0.12	1.03	1	175.792412507999	176.202279762998	"14"	30483.556887604	30481.134515886	1.5	0.1
0.01	1	0.374779360998218	1	103	NA	178.021083027001	0	0.12	1.03	1	176.443552883	176.818332243998	"14"	30483.556887604	30481.134515886	1.5	0.1
0.01	1	0.974967046997335	2	103	NA	178.021083027001	0	0.12	1.03	1	177.044587280001	178.019554326998	"14"	30483.556887604	30481.134515886	1.5	0.1
0.01	1	0.680090884001402	1	120	NA	186.604583945998	0	0.15	1.18	1	180.066346117997	180.746437001999	"15"	30483.556887604	30481.134515886	1.5	0.1
0.01	1	0.0183853849994193	1	120	NA	186.604583945998	0	0.15	1.18	1	180.984469853	181.002855237999	"15"	30483.556887604	30481.134515886	1.5	0.1
0.01	1	0.00957721799932187	1	120	NA	186.604583945998	0	0.15	1.18	1	181.234949697999	181.244526915998	"15"	30483.556887604	30481.134515886	1.5	0.1
0.01	1	0.0151051979992189	1	120	NA	186.604583945998	0	0.15	1.18	1	181.468757737999	181.483862935998	"15"	30483.556887604	30481.134515886	1.5	0.1
0.01	1	0.00202630100102397	1	120	NA	186.604583945998	0	0.15	1.18	1	181.719055040998	181.721081341999	"15"	30483.556887604	30481.134515886	1.5	0.1
0.01	1	0.122644746999867	1	120	NA	186.604583945998	0	0.15	1.18	1	181.952849657999	182.075494404999	"15"	30483.556887604	30481.134515886	1.5	0.1
0.01	1	0.194624820000172	1	120	NA	186.604583945998	0	0.15	1.18	1	182.303490898001	182.498115718001	"15"	30483.556887604	30481.134515886	1.5	0.1
0.01	1	0.0345000389970664	1	120	NA	186.604583945998	0	0.15	1.18	1	182.720692208	182.755192246997	"15"	30483.556887604	30481.134515886	1.5	0.1
0.01	1	0.00208527700306149	1	120	NA	186.604583945998	0	0.15	1.18	1	182.987924082998	182.990009360001	"15"	30483.556887604	30481.134515886	1.5	0.1
0.01	1	0.00400659699880634	1	120	NA	186.604583945998	0	0.15	1.18	1	183.221609644999	183.225616241998	"15"	30483.556887604	30481.134515886	1.5	0.1
0.01	1	0.00393486999746528	1	120	NA	186.604583945998	0	0.15	1.18	1	183.455305378	183.459240247998	"15"	30483.556887604	30481.134515886	1.5	0.1
0.01	1	0.00243675900128437	1	120	NA	186.604583945998	0	0.15	1.18	1	183.689123643999	183.691560403	"15"	30483.556887604	30481.134515886	1.5	0.1
0.01	1	0.215208854999219	1	120	NA	186.604583945998	0	0.15	1.18	1	183.922766037998	184.137974892998	"15"	30483.556887604	30481.134515886	1.5	0.1
0.01	1	0.325151893997827	1	120	NA	186.604583945998	0	0.15	1.18	1	184.373565528	184.698717421998	"15"	30483.556887604	30481.134515886	1.5	0.1
0.01	1	0.390231137000228	1	120	NA	186.604583945998	0	0.15	1.18	1	184.924467257999	185.314698394999	"15"	30483.556887604	30481.134515886	1.5	0.1
0.01	1	1.06083469200166	2	120	NA	186.604583945998	0	0.15	1.18	1	185.542210397998	186.60304509	"15"	30483.556887604	30481.134515886	1.5	0.1
0.01	1	0.324031390999153	1	109	NA	195.507918698	0	0.16	1.34	1	188.647398293	188.971429683999	"16"	30483.556887604	30481.134515886	1.5	0.1
0.01	1	0.00796618800086435	1	109	NA	195.507918698	0	0.16	1.34	1	189.198307057999	189.206273246	"16"	30483.556887604	30481.134515886	1.5	0.1
0.01	1	0.00300386199887726	1	109	NA	195.507918698	0	0.16	1.34	1	189.432009931999	189.435013793998	"16"	30483.556887604	30481.134515886	1.5	0.1
0.01	1	0.00205286100026569	1	109	NA	195.507918698	0	0.16	1.34	1	189.665799764	189.667852625	"16"	30483.556887604	30481.134515886	1.5	0.1
0.01	1	0.00203114499890944	1	109	NA	195.507918698	0	0.16	1.34	1	189.899579176999	189.901610321998	"16"	30483.556887604	30481.134515886	1.5	0.1
0.01	1	0.00211826899976586	1	109	NA	195.507918698	0	0.16	1.34	1	190.133329684999	190.135447953999	"16"	30483.556887604	30481.134515886	1.5	0.1
0.01	1	0.00205430599817191	1	109	NA	195.507918698	0	0.16	1.34	1	190.366989776001	190.369044081999	"16"	30483.556887604	30481.134515886	1.5	0.1
0.01	1	0.00391346200194675	1	109	NA	195.507918698	0	0.16	1.34	1	190.600625187999	190.604538650001	"16"	30483.556887604	30481.134515886	1.5	0.1
0.01	1	0.047707038000226	1	109	NA	195.507918698	0	0.16	1.34	1	190.834268317998	190.881975355998	"16"	30483.556887604	30481.134515886	1.5	0.1
0.01	1	0.0373471979983151	1	109	NA	195.507918698	0	0.16	1.34	1	191.118196687999	191.155543885998	"16"	30483.556887604	30481.134515886	1.5	0.1
0.01	1	0.34614698400037	1	109	NA	195.507918698	0	0.16	1.34	1	191.385440092999	191.731587077	"16"	30483.556887604	30481.134515886	1.5	0.1
0.01	1	0.512685749999946	1	109	NA	195.507918698	0	0.16	1.34	1	191.969670005001	192.482355755001	"16"	30483.556887604	30481.134515886	1.5	0.1
0.01	1	0.641768845001934	1	109	NA	195.507918698	0	0.16	1.34	1	192.720893812999	193.362662658001	"16"	30483.556887604	30481.134515886	1.5	0.1
0.01	1	0.284691667999141	1	109	NA	195.507918698	0	0.16	1.34	1	193.589193483	193.873885150999	"16"	30483.556887604	30481.134515886	1.5	0.1
0.01	1	0.00200232399947708	1	109	NA	195.507918698	0	0.16	1.34	1	194.106617916001	194.10862024	"16"	30483.556887604	30481.134515886	1.5	0.1
0.01	1	0.430402892001439	1	109	NA	195.507918698	0	0.16	1.34	1	194.340431459997	194.770834351999	"16"	30483.556887604	30481.134515886	1.5	0.1
0.01	1	0.498158844999125	2	109	NA	195.507918698	0	0.16	1.34	1	195.008239342998	195.506398187998	"16"	30483.556887604	30481.134515886	1.5	0.1
0.01	1	0.480944013997942	1	71	NA	203.587902661999	0	0.16	1.5	1	197.562481048	198.043425061998	"17"	30483.556887604	30481.134515886	1.5	0.1
0.01	1	0.00454810699739028	1	71	NA	203.587902661999	0	0.16	1.5	1	198.280373818001	198.284921924998	"17"	30483.556887604	30481.134515886	1.5	0.1
0.01	1	0.0039682049973635	1	71	NA	203.587902661999	0	0.16	1.5	1	198.514053053001	198.518021257998	"17"	30483.556887604	30481.134515886	1.5	0.1
0.01	1	0.00459414500073763	1	71	NA	203.587902661999	0	0.16	1.5	1	198.747801733	198.752395878	"17"	30483.556887604	30481.134515886	1.5	0.1
0.01	1	0.00383359400075278	1	71	NA	203.587902661999	0	0.16	1.5	1	198.98145806	198.985291654	"17"	30483.556887604	30481.134515886	1.5	0.1
0.01	1	0.098724196999683	1	71	NA	203.587902661999	0	0.16	1.5	1	199.21523251	199.313956706999	"17"	30483.556887604	30481.134515886	1.5	0.1
0.01	1	0.00456558199948631	1	71	NA	203.587902661999	0	0.16	1.5	1	199.549146663001	199.553712245	"17"	30483.556887604	30481.134515886	1.5	0.1
0.01	1	0.0020327800011728	1	71	NA	203.587902661999	0	0.16	1.5	1	199.782850326999	199.784883107	"17"	30483.556887604	30481.134515886	1.5	0.1
0.01	1	0.00387064499955159	1	71	NA	203.587902661999	0	0.16	1.5	1	200.016584642999	200.020455287999	"17"	30483.556887604	30481.134515886	1.5	0.1
0.01	1	0.00394824199975119	1	71	NA	203.587902661999	0	0.16	1.5	1	200.250295337999	200.254243579999	"17"	30483.556887604	30481.134515886	1.5	0.1
0.01	1	0.00390427700040163	1	71	NA	203.587902661999	0	0.16	1.5	1	200.484005963001	200.487910240001	"17"	30483.556887604	30481.134515886	1.5	0.1
0.01	1	0.00385946999813314	1	71	NA	203.587902661999	0	0.16	1.5	1	200.717805939999	200.721665409998	"17"	30483.556887604	30481.134515886	1.5	0.1
0.01	1	0.108037672998762	1	71	NA	203.587902661999	0	0.16	1.5	1	200.951410469999	201.059448142998	"17"	30483.556887604	30481.134515886	1.5	0.1
0.01	1	0.36621122699944	1	71	NA	203.587902661999	0	0.16	1.5	1	201.285406819999	201.651618046999	"17"	30483.556887604	30481.134515886	1.5	0.1
0.01	1	0.253397913002118	1	71	NA	203.587902661999	0	0.16	1.5	1	201.886298034999	202.139695948001	"17"	30483.556887604	30481.134515886	1.5	0.1
0.01	1	0.343870911998238	1	71	NA	203.587902661999	0	0.16	1.5	1	202.370423464999	202.714294376998	"17"	30483.556887604	30481.134515886	1.5	0.1
0.01	1	0.648194109999167	2	71	NA	203.587902661999	0	0.16	1.5	1	202.938117132999	203.586311242998	"17"	30483.556887604	30481.134515886	1.5	0.1
0.01	1	0.17637599599766	1	96	NA	212.651519227999	0	0.18	1.68	1	205.625950267	205.802326262998	"18"	30483.556887604	30481.134515886	1.5	0.1
0.01	1	0.00209487399843056	1	96	NA	212.651519227999	0	0.18	1.68	1	206.043333654001	206.045428527999	"18"	30483.556887604	30481.134515886	1.5	0.1
0.01	1	0.00376708800104097	1	96	NA	212.651519227999	0	0.18	1.68	1	206.277118727998	206.280885815999	"18"	30483.556887604	30481.134515886	1.5	0.1
0.01	1	0.00460791699879337	1	96	NA	212.651519227999	0	0.18	1.68	1	206.510916662999	206.515524579998	"18"	30483.556887604	30481.134515886	1.5	0.1
0.01	1	0.00454369499857421	1	96	NA	212.651519227999	0	0.18	1.68	1	206.744544462999	206.749088157998	"18"	30483.556887604	30481.134515886	1.5	0.1
0.01	1	0.00454660600007628	1	96	NA	212.651519227999	0	0.18	1.68	1	206.978312316998	206.982858922998	"18"	30483.556887604	30481.134515886	1.5	0.1
0.01	1	0.00382467300005374	1	96	NA	212.651519227999	0	0.18	1.68	1	207.212028812999	207.215853485999	"18"	30483.556887604	30481.134515886	1.5	0.1
0.01	1	0.116513450000639	1	96	NA	212.651519227999	0	0.18	1.68	1	207.445830167999	207.562343617999	"18"	30483.556887604	30481.134515886	1.5	0.1
0.01	1	0.00473268499990809	1	96	NA	212.651519227999	0	0.18	1.68	1	207.796390307998	207.801122992998	"18"	30483.556887604	30481.134515886	1.5	0.1
0.01	1	0.0021051690018794	1	96	NA	212.651519227999	0	0.18	1.68	1	208.030032227998	208.032137397	"18"	30483.556887604	30481.134515886	1.5	0.1
0.01	1	0.00218707699968945	1	96	NA	212.651519227999	0	0.18	1.68	1	208.263785602998	208.265972679998	"18"	30483.556887604	30481.134515886	1.5	0.1
0.01	1	0.00385074299992993	1	96	NA	212.651519227999	0	0.18	1.68	1	208.497588804999	208.501439547999	"18"	30483.556887604	30481.134515886	1.5	0.1
0.01	1	0.232684300000983	1	96	NA	212.651519227999	0	0.18	1.68	1	208.731170039999	208.96385434	"18"	30483.556887604	30481.134515886	1.5	0.1
0.01	1	0.0605711669995799	1	96	NA	212.651519227999	0	0.18	1.68	1	209.198651863	209.25922303	"18"	30483.556887604	30481.134515886	1.5	0.1
0.01	1	0.0720817789988359	1	96	NA	212.651519227999	0	0.18	1.68	1	209.482468733	209.554550511999	"18"	30483.556887604	30481.134515886	1.5	0.1
0.01	1	0.0991577000022517	1	96	NA	212.651519227999	0	0.18	1.68	1	209.782985614998	209.882143315001	"18"	30483.556887604	30481.134515886	1.5	0.1
0.01	1	0.445848483999725	1	96	NA	212.651519227999	0	0.18	1.68	1	210.116813843	210.562662327	"18"	30483.556887604	30481.134515886	1.5	0.1
0.01	1	0.593317522998404	1	96	NA	212.651519227999	0	0.18	1.68	1	210.784611313	211.377928835998	"18"	30483.556887604	30481.134515886	1.5	0.1
0.01	1	1.04720431199894	2	96	NA	212.651519227999	0	0.18	1.68	1	211.602749607999	212.649953919998	"18"	30483.556887604	30481.134515886	1.5	0.1
0.01	1	0.0021349390008254	1	91	NA	220.595750638	0	0.2	1.88	1	214.707928513999	214.710063453	"19"	30483.556887604	30481.134515886	1.5	0.1
0.01	1	0.00326474200119264	1	91	NA	220.595750638	0	0.2	1.88	1	214.941664819999	214.944929562	"19"	30483.556887604	30481.134515886	1.5	0.1
0.01	1	0.00199028800125234	1	91	NA	220.595750638	0	0.2	1.88	1	215.175432242999	215.177422531	"19"	30483.556887604	30481.134515886	1.5	0.1
0.01	1	0.00454454200007604	1	91	NA	220.595750638	0	0.2	1.88	1	215.409152357999	215.413696899999	"19"	30483.556887604	30481.134515886	1.5	0.1
0.01	1	0.0045846069988329	1	91	NA	220.595750638	0	0.2	1.88	1	215.642866798	215.647451404999	"19"	30483.556887604	30481.134515886	1.5	0.1
0.01	1	0.00381550599922775	1	91	NA	220.595750638	0	0.2	1.88	1	215.876544838	215.880360343999	"19"	30483.556887604	30481.134515886	1.5	0.1
0.01	1	0.00388518100226065	1	91	NA	220.595750638	0	0.2	1.88	1	216.110320592998	216.114205774	"19"	30483.556887604	30481.134515886	1.5	0.1
0.01	1	0.00456544500048039	1	91	NA	220.595750638	0	0.2	1.88	1	216.344117973	216.348683418	"19"	30483.556887604	30481.134515886	1.5	0.1
0.01	1	0.0038316259997373	1	91	NA	220.595750638	0	0.2	1.88	1	216.57769812	216.581529745999	"19"	30483.556887604	30481.134515886	1.5	0.1
0.01	1	0.00378028600243852	1	91	NA	220.595750638	0	0.2	1.88	1	216.811492747998	216.815273034001	"19"	30483.556887604	30481.134515886	1.5	0.1
0.01	1	0.00434683999992558	1	91	NA	220.595750638	0	0.2	1.88	1	217.045167062999	217.049513902999	"19"	30483.556887604	30481.134515886	1.5	0.1
0.01	1	0.00453940099760075	1	91	NA	220.595750638	0	0.2	1.88	1	217.279009997001	217.283549397998	"19"	30483.556887604	30481.134515886	1.5	0.1
0.01	1	0.00454139000066789	1	91	NA	220.595750638	0	0.2	1.88	1	217.512614597999	217.517155988	"19"	30483.556887604	30481.134515886	1.5	0.1
0.01	1	0.143970668999827	1	91	NA	220.595750638	0	0.2	1.88	1	217.746386377999	217.890357046999	"19"	30483.556887604	30481.134515886	1.5	0.1
0.01	1	0.0724764590013365	1	91	NA	220.595750638	0	0.2	1.88	1	218.113568232999	218.186044692	"19"	30483.556887604	30481.134515886	1.5	0.1
0.01	1	0.0611394990010012	1	91	NA	220.595750638	0	0.2	1.88	1	218.414164244998	218.475303743999	"19"	30483.556887604	30481.134515886	1.5	0.1
0.01	1	0.0486690229990927	1	91	NA	220.595750638	0	0.2	1.88	1	218.697997395	218.746666417999	"19"	30483.556887604	30481.134515886	1.5	0.1
0.01	1	0.0852977610011294	1	91	NA	220.595750638	0	0.2	1.88	1	218.981815659998	219.067113420999	"19"	30483.556887604	30481.134515886	1.5	0.1
0.01	1	0.104647203999775	1	91	NA	220.595750638	0	0.2	1.88	1	219.29903514	219.403682344	"19"	30483.556887604	30481.134515886	1.5	0.1
0.01	1	0.202809001999412	1	91	NA	220.595750638	0	0.2	1.88	1	219.632961824998	219.835770826998	"19"	30483.556887604	30481.134515886	1.5	0.1
0.01	1	0.52726372199686	2	91	NA	220.595750638	0	0.2	1.88	1	220.066963515001	220.594227236998	"19"	30483.556887604	30481.134515886	1.5	0.1
0.01	1	0.516053775998444	1	5	224.226951207998	NA	1	0	1.88	1	222.654620275	223.170674050998	"20"	30483.556887604	30481.134515886	1.5	0.1
0.01	1	0.00451679199977661	1	5	224.226951207998	NA	1	0	1.88	1	223.405906462998	223.410423254998	"20"	30483.556887604	30481.134515886	1.5	0.1
0.01	1	0.00438760699762497	1	5	224.226951207998	NA	1	0	1.88	1	223.639586416	223.643974022998	"20"	30483.556887604	30481.134515886	1.5	0.1
0.01	1	0.00456217000100878	1	5	224.226951207998	NA	1	0	1.88	1	223.873409807999	223.877971978	"20"	30483.556887604	30481.134515886	1.5	0.1
0.01	1	0.00214610900002299	1	5	224.226951207998	NA	1	0	1.88	1	224.107145866998	224.109291975998	"20"	30483.556887604	30481.134515886	1.5	0.1
0.01	1	0.00221535600212519	1	123	NA	234.659949637	0	0.3	2.18	1	226.260719418999	226.262934775001	"21"	30483.556887604	30481.134515886	1.5	0.1
0.01	1	0.00210043699917151	1	123	NA	234.659949637	0	0.3	2.18	1	226.494402949	226.496503385999	"21"	30483.556887604	30481.134515886	1.5	0.1
0.01	1	0.00205502900280408	1	123	NA	234.659949637	0	0.3	2.18	1	226.728233555998	226.730288585	"21"	30483.556887604	30481.134515886	1.5	0.1
0.01	1	0.00198208499932662	1	123	NA	234.659949637	0	0.3	2.18	1	226.961916206001	226.963898291	"21"	30483.556887604	30481.134515886	1.5	0.1
0.01	1	0.00210381199940457	1	123	NA	234.659949637	0	0.3	2.18	1	227.195633342999	227.197737154998	"21"	30483.556887604	30481.134515886	1.5	0.1
0.01	1	0.0046510499996657	1	123	NA	234.659949637	0	0.3	2.18	1	227.429310683001	227.433961733001	"21"	30483.556887604	30481.134515886	1.5	0.1
0.01	1	0.00396892099888646	1	123	NA	234.659949637	0	0.3	2.18	1	227.663087404999	227.667056325998	"21"	30483.556887604	30481.134515886	1.5	0.1
0.01	1	0.139101238997682	1	123	NA	234.659949637	0	0.3	2.18	1	227.896839088	228.035940326998	"21"	30483.556887604	30481.134515886	1.5	0.1
0.01	1	0.0195700449985452	1	123	NA	234.659949637	0	0.3	2.18	1	228.264023313001	228.283593357999	"21"	30483.556887604	30481.134515886	1.5	0.1
0.01	1	0.0020246620006219	1	123	NA	234.659949637	0	0.3	2.18	1	228.514431012998	228.516455674999	"21"	30483.556887604	30481.134515886	1.5	0.1
0.01	1	0.00226982100139139	1	123	NA	234.659949637	0	0.3	2.18	1	228.748323684998	228.750593506	"21"	30483.556887604	30481.134515886	1.5	0.1
0.01	1	0.00206533500022488	1	123	NA	234.659949637	0	0.3	2.18	1	228.981906827001	228.983972162001	"21"	30483.556887604	30481.134515886	1.5	0.1
0.01	1	0.1078126350003	1	123	NA	234.659949637	0	0.3	2.18	1	229.215767803998	229.323580438999	"21"	30483.556887604	30481.134515886	1.5	0.1
0.01	1	0.020744541001477	1	123	NA	234.659949637	0	0.3	2.18	1	229.549630492998	229.570375034	"21"	30483.556887604	30481.134515886	1.5	0.1
0.01	1	0.00313894799910486	1	123	NA	234.659949637	0	0.3	2.18	1	229.799911896	229.803050843999	"21"	30483.556887604	30481.134515886	1.5	0.1
0.01	1	0.00269642200146336	1	123	NA	234.659949637	0	0.3	2.18	1	230.033672515998	230.036368937999	"21"	30483.556887604	30481.134515886	1.5	0.1
0.01	1	0.00206101100047817	1	123	NA	234.659949637	0	0.3	2.18	1	230.267468466998	230.269529477999	"21"	30483.556887604	30481.134515886	1.5	0.1
0.01	1	0.00203471200075001	1	123	NA	234.659949637	0	0.3	2.18	1	230.501213443	230.503248155001	"21"	30483.556887604	30481.134515886	1.5	0.1
0.01	1	0.00203806899662595	1	123	NA	234.659949637	0	0.3	2.18	1	230.734947033001	230.736985101998	"21"	30483.556887604	30481.134515886	1.5	0.1
0.01	1	0.00203365400011535	1	123	NA	234.659949637	0	0.3	2.18	1	230.968480998999	230.970514653	"21"	30483.556887604	30481.134515886	1.5	0.1
0.01	1	0.00386186000105226	1	123	NA	234.659949637	0	0.3	2.18	1	231.202424968	231.206286828001	"21"	30483.556887604	30481.134515886	1.5	0.1
0.01	1	0.00413542299793335	1	123	NA	234.659949637	0	0.3	2.18	1	231.436106515001	231.440241937999	"21"	30483.556887604	30481.134515886	1.5	0.1
0.01	1	0.00389835499663604	1	123	NA	234.659949637	0	0.3	2.18	1	231.669884545001	231.673782899998	"21"	30483.556887604	30481.134515886	1.5	0.1
0.01	1	0.0991506020000088	1	123	NA	234.659949637	0	0.3	2.18	1	231.903552012998	232.002702614998	"21"	30483.556887604	30481.134515886	1.5	0.1
0.01	1	0.00215529100023559	1	123	NA	234.659949637	0	0.3	2.18	1	232.237333575998	232.239488866999	"21"	30483.556887604	30481.134515886	1.5	0.1
0.01	1	0.00316887799999677	1	123	NA	234.659949637	0	0.3	2.18	1	232.47110793	232.474276808	"21"	30483.556887604	30481.134515886	1.5	0.1
0.01	1	0.00462606499786489	1	123	NA	234.659949637	0	0.3	2.18	1	232.704912663001	232.709538727999	"21"	30483.556887604	30481.134515886	1.5	0.1
0.01	1	0.00384441500136745	1	123	NA	234.659949637	0	0.3	2.18	1	232.938546992998	232.942391408	"21"	30483.556887604	30481.134515886	1.5	0.1
0.01	1	0.00199015199905261	1	123	NA	234.659949637	0	0.3	2.18	1	233.172404808	233.174394959999	"21"	30483.556887604	30481.134515886	1.5	0.1
0.01	1	0.445044312997197	1	123	NA	234.659949637	0	0.3	2.18	1	233.406038688001	233.851083000998	"21"	30483.556887604	30481.134515886	1.5	0.1
0.01	1	0.584585152999352	2	123	NA	234.659949637	0	0.3	2.18	1	234.073820783	234.658405935999	"21"	30483.556887604	30481.134515886	1.5	0.1
0.01	1	0.378509656999086	1	81	NA	242.939639394001	0	0.22	2.4	1	236.711536018	237.090045674999	"22"	30483.556887604	30481.134515886	1.5	0.1
0.01	1	0.00206477599931532	1	81	NA	242.939639394001	0	0.22	2.4	1	237.329299688001	237.331364464	"22"	30483.556887604	30481.134515886	1.5	0.1
0.01	1	0.00205607599855284	1	81	NA	242.939639394001	0	0.22	2.4	1	237.563094065001	237.565150140999	"22"	30483.556887604	30481.134515886	1.5	0.1
0.01	1	0.00779325300027267	1	81	NA	242.939639394001	0	0.22	2.4	1	237.796763932998	237.804557185998	"22"	30483.556887604	30481.134515886	1.5	0.1
0.01	1	0.00228459500067402	1	81	NA	242.939639394001	0	0.22	2.4	1	238.030463087998	238.032747682999	"22"	30483.556887604	30481.134515886	1.5	0.1
0.01	1	0.0116135360003682	1	81	NA	242.939639394001	0	0.22	2.4	1	238.264186724999	238.275800260999	"22"	30483.556887604	30481.134515886	1.5	0.1
0.01	1	0.00454621099925134	1	81	NA	242.939639394001	0	0.22	2.4	1	238.497893354001	238.502439565	"22"	30483.556887604	30481.134515886	1.5	0.1
0.01	1	0.00698831499903463	1	81	NA	242.939639394001	0	0.22	2.4	1	238.731685635001	238.73867395	"22"	30483.556887604	30481.134515886	1.5	0.1
0.01	1	0.00215994200334535	1	81	NA	242.939639394001	0	0.22	2.4	1	238.965382382998	238.967542325001	"22"	30483.556887604	30481.134515886	1.5	0.1
0.01	1	0.00221290099943872	1	81	NA	242.939639394001	0	0.22	2.4	1	239.199166995	239.201379896	"22"	30483.556887604	30481.134515886	1.5	0.1
0.01	1	0.00203387199871941	1	81	NA	242.939639394001	0	0.22	2.4	1	239.432884919999	239.434918791998	"22"	30483.556887604	30481.134515886	1.5	0.1
0.01	1	0.00454393999825697	1	81	NA	242.939639394001	0	0.22	2.4	1	239.666619993	239.671163932999	"22"	30483.556887604	30481.134515886	1.5	0.1
0.01	1	0.00380121199850691	1	81	NA	242.939639394001	0	0.22	2.4	1	239.90023096	239.904032171999	"22"	30483.556887604	30481.134515886	1.5	0.1
0.01	1	0.0020153309997113	1	81	NA	242.939639394001	0	0.22	2.4	1	240.134056208	240.136071539	"22"	30483.556887604	30481.134515886	1.5	0.1
0.01	1	0.163734353998734	1	81	NA	242.939639394001	0	0.22	2.4	1	240.367712125	240.531446478999	"22"	30483.556887604	30481.134515886	1.5	0.1
0.01	1	0.0020386049982335	1	81	NA	242.939639394001	0	0.22	2.4	1	240.768486752	240.770525356998	"22"	30483.556887604	30481.134515886	1.5	0.1
0.01	1	0.00199984800201491	1	81	NA	242.939639394001	0	0.22	2.4	1	241.002157605999	241.004157454001	"22"	30483.556887604	30481.134515886	1.5	0.1
0.01	1	0.0039215230026457	1	81	NA	242.939639394001	0	0.22	2.4	1	241.235815322998	241.239736846001	"22"	30483.556887604	30481.134515886	1.5	0.1
0.01	1	0.00215283500074293	1	81	NA	242.939639394001	0	0.22	2.4	1	241.469535444998	241.471688279998	"22"	30483.556887604	30481.134515886	1.5	0.1
0.01	1	0.00400501099647954	1	81	NA	242.939639394001	0	0.22	2.4	1	241.703414945001	241.707419955997	"22"	30483.556887604	30481.134515886	1.5	0.1
0.01	1	0.034093109999958	1	81	NA	242.939639394001	0	0.22	2.4	1	241.937080903001	241.971174013001	"22"	30483.556887604	30481.134515886	1.5	0.1
0.01	1	0.15848386899961	1	81	NA	242.939639394001	0	0.22	2.4	1	242.204237182999	242.362721051999	"22"	30483.556887604	30481.134515886	1.5	0.1
0.01	1	0.349994467000215	2	81	NA	242.939639394001	0	0.22	2.4	1	242.588042133	242.9380366	"22"	30483.556887604	30481.134515886	1.5	0.1
0.01	1	0.290604787001939	1	117	NA	252.917139306999	0	0.25	2.65	1	244.992178836997	245.282783623999	"23"	30483.556887604	30481.134515886	1.5	0.1
0.01	1	0.00700996500017936	1	117	NA	252.917139306999	0	0.25	2.65	1	245.509703732998	245.516713697998	"23"	30483.556887604	30481.134515886	1.5	0.1
0.01	1	0.0356959139971877	1	117	NA	252.917139306999	0	0.25	2.65	1	245.743503965001	245.779199878998	"23"	30483.556887604	30481.134515886	1.5	0.1
0.01	1	0.00231703000099515	1	117	NA	252.917139306999	0	0.25	2.65	1	246.010513543999	246.012830574	"23"	30483.556887604	30481.134515886	1.5	0.1
0.01	1	0.00200922400108539	1	117	NA	252.917139306999	0	0.25	2.65	1	246.244359922999	246.246369147	"23"	30483.556887604	30481.134515886	1.5	0.1
0.01	1	0.00207659199804766	1	117	NA	252.917139306999	0	0.25	2.65	1	246.477999070001	246.480075661999	"23"	30483.556887604	30481.134515886	1.5	0.1
0.01	1	0.0112057839978661	1	117	NA	252.917139306999	0	0.25	2.65	1	246.711748448	246.722954231998	"23"	30483.556887604	30481.134515886	1.5	0.1
0.01	1	0.0335378330019012	1	117	NA	252.917139306999	0	0.25	2.65	1	246.945407970998	246.978945804	"23"	30483.556887604	30481.134515886	1.5	0.1
0.01	1	0.0134089349994611	1	117	NA	252.917139306999	0	0.25	2.65	1	247.212590738	247.225999672999	"23"	30483.556887604	30481.134515886	1.5	0.1
0.01	1	0.028650018000917	1	117	NA	252.917139306999	0	0.25	2.65	1	247.463045093999	247.491695111999	"23"	30483.556887604	30481.134515886	1.5	0.1
0.01	1	0.00256846000047517	1	117	NA	252.917139306999	0	0.25	2.65	1	247.730155964	247.732724424	"23"	30483.556887604	30481.134515886	1.5	0.1
0.01	1	0.214733231998252	1	117	NA	252.917139306999	0	0.25	2.65	1	247.963778203	248.178511434999	"23"	30483.556887604	30481.134515886	1.5	0.1
0.01	1	0.0113880760000029	1	117	NA	252.917139306999	0	0.25	2.65	1	248.414585907998	248.425973983998	"23"	30483.556887604	30481.134515886	1.5	0.1
0.01	1	0.0117805930021859	1	117	NA	252.917139306999	0	0.25	2.65	1	248.648310797998	248.660091391001	"23"	30483.556887604	30481.134515886	1.5	0.1
0.01	1	0.00208367700179224	1	117	NA	252.917139306999	0	0.25	2.65	1	248.898838966998	248.900922643999	"23"	30483.556887604	30481.134515886	1.5	0.1
0.01	1	0.00212745600219932	1	117	NA	252.917139306999	0	0.25	2.65	1	249.132557198998	249.134684655	"23"	30483.556887604	30481.134515886	1.5	0.1
0.01	1	0.00354997399699641	1	117	NA	252.917139306999	0	0.25	2.65	1	249.366259038001	249.369809011998	"23"	30483.556887604	30481.134515886	1.5	0.1
0.01	1	0.0028307769971434	1	117	NA	252.917139306999	0	0.25	2.65	1	249.599864846001	249.602695622998	"23"	30483.556887604	30481.134515886	1.5	0.1
0.01	1	0.0575426830000652	1	117	NA	252.917139306999	0	0.25	2.65	1	249.833764782998	249.891307465998	"23"	30483.556887604	30481.134515886	1.5	0.1
0.01	1	0.125103051999758	1	117	NA	252.917139306999	0	0.25	2.65	1	250.117494877999	250.242597929999	"23"	30483.556887604	30481.134515886	1.5	0.1
0.01	1	0.310403949999454	1	117	NA	252.917139306999	0	0.25	2.65	1	250.468131747999	250.778535697998	"23"	30483.556887604	30481.134515886	1.5	0.1
0.01	1	0.143813541999407	1	117	NA	252.917139306999	0	0.25	2.65	1	251.002269602999	251.146083144999	"23"	30483.556887604	30481.134515886	1.5	0.1
0.01	1	0.22527703599917	1	117	NA	252.917139306999	0	0.25	2.65	1	251.369585339999	251.594862375998	"23"	30483.556887604	30481.134515886	1.5	0.1
0.01	1	0.0632799179984431	1	117	NA	252.917139306999	0	0.25	2.65	1	251.820431475	251.883711392999	"23"	30483.556887604	30481.134515886	1.5	0.1
0.01	1	0.0741720229998464	1	117	NA	252.917139306999	0	0.25	2.65	1	252.120836643	252.195008666	"23"	30483.556887604	30481.134515886	1.5	0.1
0.01	1	0.494163606999791	2	117	NA	252.917139306999	0	0.25	2.65	1	252.421421725001	252.915585332001	"23"	30483.556887604	30481.134515886	1.5	0.1
0.01	1	0.588340038000752	1	84	NA	262.812813337001	0	0.25	2.9	1	254.942368199998	255.530708237999	"24"	30483.556887604	30481.134515886	1.5	0.1
0.01	1	0.00402505999954883	1	84	NA	262.812813337001	0	0.25	2.9	1	255.760309779998	255.764334839998	"24"	30483.556887604	30481.134515886	1.5	0.1
0.01	1	0.00197599899911438	1	84	NA	262.812813337001	0	0.25	2.9	1	255.994080184999	255.996056183998	"24"	30483.556887604	30481.134515886	1.5	0.1
0.01	1	0.00195759700000053	1	84	NA	262.812813337001	0	0.25	2.9	1	256.227761611	256.229719208	"24"	30483.556887604	30481.134515886	1.5	0.1
0.01	1	0.00452857700292952	1	84	NA	262.812813337001	0	0.25	2.9	1	256.461556677998	256.466085255001	"24"	30483.556887604	30481.134515886	1.5	0.1
0.01	1	0.00210267000147724	1	84	NA	262.812813337001	0	0.25	2.9	1	256.695119013999	256.697221684	"24"	30483.556887604	30481.134515886	1.5	0.1
0.01	1	0.0020368099976622	1	84	NA	262.812813337001	0	0.25	2.9	1	256.928909186001	256.930945995999	"24"	30483.556887604	30481.134515886	1.5	0.1
0.01	1	0.00210544999936246	1	84	NA	262.812813337001	0	0.25	2.9	1	257.162642743999	257.164748193998	"24"	30483.556887604	30481.134515886	1.5	0.1
0.01	1	0.157496079002158	1	84	NA	262.812813337001	0	0.25	2.9	1	257.396421032998	257.553917112	"24"	30483.556887604	30481.134515886	1.5	0.1
0.01	1	0.0133207150029193	1	84	NA	262.812813337001	0	0.25	2.9	1	257.780405917998	257.793726633001	"24"	30483.556887604	30481.134515886	1.5	0.1
0.01	1	0.00212015599754523	1	84	NA	262.812813337001	0	0.25	2.9	1	258.030877096	258.032997251998	"24"	30483.556887604	30481.134515886	1.5	0.1
0.01	1	0.00459474700255669	1	84	NA	262.812813337001	0	0.25	2.9	1	258.264562592998	258.269157340001	"24"	30483.556887604	30481.134515886	1.5	0.1
0.01	1	0.00462496699765325	1	84	NA	262.812813337001	0	0.25	2.9	1	258.498294498	258.502919464998	"24"	30483.556887604	30481.134515886	1.5	0.1
0.01	1	0.0039201769977808	1	84	NA	262.812813337001	0	0.25	2.9	1	258.731985953	258.735906129998	"24"	30483.556887604	30481.134515886	1.5	0.1
0.01	1	0.116571182999905	1	84	NA	262.812813337001	0	0.25	2.9	1	258.965733295001	259.082304478001	"24"	30483.556887604	30481.134515886	1.5	0.1
0.01	1	0.0022166050002852	1	84	NA	262.812813337001	0	0.25	2.9	1	259.316194523999	259.318411128999	"24"	30483.556887604	30481.134515886	1.5	0.1
0.01	1	0.00230578900300316	1	84	NA	262.812813337001	0	0.25	2.9	1	259.549936749998	259.552242539001	"24"	30483.556887604	30481.134515886	1.5	0.1
0.01	1	0.00221009999950184	1	84	NA	262.812813337001	0	0.25	2.9	1	259.783755385	259.785965485	"24"	30483.556887604	30481.134515886	1.5	0.1
0.01	1	0.00249781699676532	1	84	NA	262.812813337001	0	0.25	2.9	1	260.017424056001	260.019921872998	"24"	30483.556887604	30481.134515886	1.5	0.1
0.01	1	0.00214204800067819	1	84	NA	262.812813337001	0	0.25	2.9	1	260.251125665	260.253267713	"24"	30483.556887604	30481.134515886	1.5	0.1
0.01	1	0.0372826559978421	1	84	NA	262.812813337001	0	0.25	2.9	1	260.484881738001	260.522164393999	"24"	30483.556887604	30481.134515886	1.5	0.1
0.01	1	0.14657736600202	1	84	NA	262.812813337001	0	0.25	2.9	1	260.752043167999	260.898620534001	"24"	30483.556887604	30481.134515886	1.5	0.1
0.01	1	0.0898479509996832	1	84	NA	262.812813337001	0	0.25	2.9	1	261.136052122998	261.225900073998	"24"	30483.556887604	30481.134515886	1.5	0.1
0.01	1	0.269909368998924	1	84	NA	262.812813337001	0	0.25	2.9	1	261.453287343	261.723196711999	"24"	30483.556887604	30481.134515886	1.5	0.1
0.01	1	0.233681729001546	1	84	NA	262.812813337001	0	0.25	2.9	1	261.954135354998	262.187817083999	"24"	30483.556887604	30481.134515886	1.5	0.1
0.01	1	0.389672745001008	2	84	NA	262.812813337001	0	0.25	2.9	1	262.421567212998	262.811239957999	"24"	30483.556887604	30481.134515886	1.5	0.1
0.01	1	0.263993951997691	1	22	270.738321754998	NA	1	0	2.9	1	264.858972053	265.122966004998	"25"	30483.556887604	30481.134515886	1.5	0.1
0.01	1	0.00337414399837144	1	22	270.738321754998	NA	1	0	2.9	1	265.359748012001	265.363122155999	"25"	30483.556887604	30481.134515886	1.5	0.1
0.01	1	0.00198552000074415	1	22	270.738321754998	NA	1	0	2.9	1	265.593541039998	265.595526559999	"25"	30483.556887604	30481.134515886	1.5	0.1
0.01	1	0.00205921800079523	1	22	270.738321754998	NA	1	0	2.9	1	265.827262535	265.829321753001	"25"	30483.556887604	30481.134515886	1.5	0.1
0.01	1	0.00459722699815757	1	22	270.738321754998	NA	1	0	2.9	1	266.060997768	266.065594994998	"25"	30483.556887604	30481.134515886	1.5	0.1
0.01	1	0.00378005499806022	1	22	270.738321754998	NA	1	0	2.9	1	266.294682205	266.298462259998	"25"	30483.556887604	30481.134515886	1.5	0.1
0.01	1	0.00390805999995791	1	22	270.738321754998	NA	1	0	2.9	1	266.528374597998	266.532282657998	"25"	30483.556887604	30481.134515886	1.5	0.1
0.01	1	0.00396886899761739	1	22	270.738321754998	NA	1	0	2.9	1	266.762201243	266.766170111998	"25"	30483.556887604	30481.134515886	1.5	0.1
0.01	1	0.00458272499963641	1	22	270.738321754998	NA	1	0	2.9	1	266.995884342999	267.000467067999	"25"	30483.556887604	30481.134515886	1.5	0.1
0.01	1	0.00391150300129084	1	22	270.738321754998	NA	1	0	2.9	1	267.229570004998	267.233481507999	"25"	30483.556887604	30481.134515886	1.5	0.1
0.01	1	0.115234125998541	1	22	270.738321754998	NA	1	0	2.9	1	267.46327896	267.578513085999	"25"	30483.556887604	30481.134515886	1.5	0.1
0.01	1	0.00205883300077403	1	22	270.738321754998	NA	1	0	2.9	1	267.813979090999	267.816037924	"25"	30483.556887604	30481.134515886	1.5	0.1
0.01	1	0.00204850100271869	1	22	270.738321754998	NA	1	0	2.9	1	268.047662893998	268.049711395	"25"	30483.556887604	30481.134515886	1.5	0.1
0.01	1	0.00218929999755346	1	22	270.738321754998	NA	1	0	2.9	1	268.281491760001	268.283681059998	"25"	30483.556887604	30481.134515886	1.5	0.1
0.01	1	0.00378530899979523	1	22	270.738321754998	NA	1	0	2.9	1	268.515180495	268.518965804	"25"	30483.556887604	30481.134515886	1.5	0.1
0.01	1	0.00379146500199568	1	22	270.738321754998	NA	1	0	2.9	1	268.748886582998	268.752678048	"25"	30483.556887604	30481.134515886	1.5	0.1
0.01	1	0.00457638700027019	1	22	270.738321754998	NA	1	0	2.9	1	268.982589072999	268.987165459999	"25"	30483.556887604	30481.134515886	1.5	0.1
0.01	1	0.00359071099956054	1	22	270.738321754998	NA	1	0	2.9	1	269.216247414999	269.219838125999	"25"	30483.556887604	30481.134515886	1.5	0.1
0.01	1	0.00210151200008113	1	22	270.738321754998	NA	1	0	2.9	1	269.450042534998	269.452144046998	"25"	30483.556887604	30481.134515886	1.5	0.1
0.01	1	0.00227560299754259	1	22	270.738321754998	NA	1	0	2.9	1	269.683689833	269.685965435998	"25"	30483.556887604	30481.134515886	1.5	0.1
0.01	1	0.124220625999442	1	22	270.738321754998	NA	1	0	2.9	1	269.917482707999	270.041703333998	"25"	30483.556887604	30481.134515886	1.5	0.1
0.01	1	0.359080409001763	1	22	270.738321754998	NA	1	0	2.9	1	270.268019392999	270.627099802001	"25"	30483.556887604	30481.134515886	1.5	0.1
0.01	1	0.205321622997872	1	36	NA	276.228229304998	0	0.09	2.99	1	272.78891028	272.994231902998	"26"	30483.556887604	30481.134515886	1.5	0.1
0.01	1	0.0286542080029903	1	36	NA	276.228229304998	0	0.09	2.99	1	273.223013292998	273.251667501001	"26"	30483.556887604	30481.134515886	1.5	0.1
0.01	1	0.00202921500022057	1	36	NA	276.228229304998	0	0.09	2.99	1	273.490145972999	273.492175187999	"26"	30483.556887604	30481.134515886	1.5	0.1
0.01	1	0.00379844299823162	1	36	NA	276.228229304998	0	0.09	2.99	1	273.723837555001	273.727635997999	"26"	30483.556887604	30481.134515886	1.5	0.1
0.01	1	0.00457465699946624	1	36	NA	276.228229304998	0	0.09	2.99	1	273.957677683	273.962252339999	"26"	30483.556887604	30481.134515886	1.5	0.1
0.01	1	0.00444235000031767	1	36	NA	276.228229304998	0	0.09	2.99	1	274.191294142998	274.195736492999	"26"	30483.556887604	30481.134515886	1.5	0.1
0.01	1	0.00425496900061262	1	36	NA	276.228229304998	0	0.09	2.99	1	274.425072305999	274.429327275	"26"	30483.556887604	30481.134515886	1.5	0.1
0.01	1	0.272267942000326	1	36	NA	276.228229304998	0	0.09	2.99	1	274.658707777999	274.930975719999	"26"	30483.556887604	30481.134515886	1.5	0.1
0.01	1	0.395541477002553	1	36	NA	276.228229304998	0	0.09	2.99	1	275.159630097998	275.555171575001	"26"	30483.556887604	30481.134515886	1.5	0.1
0.01	1	0.449358982998092	2	36	NA	276.228229304998	0	0.09	2.99	1	275.777257628	276.226616610998	"26"	30483.556887604	30481.134515886	1.5	0.1
0.01	1	0.352589545000228	1	124	NA	279.147823216001	0	0.01	3	1	278.281473225001	278.634062770001	"27"	30483.556887604	30481.134515886	1.5	0.1
0.01	1	0.280389409999771	2	124	NA	279.147823216001	0	0.01	3	1	278.865912477999	279.146301887999	"27"	30483.556887604	30481.134515886	1.5	0.1
0.01	1	0.336475169999176	1	13	284.695263207999	NA	1	0	3	1	281.203125962998	281.539601132998	"28"	30483.556887604	30481.134515886	1.5	0.1
0.01	1	0.00256590999924811	1	13	284.695263207999	NA	1	0	3	1	281.770647858	281.773213768	"28"	30483.556887604	30481.134515886	1.5	0.1
0.01	1	0.00461969999741996	1	13	284.695263207999	NA	1	0	3	1	282.004500478	282.009120177998	"28"	30483.556887604	30481.134515886	1.5	0.1
0.01	1	0.00389541399999871	1	13	284.695263207999	NA	1	0	3	1	282.238196168	282.242091582	"28"	30483.556887604	30481.134515886	1.5	0.1
0.01	1	0.00460971699794754	1	13	284.695263207999	NA	1	0	3	1	282.471872028	282.476481744998	"28"	30483.556887604	30481.134515886	1.5	0.1
0.01	1	0.00398427300024196	1	13	284.695263207999	NA	1	0	3	1	282.705656272999	282.709640546	"28"	30483.556887604	30481.134515886	1.5	0.1
0.01	1	0.00407501899826457	1	13	284.695263207999	NA	1	0	3	1	282.939419963001	282.943494981999	"28"	30483.556887604	30481.134515886	1.5	0.1
0.01	1	0.00455312000121921	1	13	284.695263207999	NA	1	0	3	1	283.173091912999	283.177645033	"28"	30483.556887604	30481.134515886	1.5	0.1
0.01	1	0.00388072400164674	1	13	284.695263207999	NA	1	0	3	1	283.406789217999	283.410669942001	"28"	30483.556887604	30481.134515886	1.5	0.1
0.01	1	0.00204958500034991	1	13	284.695263207999	NA	1	0	3	1	283.640484301999	283.642533886999	"28"	30483.556887604	30481.134515886	1.5	0.1
0.01	1	0.0716971789988747	1	13	284.695263207999	NA	1	0	3	1	283.874318718001	283.946015897	"28"	30483.556887604	30481.134515886	1.5	0.1
0.01	1	0.123042942999746	1	13	284.695263207999	NA	1	0	3	1	284.174741359999	284.297784302998	"28"	30483.556887604	30481.134515886	1.5	0.1
0.01	1	0.0543735540013586	1	13	284.695263207999	NA	1	0	3	1	284.525372472999	284.579746027001	"28"	30483.556887604	30481.134515886	1.5	0.1
0.01	1	0.0486716209998121	1	125	NA	287.892412357	0	0.04	3.04	1	286.745797223	286.794468844	"29"	30483.556887604	30481.134515886	1.5	0.1
0.01	1	0.00208904299870483	1	125	NA	287.892412357	0	0.04	3.04	1	287.029656109	287.031745151999	"29"	30483.556887604	30481.134515886	1.5	0.1
0.01	1	0.00391842799945152	1	125	NA	287.892412357	0	0.04	3.04	1	287.26339796	287.267316387999	"29"	30483.556887604	30481.134515886	1.5	0.1
0.01	1	0.00460501999987173	1	125	NA	287.892412357	0	0.04	3.04	1	287.497019222999	287.501624242999	"29"	30483.556887604	30481.134515886	1.5	0.1
0.01	1	0.160108449999825	2	125	NA	287.892412357	0	0.04	3.04	1	287.730730872998	287.890839322998	"29"	30483.556887604	30481.134515886	1.5	0.1
0.01	1	0.0287835069975699	1	105	NA	291.580785482998	0	0.05	3.09	1	289.917748115	289.946531621998	"30"	30483.556887604	30481.134515886	1.5	0.1
0.01	1	0.00488113200117368	1	105	NA	291.580785482998	0	0.05	3.09	1	290.184874447998	290.189755579999	"30"	30483.556887604	30481.134515886	1.5	0.1
0.01	1	0.00384558199948515	1	105	NA	291.580785482998	0	0.05	3.09	1	290.41866308	290.422508661999	"30"	30483.556887604	30481.134515886	1.5	0.1
0.01	1	0.00399706200187211	1	105	NA	291.580785482998	0	0.05	3.09	1	290.652303717998	290.65630078	"30"	30483.556887604	30481.134515886	1.5	0.1
0.01	1	0.0997200569981942	1	105	NA	291.580785482998	0	0.05	3.09	1	290.886022405	290.985742461999	"30"	30483.556887604	30481.134515886	1.5	0.1
0.01	1	0.359294454003248	2	105	NA	291.580785482998	0	0.05	3.09	1	291.219917325998	291.579211780001	"30"	30483.556887604	30481.134515886	1.5	0.1
