"payoff.level"	"balloon"	"rt"	"resp"	"explode.trial"	"explode.time"	"finish.time"	"exploded"	"trial.total"	"cumulative.total"	"finished"	"trial.start"	"trial.end"	"trial.num"	"secs"	"start.time"	"iti"	"isi"
0.01	1	1.53257222000047	1	64	26.4494506000001	NA	1	0	0	1	0.0177367509995747	1.55030897100005	"1"	7334.893790497	7285.932065902	1.5	0.1
0.01	1	0.984036335999917	1	64	26.4494506000001	NA	1	0	0	1	1.85417428999972	2.83821062599964	"1"	7334.893790497	7285.932065902	1.5	0.1
0.01	1	0.703073059999952	1	64	26.4494506000001	NA	1	0	0	1	3.07290634199944	3.77597940199939	"1"	7334.893790497	7285.932065902	1.5	0.1
0.01	1	0.575525416000346	1	64	26.4494506000001	NA	1	0	0	1	4.00774677499976	4.58327219100011	"1"	7334.893790497	7285.932065902	1.5	0.1
0.01	1	0.453874705999624	1	64	26.4494506000001	NA	1	0	0	1	4.80909179999981	5.26296650599943	"1"	7334.893790497	7285.932065902	1.5	0.1
0.01	1	0.360797728999387	1	64	26.4494506000001	NA	1	0	0	1	5.49353285699999	5.85433058599938	"1"	7334.893790497	7285.932065902	1.5	0.1
0.01	1	0.00440360100037651	1	64	26.4494506000001	NA	1	0	0	1	6.07801161399948	6.08241521499986	"1"	7334.893790497	7285.932065902	1.5	0.1
0.01	1	0.462913735999791	1	64	26.4494506000001	NA	1	0	0	1	6.31170223699974	6.77461597299953	"1"	7334.893790497	7285.932065902	1.5	0.1
0.01	1	0.00459009200039873	1	64	26.4494506000001	NA	1	0	0	1	7.01278782499958	7.01737791699998	"1"	7334.893790497	7285.932065902	1.5	0.1
0.01	1	0.695745207999607	1	64	26.4494506000001	NA	1	0	0	1	7.24661969699991	7.94236490499952	"1"	7334.893790497	7285.932065902	1.5	0.1
0.01	1	0.00391077899985248	1	64	26.4494506000001	NA	1	0	0	1	8.16471397999976	8.16862475899961	"1"	7334.893790497	7285.932065902	1.5	0.1
0.01	1	0.00405694199980644	1	64	26.4494506000001	NA	1	0	0	1	8.39852082499965	8.40257776699946	"1"	7334.893790497	7285.932065902	1.5	0.1
0.01	1	0.103847067000061	1	64	26.4494506000001	NA	1	0	0	1	8.63222228199993	8.73606934899999	"1"	7334.893790497	7285.932065902	1.5	0.1
0.01	1	0.00402691199997207	1	64	26.4494506000001	NA	1	0	0	1	8.96611042699988	8.97013733899985	"1"	7334.893790497	7285.932065902	1.5	0.1
0.01	1	0.640422921999743	1	64	26.4494506000001	NA	1	0	0	1	9.19974681199983	9.84016973399957	"1"	7334.893790497	7285.932065902	1.5	0.1
0.01	1	0.14784481300012	1	64	26.4494506000001	NA	1	0	0	1	10.06787618	10.2157209930001	"1"	7334.893790497	7285.932065902	1.5	0.1
0.01	1	0.610609708000084	1	64	26.4494506000001	NA	1	0	0	1	10.4518231899992	11.0624328979993	"1"	7334.893790497	7285.932065902	1.5	0.1
0.01	1	0.00398788699931174	1	64	26.4494506000001	NA	1	0	0	1	11.286694892	11.2906827789993	"1"	7334.893790497	7285.932065902	1.5	0.1
0.01	1	0.00399617600032798	1	64	26.4494506000001	NA	1	0	0	1	11.5205720569993	11.5245682329996	"1"	7334.893790497	7285.932065902	1.5	0.1
0.01	1	0.00394723199951841	1	64	26.4494506000001	NA	1	0	0	1	11.7541813150001	11.7581285469996	"1"	7334.893790497	7285.932065902	1.5	0.1
0.01	1	0.00381341100001009	1	64	26.4494506000001	NA	1	0	0	1	11.9878177419996	11.9916311529996	"1"	7334.893790497	7285.932065902	1.5	0.1
0.01	1	0.00372743900061323	1	64	26.4494506000001	NA	1	0	0	1	12.2215210099994	12.225248449	"1"	7334.893790497	7285.932065902	1.5	0.1
0.01	1	0.135619003999636	1	64	26.4494506000001	NA	1	0	0	1	12.4552723699999	12.5908913739995	"1"	7334.893790497	7285.932065902	1.5	0.1
0.01	1	0.600698837999516	1	64	26.4494506000001	NA	1	0	0	1	12.8226378469999	13.4233366849994	"1"	7334.893790497	7285.932065902	1.5	0.1
0.01	1	0.00369033300012234	1	64	26.4494506000001	NA	1	0	0	1	13.6574184199999	13.661108753	"1"	7334.893790497	7285.932065902	1.5	0.1
0.01	1	0.09270704499977	1	64	26.4494506000001	NA	1	0	0	1	13.8909729199995	13.9836799649993	"1"	7334.893790497	7285.932065902	1.5	0.1
0.01	1	0.00382471500051906	1	64	26.4494506000001	NA	1	0	0	1	14.2082241419994	14.2120488569999	"1"	7334.893790497	7285.932065902	1.5	0.1
0.01	1	0.0366983600006279	1	64	26.4494506000001	NA	1	0	0	1	14.4420009319992	14.4786992919999	"1"	7334.893790497	7285.932065902	1.5	0.1
0.01	1	0.00402376700003515	1	64	26.4494506000001	NA	1	0	0	1	14.7091272600001	14.7131510270001	"1"	7334.893790497	7285.932065902	1.5	0.1
0.01	1	0.0489346040003511	1	64	26.4494506000001	NA	1	0	0	1	14.9428402599997	14.991774864	"1"	7334.893790497	7285.932065902	1.5	0.1
0.01	1	0.501296649999858	1	64	26.4494506000001	NA	1	0	0	1	15.2266356499995	15.7279322999993	"1"	7334.893790497	7285.932065902	1.5	0.1
0.01	1	0.00463473499985412	1	64	26.4494506000001	NA	1	0	0	1	15.9613190399996	15.9659537749994	"1"	7334.893790497	7285.932065902	1.5	0.1
0.01	1	0.0039011720000417	1	64	26.4494506000001	NA	1	0	0	1	16.1949052769996	16.1988064489997	"1"	7334.893790497	7285.932065902	1.5	0.1
0.01	1	0.0739048179993915	1	64	26.4494506000001	NA	1	0	0	1	16.4287388769999	16.5026436949993	"1"	7334.893790497	7285.932065902	1.5	0.1
0.01	1	0.00467266000032396	1	64	26.4494506000001	NA	1	0	0	1	16.7291416649996	16.7338143249999	"1"	7334.893790497	7285.932065902	1.5	0.1
0.01	1	0.00382787299986376	1	64	26.4494506000001	NA	1	0	0	1	16.9629985619995	16.9668264349993	"1"	7334.893790497	7285.932065902	1.5	0.1
0.01	1	0.465636765000454	1	64	26.4494506000001	NA	1	0	0	1	17.1965570349994	17.6621937999998	"1"	7334.893790497	7285.932065902	1.5	0.1
0.01	1	0.00336061399957543	1	64	26.4494506000001	NA	1	0	0	1	17.897808443	17.9011690569996	"1"	7334.893790497	7285.932065902	1.5	0.1
0.01	1	0.00348159100030898	1	64	26.4494506000001	NA	1	0	0	1	18.1315154699996	18.1349970609999	"1"	7334.893790497	7285.932065902	1.5	0.1
0.01	1	0.528930002000379	1	64	26.4494506000001	NA	1	0	0	1	18.3652190619996	18.894149064	"1"	7334.893790497	7285.932065902	1.5	0.1
0.01	1	0.169360797999616	1	64	26.4494506000001	NA	1	0	0	1	19.1331867700001	19.3025475679997	"1"	7334.893790497	7285.932065902	1.5	0.1
0.01	1	0.216492056999414	1	64	26.4494506000001	NA	1	0	0	1	19.5338354519999	19.7503275089994	"1"	7334.893790497	7285.932065902	1.5	0.1
0.01	1	0.198907927000619	1	64	26.4494506000001	NA	1	0	0	1	19.9846138739995	20.1835218010001	"1"	7334.893790497	7285.932065902	1.5	0.1
0.01	1	0.323761920000834	1	64	26.4494506000001	NA	1	0	0	1	20.4187005199992	20.7424624400001	"1"	7334.893790497	7285.932065902	1.5	0.1
0.01	1	0.365678995000053	1	64	26.4494506000001	NA	1	0	0	1	20.9696690349992	21.3353480299993	"1"	7334.893790497	7285.932065902	1.5	0.1
0.01	1	0.00382278799952473	1	64	26.4494506000001	NA	1	0	0	1	21.5707086849998	21.5745314729993	"1"	7334.893790497	7285.932065902	1.5	0.1
0.01	1	0.0511892029999217	1	64	26.4494506000001	NA	1	0	0	1	21.8044047519998	21.8555939549997	"1"	7334.893790497	7285.932065902	1.5	0.1
0.01	1	0.12676492799983	1	64	26.4494506000001	NA	1	0	0	1	22.0882245519997	22.2149894799995	"1"	7334.893790497	7285.932065902	1.5	0.1
0.01	1	0.00456621699959214	1	64	26.4494506000001	NA	1	0	0	1	22.4389451349998	22.4435113519994	"1"	7334.893790497	7285.932065902	1.5	0.1
0.01	1	0.078904455999691	1	64	26.4494506000001	NA	1	0	0	1	22.6724974299996	22.7514018859993	"1"	7334.893790497	7285.932065902	1.5	0.1
0.01	1	0.00386923299993214	1	64	26.4494506000001	NA	1	0	0	1	22.9896629219993	22.9935321549992	"1"	7334.893790497	7285.932065902	1.5	0.1
0.01	1	0.0548992100002579	1	64	26.4494506000001	NA	1	0	0	1	23.2234904899997	23.2783896999999	"1"	7334.893790497	7285.932065902	1.5	0.1
0.01	1	0.00393338699996093	1	64	26.4494506000001	NA	1	0	0	1	23.5072542600001	23.511187647	"1"	7334.893790497	7285.932065902	1.5	0.1
0.01	1	0.057270817999779	1	64	26.4494506000001	NA	1	0	0	1	23.7410142399995	23.7982850579992	"1"	7334.893790497	7285.932065902	1.5	0.1
0.01	1	0.00388057300006039	1	64	26.4494506000001	NA	1	0	0	1	24.0248125099997	24.0286930829998	"1"	7334.893790497	7285.932065902	1.5	0.1
0.01	1	0.0613616489999913	1	64	26.4494506000001	NA	1	0	0	1	24.2585126599997	24.3198743089997	"1"	7334.893790497	7285.932065902	1.5	0.1
0.01	1	0.00391632299943012	1	64	26.4494506000001	NA	1	0	0	1	24.5422517719999	24.5461680949993	"1"	7334.893790497	7285.932065902	1.5	0.1
0.01	1	0.102153370000451	1	64	26.4494506000001	NA	1	0	0	1	24.7760370219994	24.8781903919999	"1"	7334.893790497	7285.932065902	1.5	0.1
0.01	1	0.00461449199974595	1	64	26.4494506000001	NA	1	0	0	1	25.1099238449997	25.1145383369994	"1"	7334.893790497	7285.932065902	1.5	0.1
0.01	1	0.00463969500015082	1	64	26.4494506000001	NA	1	0	0	1	25.3437589249997	25.3483986199999	"1"	7334.893790497	7285.932065902	1.5	0.1
0.01	1	0.00466893200064078	1	64	26.4494506000001	NA	1	0	0	1	25.5773148399994	25.5819837720001	"1"	7334.893790497	7285.932065902	1.5	0.1
0.01	1	0.0441186150001158	1	64	26.4494506000001	NA	1	0	0	1	25.8111655299999	25.855284145	"1"	7334.893790497	7285.932065902	1.5	0.1
0.01	1	0.00433225000051607	1	64	26.4494506000001	NA	1	0	0	1	26.0781678999992	26.0825001499998	"1"	7334.893790497	7285.932065902	1.5	0.1
0.01	1	0.0233089149996886	1	64	26.4494506000001	NA	1	0	0	1	26.3119828649997	26.3352917799994	"1"	7334.893790497	7285.932065902	1.5	0.1
0.01	1	1.20484312999997	1	68	NA	39.3293206999997	0	0.25	0.25	1	28.4990002119994	29.7038433419993	"2"	7334.893790497	7285.932065902	1.5	0.1
0.01	1	0.168964329000119	1	68	NA	39.3293206999997	0	0.25	0.25	1	29.9347526699994	30.1037169989995	"2"	7334.893790497	7285.932065902	1.5	0.1
0.01	1	0.0157555100004174	1	68	NA	39.3293206999997	0	0.25	0.25	1	30.3353629899993	30.3511184999998	"2"	7334.893790497	7285.932065902	1.5	0.1
0.01	1	0.00709297799949127	1	68	NA	39.3293206999997	0	0.25	0.25	1	30.5858282549998	30.5929212329993	"2"	7334.893790497	7285.932065902	1.5	0.1
0.01	1	0.00701032699998905	1	68	NA	39.3293206999997	0	0.25	0.25	1	30.8195792319993	30.8265895589993	"2"	7334.893790497	7285.932065902	1.5	0.1
0.01	1	0.00400221800009604	1	68	NA	39.3293206999997	0	0.25	0.25	1	31.0532169849994	31.0572192029995	"2"	7334.893790497	7285.932065902	1.5	0.1
0.01	1	0.00392767500034097	1	68	NA	39.3293206999997	0	0.25	0.25	1	31.2869283699993	31.2908560449996	"2"	7334.893790497	7285.932065902	1.5	0.1
0.01	1	0.00377997300074639	1	68	NA	39.3293206999997	0	0.25	0.25	1	31.5207090119993	31.5244889850001	"2"	7334.893790497	7285.932065902	1.5	0.1
0.01	1	0.00395937499979482	1	68	NA	39.3293206999997	0	0.25	0.25	1	31.7544191500001	31.7583785249999	"2"	7334.893790497	7285.932065902	1.5	0.1
0.01	1	0.00352625000050466	1	68	NA	39.3293206999997	0	0.25	0.25	1	31.9882103149994	31.9917365649999	"2"	7334.893790497	7285.932065902	1.5	0.1
0.01	1	0.0111619070003144	1	68	NA	39.3293206999997	0	0.25	0.25	1	32.2218974899997	32.233059397	"2"	7334.893790497	7285.932065902	1.5	0.1
0.01	1	0.559241757000564	1	68	NA	39.3293206999997	0	0.25	0.25	1	32.4556013149995	33.0148430720001	"2"	7334.893790497	7285.932065902	1.5	0.1
0.01	1	0.102732463999928	1	68	NA	39.3293206999997	0	0.25	0.25	1	33.2402292899997	33.3429617539996	"2"	7334.893790497	7285.932065902	1.5	0.1
0.01	1	0.105521747000239	1	68	NA	39.3293206999997	0	0.25	0.25	1	33.5741084819992	33.6796302289995	"2"	7334.893790497	7285.932065902	1.5	0.1
0.01	1	0.610721690999526	1	68	NA	39.3293206999997	0	0.25	0.25	1	33.9081213999998	34.5188430909993	"2"	7334.893790497	7285.932065902	1.5	0.1
0.01	1	0.111730552999688	1	68	NA	39.3293206999997	0	0.25	0.25	1	34.7427861639999	34.8545167169996	"2"	7334.893790497	7285.932065902	1.5	0.1
0.01	1	0.00439699899925472	1	68	NA	39.3293206999997	0	0.25	0.25	1	35.0767847930001	35.0811817919994	"2"	7334.893790497	7285.932065902	1.5	0.1
0.01	1	0.0160517550002623	1	68	NA	39.3293206999997	0	0.25	0.25	1	35.3104457649997	35.32649752	"2"	7334.893790497	7285.932065902	1.5	0.1
0.01	1	0.00461207500029559	1	68	NA	39.3293206999997	0	0.25	0.25	1	35.5609722049994	35.5655842799997	"2"	7334.893790497	7285.932065902	1.5	0.1
0.01	1	0.572672747999604	1	68	NA	39.3293206999997	0	0.25	0.25	1	35.794552755	36.3672255029996	"2"	7334.893790497	7285.932065902	1.5	0.1
0.01	1	0.386811028000011	1	68	NA	39.3293206999997	0	0.25	0.25	1	36.5959111980001	36.9827222260001	"2"	7334.893790497	7285.932065902	1.5	0.1
0.01	1	0.249900849999904	1	68	NA	39.3293206999997	0	0.25	0.25	1	37.2136216899999	37.4635225399998	"2"	7334.893790497	7285.932065902	1.5	0.1
0.01	1	0.29443154799992	1	68	NA	39.3293206999997	0	0.25	0.25	1	37.6977352049998	37.9921667529998	"2"	7334.893790497	7285.932065902	1.5	0.1
0.01	1	0.144768749999457	1	68	NA	39.3293206999997	0	0.25	0.25	1	38.2153027300001	38.3600714799995	"2"	7334.893790497	7285.932065902	1.5	0.1
0.01	1	0.00378832800015516	1	68	NA	39.3293206999997	0	0.25	0.25	1	38.5825295349996	38.5863178629997	"2"	7334.893790497	7285.932065902	1.5	0.1
0.01	1	0.511303431999295	2	68	NA	39.3293206999997	0	0.25	0.25	1	38.816440992	39.3277444239993	"2"	7334.893790497	7285.932065902	1.5	0.1
0.01	1	0.72462374800034	1	33	NA	55.9138672159997	0	0.31	0.56	1	41.3705938919993	42.0952176399996	"3"	7334.893790497	7285.932065902	1.5	0.1
0.01	1	0.00389207899934263	1	33	NA	55.9138672159997	0	0.31	0.56	1	42.3224352699999	42.3263273489993	"3"	7334.893790497	7285.932065902	1.5	0.1
0.01	1	0.0438881889995173	1	33	NA	55.9138672159997	0	0.31	0.56	1	42.555968355	42.5998565439995	"3"	7334.893790497	7285.932065902	1.5	0.1
0.01	1	0.0046421899996858	1	33	NA	55.9138672159997	0	0.31	0.56	1	42.839772415	42.8444146049997	"3"	7334.893790497	7285.932065902	1.5	0.1
0.01	1	0.516951583000264	1	33	NA	55.9138672159997	0	0.31	0.56	1	43.0734350519997	43.590386635	"3"	7334.893790497	7285.932065902	1.5	0.1
0.01	1	0.254636699999537	1	33	NA	55.9138672159997	0	0.31	0.56	1	43.8247660970001	44.0794027969996	"3"	7334.893790497	7285.932065902	1.5	0.1
0.01	1	0.258864965999237	1	33	NA	55.9138672159997	0	0.31	0.56	1	44.309009992	44.5678749579993	"3"	7334.893790497	7285.932065902	1.5	0.1
0.01	1	0.0290831629999957	1	33	NA	55.9138672159997	0	0.31	0.56	1	44.7931431799998	44.8222263429998	"3"	7334.893790497	7285.932065902	1.5	0.1
0.01	1	0.546046329000092	1	33	NA	55.9138672159997	0	0.31	0.56	1	45.0602208969995	45.6062672259995	"3"	7334.893790497	7285.932065902	1.5	0.1
0.01	1	0.0264645920005933	1	33	NA	55.9138672159997	0	0.31	0.56	1	45.8447773399994	45.871241932	"3"	7334.893790497	7285.932065902	1.5	0.1
0.01	1	0.00252059799913695	1	33	NA	55.9138672159997	0	0.31	0.56	1	46.0952501490001	46.0977707469992	"3"	7334.893790497	7285.932065902	1.5	0.1
0.01	1	0.501460086000407	1	33	NA	55.9138672159997	0	0.31	0.56	1	46.3289468599996	46.830406946	"3"	7334.893790497	7285.932065902	1.5	0.1
0.01	1	0.184338934000152	1	33	NA	55.9138672159997	0	0.31	0.56	1	47.0636032849998	47.2479422189999	"3"	7334.893790497	7285.932065902	1.5	0.1
0.01	1	0.0782180109999899	1	33	NA	55.9138672159997	0	0.31	0.56	1	47.4808976089998	47.5591156199998	"3"	7334.893790497	7285.932065902	1.5	0.1
0.01	1	0.0892445849995056	1	33	NA	55.9138672159997	0	0.31	0.56	1	47.7816316899998	47.8708762749993	"3"	7334.893790497	7285.932065902	1.5	0.1
0.01	1	0.340945746000216	1	33	NA	55.9138672159997	0	0.31	0.56	1	48.0986713349994	48.4396170809996	"3"	7334.893790497	7285.932065902	1.5	0.1
0.01	1	0.244791244000226	1	33	NA	55.9138672159997	0	0.31	0.56	1	48.6661046649997	48.9108959089999	"3"	7334.893790497	7285.932065902	1.5	0.1
0.01	1	0.24200011999983	1	33	NA	55.9138672159997	0	0.31	0.56	1	49.1336495799997	49.3756496999995	"3"	7334.893790497	7285.932065902	1.5	0.1
0.01	1	0.230175523000071	1	33	NA	55.9138672159997	0	0.31	0.56	1	49.601173815	49.8313493380001	"3"	7334.893790497	7285.932065902	1.5	0.1
0.01	1	0.194103338999412	1	33	NA	55.9138672159997	0	0.31	0.56	1	50.0687288099998	50.2628321489992	"3"	7334.893790497	7285.932065902	1.5	0.1
0.01	1	0.233026724999945	1	33	NA	55.9138672159997	0	0.31	0.56	1	50.485998057	50.7190247819999	"3"	7334.893790497	7285.932065902	1.5	0.1
0.01	1	0.20522985900061	1	33	NA	55.9138672159997	0	0.31	0.56	1	50.9535935199992	51.1588233789998	"3"	7334.893790497	7285.932065902	1.5	0.1
0.01	1	0.180272653999964	1	33	NA	55.9138672159997	0	0.31	0.56	1	51.3875939949994	51.5678666489994	"3"	7334.893790497	7285.932065902	1.5	0.1
0.01	1	0.410134491000463	1	33	NA	55.9138672159997	0	0.31	0.56	1	51.8048739819997	52.2150084730001	"3"	7334.893790497	7285.932065902	1.5	0.1
0.01	1	0.032026560000304	1	33	NA	55.9138672159997	0	0.31	0.56	1	52.4393002319994	52.4713267919997	"3"	7334.893790497	7285.932065902	1.5	0.1
0.01	1	0.00200722499994299	1	33	NA	55.9138672159997	0	0.31	0.56	1	52.7063639849994	52.7083712099993	"3"	7334.893790497	7285.932065902	1.5	0.1
0.01	1	0.411112283999501	1	33	NA	55.9138672159997	0	0.31	0.56	1	52.9401368019999	53.3512490859994	"3"	7334.893790497	7285.932065902	1.5	0.1
0.01	1	0.328720605999479	1	33	NA	55.9138672159997	0	0.31	0.56	1	53.574546455	53.9032670609995	"3"	7334.893790497	7285.932065902	1.5	0.1
0.01	1	0.521883682999942	1	33	NA	55.9138672159997	0	0.31	0.56	1	54.1253923149998	54.6472759979997	"3"	7334.893790497	7285.932065902	1.5	0.1
0.01	1	0.275071330000173	1	33	NA	55.9138672159997	0	0.31	0.56	1	54.8767267499998	55.1517980799999	"3"	7334.893790497	7285.932065902	1.5	0.1
0.01	1	0.00389674300004117	1	33	NA	55.9138672159997	0	0.31	0.56	1	55.3774531119998	55.3813498549998	"3"	7334.893790497	7285.932065902	1.5	0.1
0.01	1	0.301058240000202	2	33	NA	55.9138672159997	0	0.31	0.56	1	55.6112598999998	55.91231814	"3"	7334.893790497	7285.932065902	1.5	0.1
0.01	1	0.37884502199995	1	105	NA	75.6968698689998	0	0.37	0.93	1	57.9484898699993	58.3273348919993	"4"	7334.893790497	7285.932065902	1.5	0.1
0.01	1	0.00373360200046591	1	105	NA	75.6968698689998	0	0.37	0.93	1	58.5662334849994	58.5699670869999	"4"	7334.893790497	7285.932065902	1.5	0.1
0.01	1	0.0957322500007649	1	105	NA	75.6968698689998	0	0.37	0.93	1	58.7999689499993	58.8957012000001	"4"	7334.893790497	7285.932065902	1.5	0.1
0.01	1	0.00396514400017622	1	105	NA	75.6968698689998	0	0.37	0.93	1	59.1338579349995	59.1378230789996	"4"	7334.893790497	7285.932065902	1.5	0.1
0.01	1	0.0721524700002192	1	105	NA	75.6968698689998	0	0.37	0.93	1	59.3676880499997	59.43984052	"4"	7334.893790497	7285.932065902	1.5	0.1
0.01	1	0.00388088300042	1	105	NA	75.6968698689998	0	0.37	0.93	1	59.6680960899994	59.6719769729998	"4"	7334.893790497	7285.932065902	1.5	0.1
0.01	1	0.00463284499983274	1	105	NA	75.6968698689998	0	0.37	0.93	1	59.9017662349997	59.9063990799996	"4"	7334.893790497	7285.932065902	1.5	0.1
0.01	1	0.111788445999991	1	105	NA	75.6968698689998	0	0.37	0.93	1	60.1355344369995	60.2473228829995	"4"	7334.893790497	7285.932065902	1.5	0.1
0.01	1	0.00415095900007145	1	105	NA	75.6968698689998	0	0.37	0.93	1	60.4693169899992	60.4734679489993	"4"	7334.893790497	7285.932065902	1.5	0.1
0.01	1	0.00224084000001312	1	105	NA	75.6968698689998	0	0.37	0.93	1	60.7031807969997	60.7054216369997	"4"	7334.893790497	7285.932065902	1.5	0.1
0.01	1	0.00383292799961055	1	105	NA	75.6968698689998	0	0.37	0.93	1	60.936836975	60.9406699029996	"4"	7334.893790497	7285.932065902	1.5	0.1
0.01	1	0.0024982060003822	1	105	NA	75.6968698689998	0	0.37	0.93	1	61.1706429629994	61.1731411689998	"4"	7334.893790497	7285.932065902	1.5	0.1
0.01	1	0.00207011700058501	1	105	NA	75.6968698689998	0	0.37	0.93	1	61.4044163869994	61.406486504	"4"	7334.893790497	7285.932065902	1.5	0.1
0.01	1	0.00199814000006882	1	105	NA	75.6968698689998	0	0.37	0.93	1	61.6380519249997	61.6400500649997	"4"	7334.893790497	7285.932065902	1.5	0.1
0.01	1	0.00388335499974346	1	105	NA	75.6968698689998	0	0.37	0.93	1	61.8717356019997	61.8756189569995	"4"	7334.893790497	7285.932065902	1.5	0.1
0.01	1	0.0925675400003456	1	105	NA	75.6968698689998	0	0.37	0.93	1	62.1055479899996	62.19811553	"4"	7334.893790497	7285.932065902	1.5	0.1
0.01	1	0.0325582220002616	1	105	NA	75.6968698689998	0	0.37	0.93	1	62.4227072949998	62.455265517	"4"	7334.893790497	7285.932065902	1.5	0.1
0.01	1	0.670221452000078	1	105	NA	75.6968698689998	0	0.37	0.93	1	62.6899257099994	63.3601471619995	"4"	7334.893790497	7285.932065902	1.5	0.1
0.01	1	0.0044962719994146	1	105	NA	75.6968698689998	0	0.37	0.93	1	63.5914414680001	63.5959377399995	"4"	7334.893790497	7285.932065902	1.5	0.1
0.01	1	0.591132174999984	1	105	NA	75.6968698689998	0	0.37	0.93	1	63.825112777	64.4162449519999	"4"	7334.893790497	7285.932065902	1.5	0.1
0.01	1	0.0022030319996702	1	105	NA	75.6968698689998	0	0.37	0.93	1	64.6431116889999	64.6453147209995	"4"	7334.893790497	7285.932065902	1.5	0.1
0.01	1	0.377844642000127	1	105	NA	75.6968698689998	0	0.37	0.93	1	64.8768568199994	65.2547014619995	"4"	7334.893790497	7285.932065902	1.5	0.1
0.01	1	0.488280859000042	1	105	NA	75.6968698689998	0	0.37	0.93	1	65.4778809049994	65.9661617639995	"4"	7334.893790497	7285.932065902	1.5	0.1
0.01	1	0.00206882200018299	1	105	NA	75.6968698689998	0	0.37	0.93	1	66.1957478519998	66.197816674	"4"	7334.893790497	7285.932065902	1.5	0.1
0.01	1	0.514087839999775	1	105	NA	75.6968698689998	0	0.37	0.93	1	66.4294878149994	66.9435756549992	"4"	7334.893790497	7285.932065902	1.5	0.1
0.01	1	0.242130148000797	1	105	NA	75.6968698689998	0	0.37	0.93	1	67.1807774619992	67.42290761	"4"	7334.893790497	7285.932065902	1.5	0.1
0.01	1	0.158105745000285	1	105	NA	75.6968698689998	0	0.37	0.93	1	67.6483279499998	67.8064336950001	"4"	7334.893790497	7285.932065902	1.5	0.1
0.01	1	0.00380664600015734	1	105	NA	75.6968698689998	0	0.37	0.93	1	68.0321128369997	68.0359194829998	"4"	7334.893790497	7285.932065902	1.5	0.1
0.01	1	0.0445304429995304	1	105	NA	75.6968698689998	0	0.37	0.93	1	68.2658969519998	68.3104273949994	"4"	7334.893790497	7285.932065902	1.5	0.1
0.01	1	0.0045550569993793	1	105	NA	75.6968698689998	0	0.37	0.93	1	68.5330156549999	68.5375707119993	"4"	7334.893790497	7285.932065902	1.5	0.1
0.01	1	0.00243697099995188	1	105	NA	75.6968698689998	0	0.37	0.93	1	68.7667492849996	68.7691862559996	"4"	7334.893790497	7285.932065902	1.5	0.1
0.01	1	1.21578387200043	1	105	NA	75.6968698689998	0	0.37	0.93	1	69.0004690549995	70.2162529269999	"4"	7334.893790497	7285.932065902	1.5	0.1
0.01	1	1.33119975299996	1	105	NA	75.6968698689998	0	0.37	0.93	1	70.4529818769997	71.7841816299997	"4"	7334.893790497	7285.932065902	1.5	0.1
0.01	1	1.17733958099961	1	105	NA	75.6968698689998	0	0.37	0.93	1	72.0221721819998	73.1995117629995	"4"	7334.893790497	7285.932065902	1.5	0.1
0.01	1	0.605942147999485	1	105	NA	75.6968698689998	0	0.37	0.93	1	73.4246621849998	74.0306043329992	"4"	7334.893790497	7285.932065902	1.5	0.1
0.01	1	0.372097065000162	1	105	NA	75.6968698689998	0	0.37	0.93	1	74.2593453749996	74.6314424399998	"4"	7334.893790497	7285.932065902	1.5	0.1
0.01	1	0.0264720499999385	1	105	NA	75.6968698689998	0	0.37	0.93	1	74.8603409669995	74.8868130169994	"4"	7334.893790497	7285.932065902	1.5	0.1
0.01	1	0.567851407000489	2	105	NA	75.6968698689998	0	0.37	0.93	1	75.1274454799996	75.695296887	"4"	7334.893790497	7285.932065902	1.5	0.1
0.01	1	0.55535786099972	1	73	NA	92.1294784029997	0	0.36	1.29	1	77.7485737999996	78.3039316609993	"5"	7334.893790497	7285.932065902	1.5	0.1
0.01	1	0.121303924999665	1	73	NA	92.1294784029997	0	0.36	1.29	1	78.5332525249996	78.6545564499993	"5"	7334.893790497	7285.932065902	1.5	0.1
0.01	1	0.00389917499978765	1	73	NA	92.1294784029997	0	0.36	1.29	1	78.8837691299996	78.8876683049994	"5"	7334.893790497	7285.932065902	1.5	0.1
0.01	1	0.0568138359994919	1	73	NA	92.1294784029997	0	0.36	1.29	1	79.117493582	79.1743074179994	"5"	7334.893790497	7285.932065902	1.5	0.1
0.01	1	0.00205196600018098	1	73	NA	92.1294784029997	0	0.36	1.29	1	79.4013942149995	79.4034461809997	"5"	7334.893790497	7285.932065902	1.5	0.1
0.01	1	0.043086838999443	1	73	NA	92.1294784029997	0	0.36	1.29	1	79.6350264849998	79.6781133239992	"5"	7334.893790497	7285.932065902	1.5	0.1
0.01	1	0.113232515000163	1	73	NA	92.1294784029997	0	0.36	1.29	1	79.9023265549995	80.0155590699997	"5"	7334.893790497	7285.932065902	1.5	0.1
0.01	1	0.30689640699984	1	73	NA	92.1294784029997	0	0.36	1.29	1	80.2528227249995	80.5597191319994	"5"	7334.893790497	7285.932065902	1.5	0.1
0.01	1	0.0046136219998516	1	73	NA	92.1294784029997	0	0.36	1.29	1	80.7870267199996	80.7916403419995	"5"	7334.893790497	7285.932065902	1.5	0.1
0.01	1	0.0753264199993282	1	73	NA	92.1294784029997	0	0.36	1.29	1	81.0207525400001	81.0960789599994	"5"	7334.893790497	7285.932065902	1.5	0.1
0.01	1	0.141350863000298	1	73	NA	92.1294784029997	0	0.36	1.29	1	81.3212255169992	81.4625763799995	"5"	7334.893790497	7285.932065902	1.5	0.1
0.01	1	0.294612614000471	1	73	NA	92.1294784029997	0	0.36	1.29	1	81.6884491349992	81.9830617489997	"5"	7334.893790497	7285.932065902	1.5	0.1
0.01	1	0.0884233370006768	1	73	NA	92.1294784029997	0	0.36	1.29	1	82.2060653969993	82.294488734	"5"	7334.893790497	7285.932065902	1.5	0.1
0.01	1	0.0039909009992698	1	73	NA	92.1294784029997	0	0.36	1.29	1	82.52317279	82.5271636909993	"5"	7334.893790497	7285.932065902	1.5	0.1
0.01	1	0.0272601500000746	1	73	NA	92.1294784029997	0	0.36	1.29	1	82.7570058749998	82.7842660249999	"5"	7334.893790497	7285.932065902	1.5	0.1
0.01	1	1.14418554299937	1	73	NA	92.1294784029997	0	0.36	1.29	1	83.0240539599999	84.1682395029993	"5"	7334.893790497	7285.932065902	1.5	0.1
0.01	1	0.00398784299977706	1	73	NA	92.1294784029997	0	0.36	1.29	1	84.3930269519997	84.3970147949994	"5"	7334.893790497	7285.932065902	1.5	0.1
0.01	1	0.00207388099988748	1	73	NA	92.1294784029997	0	0.36	1.29	1	84.626804689	84.6288785699999	"5"	7334.893790497	7285.932065902	1.5	0.1
0.01	1	0.55540573899998	1	73	NA	92.1294784029997	0	0.36	1.29	1	84.860556865	85.415962604	"5"	7334.893790497	7285.932065902	1.5	0.1
0.01	1	0.106500095000229	1	73	NA	92.1294784029997	0	0.36	1.29	1	85.6451589749995	85.7516590699997	"5"	7334.893790497	7285.932065902	1.5	0.1
0.01	1	1.0916434719993	1	73	NA	92.1294784029997	0	0.36	1.29	1	85.9790471850001	87.0706906569994	"5"	7334.893790497	7285.932065902	1.5	0.1
0.01	1	0.0204962670004534	1	73	NA	92.1294784029997	0	0.36	1.29	1	87.2979630419995	87.318459309	"5"	7334.893790497	7285.932065902	1.5	0.1
0.01	1	0.0267373120004777	1	73	NA	92.1294784029997	0	0.36	1.29	1	87.5483395519996	87.575076864	"5"	7334.893790497	7285.932065902	1.5	0.1
0.01	1	0.0111553930000809	1	73	NA	92.1294784029997	0	0.36	1.29	1	87.79888364	87.8100390330001	"5"	7334.893790497	7285.932065902	1.5	0.1
0.01	1	0.0228737360002924	1	73	NA	92.1294784029997	0	0.36	1.29	1	88.0324772699996	88.0553510059999	"5"	7334.893790497	7285.932065902	1.5	0.1
0.01	1	0.0203700179999942	1	73	NA	92.1294784029997	0	0.36	1.29	1	88.2829105169994	88.3032805349994	"5"	7334.893790497	7285.932065902	1.5	0.1
0.01	1	0.0111883480003598	1	73	NA	92.1294784029997	0	0.36	1.29	1	88.5334870449997	88.544675393	"5"	7334.893790497	7285.932065902	1.5	0.1
0.01	1	0.00984020500072802	1	73	NA	92.1294784029997	0	0.36	1.29	1	88.7670832549993	88.77692346	"5"	7334.893790497	7285.932065902	1.5	0.1
0.01	1	0.00343948999943677	1	73	NA	92.1294784029997	0	0.36	1.29	1	89.0007623649999	89.0042018549993	"5"	7334.893790497	7285.932065902	1.5	0.1
0.01	1	0.00440628599972115	1	73	NA	92.1294784029997	0	0.36	1.29	1	89.2344840539999	89.2388903399997	"5"	7334.893790497	7285.932065902	1.5	0.1
0.01	1	0.115293318999647	1	73	NA	92.1294784029997	0	0.36	1.29	1	89.4682585820001	89.5835519009997	"5"	7334.893790497	7285.932065902	1.5	0.1
0.01	1	0.00393377199998213	1	73	NA	92.1294784029997	0	0.36	1.29	1	89.8188243949999	89.8227581669998	"5"	7334.893790497	7285.932065902	1.5	0.1
0.01	1	0.0272674949992506	1	73	NA	92.1294784029997	0	0.36	1.29	1	90.0525124400001	90.0797799349994	"5"	7334.893790497	7285.932065902	1.5	0.1
0.01	1	0.00389573899974494	1	73	NA	92.1294784029997	0	0.36	1.29	1	90.3030262299999	90.3069219689996	"5"	7334.893790497	7285.932065902	1.5	0.1
0.01	1	0.0159457660001863	1	73	NA	92.1294784029997	0	0.36	1.29	1	90.5366522199993	90.5525979859995	"5"	7334.893790497	7285.932065902	1.5	0.1
0.01	1	0.467486646999532	1	73	NA	92.1294784029997	0	0.36	1.29	1	90.787152545	91.2546391919996	"5"	7334.893790497	7285.932065902	1.5	0.1
0.01	1	0.639619026999753	2	73	NA	92.1294784029997	0	0.36	1.29	1	91.4883345079998	92.1279535349995	"5"	7334.893790497	7285.932065902	1.5	0.1
0.01	1	0.711068139000417	1	45	112.711374082	NA	1	0	1.29	1	94.1762350049994	94.8873031439998	"6"	7334.893790497	7285.932065902	1.5	0.1
0.01	1	0.00460792200010474	1	45	112.711374082	NA	1	0	1.29	1	95.1278281599998	95.1324360819999	"6"	7334.893790497	7285.932065902	1.5	0.1
0.01	1	0.31813719100046	1	45	112.711374082	NA	1	0	1.29	1	95.3614645399994	95.6796017309998	"6"	7334.893790497	7285.932065902	1.5	0.1
0.01	1	0.0464505750005628	1	45	112.711374082	NA	1	0	1.29	1	95.9124637549994	95.95891433	"6"	7334.893790497	7285.932065902	1.5	0.1
0.01	1	0.0352870629994868	1	45	112.711374082	NA	1	0	1.29	1	96.1962198900001	96.2315069529996	"6"	7334.893790497	7285.932065902	1.5	0.1
0.01	1	0.0467906189996938	1	45	112.711374082	NA	1	0	1.29	1	96.463351894	96.5101425129997	"6"	7334.893790497	7285.932065902	1.5	0.1
0.01	1	0.0604894369998874	1	45	112.711374082	NA	1	0	1.29	1	96.7472082449995	96.8076976819993	"6"	7334.893790497	7285.932065902	1.5	0.1
0.01	1	0.0559833779998371	1	45	112.711374082	NA	1	0	1.29	1	97.0309918369994	97.0869752149993	"6"	7334.893790497	7285.932065902	1.5	0.1
0.01	1	0.0692032469996775	1	45	112.711374082	NA	1	0	1.29	1	97.3148683769996	97.3840716239993	"6"	7334.893790497	7285.932065902	1.5	0.1
0.01	1	0.0401924320003673	1	45	112.711374082	NA	1	0	1.29	1	97.6152881499993	97.6554805819997	"6"	7334.893790497	7285.932065902	1.5	0.1
0.01	1	0.101139821000288	1	45	112.711374082	NA	1	0	1.29	1	97.8825254879994	97.9836653089997	"6"	7334.893790497	7285.932065902	1.5	0.1
0.01	1	0.0396912039996096	1	45	112.711374082	NA	1	0	1.29	1	98.2163189849998	98.2560101889994	"6"	7334.893790497	7285.932065902	1.5	0.1
0.01	1	0.00315747599961469	1	45	112.711374082	NA	1	0	1.29	1	98.4833528529998	98.4865103289994	"6"	7334.893790497	7285.932065902	1.5	0.1
0.01	1	0.122242382999502	1	45	112.711374082	NA	1	0	1.29	1	98.717011535	98.8392539179995	"6"	7334.893790497	7285.932065902	1.5	0.1
0.01	1	0.123920923999322	1	45	112.711374082	NA	1	0	1.29	1	99.067678165	99.1915990889993	"6"	7334.893790497	7285.932065902	1.5	0.1
0.01	1	0.108263568999973	1	45	112.711374082	NA	1	0	1.29	1	99.4182809919994	99.5265445609994	"6"	7334.893790497	7285.932065902	1.5	0.1
0.01	1	0.0712319519998346	1	45	112.711374082	NA	1	0	1.29	1	99.7521606849996	99.8233926369994	"6"	7334.893790497	7285.932065902	1.5	0.1
0.01	1	0.0816963960005523	1	45	112.711374082	NA	1	0	1.29	1	100.052776836999	100.134473233	"6"	7334.893790497	7285.932065902	1.5	0.1
0.01	1	0.0039204749991768	1	45	112.711374082	NA	1	0	1.29	1	100.36984982	100.373770294999	"6"	7334.893790497	7285.932065902	1.5	0.1
0.01	1	0.0116238069995234	1	45	112.711374082	NA	1	0	1.29	1	100.60365706	100.615280866999	"6"	7334.893790497	7285.932065902	1.5	0.1
0.01	1	0.00387508199946751	1	45	112.711374082	NA	1	0	1.29	1	100.837369645	100.841244726999	"6"	7334.893790497	7285.932065902	1.5	0.1
0.01	1	0.0330767300001753	1	45	112.711374082	NA	1	0	1.29	1	101.071073999999	101.10415073	"6"	7334.893790497	7285.932065902	1.5	0.1
0.01	1	0.00369247800063022	1	45	112.711374082	NA	1	0	1.29	1	101.338149036999	101.341841515	"6"	7334.893790497	7285.932065902	1.5	0.1
0.01	1	0.0264049259994863	1	45	112.711374082	NA	1	0	1.29	1	101.572044935	101.598449861	"6"	7334.893790497	7285.932065902	1.5	0.1
0.01	1	0.00417876099982095	1	45	112.711374082	NA	1	0	1.29	1	101.822307949999	101.826486710999	"6"	7334.893790497	7285.932065902	1.5	0.1
0.01	1	0.0621179039999333	1	45	112.711374082	NA	1	0	1.29	1	102.05607556	102.118193464	"6"	7334.893790497	7285.932065902	1.5	0.1
0.01	1	0.00459529500039935	1	45	112.711374082	NA	1	0	1.29	1	102.339843594999	102.34443889	"6"	7334.893790497	7285.932065902	1.5	0.1
0.01	1	0.0737388729994564	1	45	112.711374082	NA	1	0	1.29	1	102.573658452	102.647397324999	"6"	7334.893790497	7285.932065902	1.5	0.1
0.01	1	0.00376393799979269	1	45	112.711374082	NA	1	0	1.29	1	102.874140137	102.877904075	"6"	7334.893790497	7285.932065902	1.5	0.1
0.01	1	0.196192731999872	1	45	112.711374082	NA	1	0	1.29	1	103.107859334999	103.304052066999	"6"	7334.893790497	7285.932065902	1.5	0.1
0.01	1	0.488287530999514	1	45	112.711374082	NA	1	0	1.29	1	103.542014832	104.030302362999	"6"	7334.893790497	7285.932065902	1.5	0.1
0.01	1	0.251457131999814	1	45	112.711374082	NA	1	0	1.29	1	104.259879456999	104.511336588999	"6"	7334.893790497	7285.932065902	1.5	0.1
0.01	1	0.254670684999837	1	45	112.711374082	NA	1	0	1.29	1	104.74395465	104.998625335	"6"	7334.893790497	7285.932065902	1.5	0.1
0.01	1	0.252126453000528	1	45	112.711374082	NA	1	0	1.29	1	105.228045739999	105.480172193	"6"	7334.893790497	7285.932065902	1.5	0.1
0.01	1	0.542410166000082	1	45	112.711374082	NA	1	0	1.29	1	105.712206974999	106.254617140999	"6"	7334.893790497	7285.932065902	1.5	0.1
0.01	1	0.126040247000674	1	45	112.711374082	NA	1	0	1.29	1	106.480264981999	106.606305229	"6"	7334.893790497	7285.932065902	1.5	0.1
0.01	1	1.3851077749996	1	45	112.711374082	NA	1	0	1.29	1	106.83079171	108.215899485	"6"	7334.893790497	7285.932065902	1.5	0.1
0.01	1	1.348579169	1	45	112.711374082	NA	1	0	1.29	1	108.450134299999	109.798713468999	"6"	7334.893790497	7285.932065902	1.5	0.1
0.01	1	0.107024162999551	1	45	112.711374082	NA	1	0	1.29	1	110.0361149	110.143139063	"6"	7334.893790497	7285.932065902	1.5	0.1
0.01	1	0.628306339999654	1	45	112.711374082	NA	1	0	1.29	1	110.370059535	110.998365875	"6"	7334.893790497	7285.932065902	1.5	0.1
0.01	1	0.242341346000103	1	45	112.711374082	NA	1	0	1.29	1	111.221538426999	111.463879772999	"6"	7334.893790497	7285.932065902	1.5	0.1
0.01	1	0.133956632999798	1	45	112.711374082	NA	1	0	1.29	1	111.688919445	111.822876077999	"6"	7334.893790497	7285.932065902	1.5	0.1
0.01	1	0.00208676700003707	1	45	112.711374082	NA	1	0	1.29	1	112.056283043	112.05836981	"6"	7334.893790497	7285.932065902	1.5	0.1
0.01	1	0.0698292590004712	1	45	112.711374082	NA	1	0	1.29	1	112.290112395	112.359941654	"6"	7334.893790497	7285.932065902	1.5	0.1
0.01	1	0.00206782100030978	1	45	112.711374082	NA	1	0	1.29	1	112.590463969999	112.592531791	"6"	7334.893790497	7285.932065902	1.5	0.1
0.01	1	0.381376037999871	1	10	117.66876667	NA	1	0	1.29	1	114.760773045	115.142149083	"7"	7334.893790497	7285.932065902	1.5	0.1
0.01	1	0.0021822010003234	1	10	117.66876667	NA	1	0	1.29	1	115.378587886999	115.380770088	"7"	7334.893790497	7285.932065902	1.5	0.1
0.01	1	0.0508195590000469	1	10	117.66876667	NA	1	0	1.29	1	115.612255116999	115.663074675999	"7"	7334.893790497	7285.932065902	1.5	0.1
0.01	1	0.00423099100044055	1	10	117.66876667	NA	1	0	1.29	1	115.896106323999	115.900337315	"7"	7334.893790497	7285.932065902	1.5	0.1
0.01	1	0.0621538590003183	1	10	117.66876667	NA	1	0	1.29	1	116.129740332	116.191894191	"7"	7334.893790497	7285.932065902	1.5	0.1
0.01	1	0.0722646759995769	1	10	117.66876667	NA	1	0	1.29	1	116.43031385	116.502578526	"7"	7334.893790497	7285.932065902	1.5	0.1
0.01	1	0.00391434600078355	1	10	117.66876667	NA	1	0	1.29	1	116.730787834999	116.734702181	"7"	7334.893790497	7285.932065902	1.5	0.1
0.01	1	0.0579098420002992	1	10	117.66876667	NA	1	0	1.29	1	116.964536441999	117.022446284	"7"	7334.893790497	7285.932065902	1.5	0.1
0.01	1	0.00360513299983722	1	10	117.66876667	NA	1	0	1.29	1	117.24826642	117.251871553	"7"	7334.893790497	7285.932065902	1.5	0.1
0.01	1	0.0692845120001948	1	10	117.66876667	NA	1	0	1.29	1	117.481991975	117.551276487	"7"	7334.893790497	7285.932065902	1.5	0.1
0.01	1	0.279629153999849	1	37	130.958413263	NA	1	0	1.29	1	119.719263569999	119.998892723999	"8"	7334.893790497	7285.932065902	1.5	0.1
0.01	1	0.00205271699996956	1	37	130.958413263	NA	1	0	1.29	1	120.236747049999	120.238799766999	"8"	7334.893790497	7285.932065902	1.5	0.1
0.01	1	0.064242562999425	1	37	130.958413263	NA	1	0	1.29	1	120.47048706	120.534729622999	"8"	7334.893790497	7285.932065902	1.5	0.1
0.01	1	0.00392280800042499	1	37	130.958413263	NA	1	0	1.29	1	120.770850755	120.774773563	"8"	7334.893790497	7285.932065902	1.5	0.1
0.01	1	0.0988274329993146	1	37	130.958413263	NA	1	0	1.29	1	121.004628177	121.103455609999	"8"	7334.893790497	7285.932065902	1.5	0.1
0.01	1	0.0771870179996768	1	37	130.958413263	NA	1	0	1.29	1	121.338520877	121.415707894999	"8"	7334.893790497	7285.932065902	1.5	0.1
0.01	1	0.0878727589997652	1	37	130.958413263	NA	1	0	1.29	1	121.63903452	121.726907279	"8"	7334.893790497	7285.932065902	1.5	0.1
0.01	1	0.00463138000031904	1	37	130.958413263	NA	1	0	1.29	1	121.9563357	121.96096708	"8"	7334.893790497	7285.932065902	1.5	0.1
0.01	1	0.0803253590001987	1	37	130.958413263	NA	1	0	1.29	1	122.190019023	122.270344382	"8"	7334.893790497	7285.932065902	1.5	0.1
0.01	1	0.0915575339995485	1	37	130.958413263	NA	1	0	1.29	1	122.50723821	122.598795743999	"8"	7334.893790497	7285.932065902	1.5	0.1
0.01	1	0.0783151840005303	1	37	130.958413263	NA	1	0	1.29	1	122.824386374999	122.902701559	"8"	7334.893790497	7285.932065902	1.5	0.1
0.01	1	0.0021255210003801	1	37	130.958413263	NA	1	0	1.29	1	123.141567189999	123.143692711	"8"	7334.893790497	7285.932065902	1.5	0.1
0.01	1	0.0631575880006494	1	37	130.958413263	NA	1	0	1.29	1	123.375443774999	123.438601363	"8"	7334.893790497	7285.932065902	1.5	0.1
0.01	1	0.00199816100030148	1	37	130.958413263	NA	1	0	1.29	1	123.675776583	123.677774744	"8"	7334.893790497	7285.932065902	1.5	0.1
0.01	1	0.0661790829999518	1	37	130.958413263	NA	1	0	1.29	1	123.909540995	123.975720078	"8"	7334.893790497	7285.932065902	1.5	0.1
0.01	1	0.00197873700017226	1	37	130.958413263	NA	1	0	1.29	1	124.210005878999	124.211984615999	"8"	7334.893790497	7285.932065902	1.5	0.1
0.01	1	0.0983154529994863	1	37	130.958413263	NA	1	0	1.29	1	124.44380414	124.542119592999	"8"	7334.893790497	7285.932065902	1.5	0.1
0.01	1	0.109584978000385	1	37	130.958413263	NA	1	0	1.29	1	124.777670398999	124.887255377	"8"	7334.893790497	7285.932065902	1.5	0.1
0.01	1	0.0045686299999943	1	37	130.958413263	NA	1	0	1.29	1	125.111522419999	125.116091049999	"8"	7334.893790497	7285.932065902	1.5	0.1
0.01	1	0.0784182050001618	1	37	130.958413263	NA	1	0	1.29	1	125.345257045	125.42367525	"8"	7334.893790497	7285.932065902	1.5	0.1
0.01	1	0.00203960300041217	1	37	130.958413263	NA	1	0	1.29	1	125.645769891999	125.647809495	"8"	7334.893790497	7285.932065902	1.5	0.1
0.01	1	0.00391663100072037	1	37	130.958413263	NA	1	0	1.29	1	125.879600679999	125.883517311	"8"	7334.893790497	7285.932065902	1.5	0.1
0.01	1	0.102853837999646	1	37	130.958413263	NA	1	0	1.29	1	126.113275291	126.216129128999	"8"	7334.893790497	7285.932065902	1.5	0.1
0.01	1	0.00202925800022058	1	37	130.958413263	NA	1	0	1.29	1	126.447235172	126.44926443	"8"	7334.893790497	7285.932065902	1.5	0.1
0.01	1	0.126422753999577	1	37	130.958413263	NA	1	0	1.29	1	126.680878212	126.807300965999	"8"	7334.893790497	7285.932065902	1.5	0.1
0.01	1	0.00464056700002402	1	37	130.958413263	NA	1	0	1.29	1	127.031531719999	127.036172286999	"8"	7334.893790497	7285.932065902	1.5	0.1
0.01	1	0.0785352449993297	1	37	130.958413263	NA	1	0	1.29	1	127.265269945	127.343805189999	"8"	7334.893790497	7285.932065902	1.5	0.1
0.01	1	0.00397776799945859	1	37	130.958413263	NA	1	0	1.29	1	127.565716585	127.569694352999	"8"	7334.893790497	7285.932065902	1.5	0.1
0.01	1	0.0648498440004914	1	37	130.958413263	NA	1	0	1.29	1	127.799447654999	127.864297499	"8"	7334.893790497	7285.932065902	1.5	0.1
0.01	1	0.0754843969998547	1	37	130.958413263	NA	1	0	1.29	1	128.100053274999	128.175537671999	"8"	7334.893790497	7285.932065902	1.5	0.1
0.01	1	0.0789059740000084	1	37	130.958413263	NA	1	0	1.29	1	128.400367505	128.479273479	"8"	7334.893790497	7285.932065902	1.5	0.1
0.01	1	0.0250363210006981	1	37	130.958413263	NA	1	0	1.29	1	128.717594244999	128.742630566	"8"	7334.893790497	7285.932065902	1.5	0.1
0.01	1	0.0797230469997885	1	37	130.958413263	NA	1	0	1.29	1	128.968061662	129.047784709	"8"	7334.893790497	7285.932065902	1.5	0.1
0.01	1	0.0413328510003339	1	37	130.958413263	NA	1	0	1.29	1	129.285235351999	129.326568203	"8"	7334.893790497	7285.932065902	1.5	0.1
0.01	1	0.0037112360005267	1	37	130.958413263	NA	1	0	1.29	1	129.552386476999	129.556097713	"8"	7334.893790497	7285.932065902	1.5	0.1
0.01	1	0.0220079669998086	1	37	130.958413263	NA	1	0	1.29	1	129.786138885	129.808146851999	"8"	7334.893790497	7285.932065902	1.5	0.1
0.01	1	0.803258599999936	1	37	130.958413263	NA	1	0	1.29	1	130.03655034	130.83980894	"8"	7334.893790497	7285.932065902	1.5	0.1
0.01	1	0.821994375999566	1	108	NA	142.889057162	0	0.2	1.49	1	133.008195777	133.830190152999	"9"	7334.893790497	7285.932065902	1.5	0.1
0.01	1	0.0757104399999662	1	108	NA	142.889057162	0	0.2	1.49	1	134.059979322	134.135689762	"9"	7334.893790497	7285.932065902	1.5	0.1
0.01	1	0.0043538259997149	1	108	NA	142.889057162	0	0.2	1.49	1	134.360550551	134.364904376999	"9"	7334.893790497	7285.932065902	1.5	0.1
0.01	1	0.0361036280000917	1	108	NA	142.889057162	0	0.2	1.49	1	134.594228315	134.630331943	"9"	7334.893790497	7285.932065902	1.5	0.1
0.01	1	0.0808666539996921	1	108	NA	142.889057162	0	0.2	1.49	1	134.86127239	134.942139043999	"9"	7334.893790497	7285.932065902	1.5	0.1
0.01	1	1.87662042200009	1	108	NA	142.889057162	0	0.2	1.49	1	135.178488715	137.055109137	"9"	7334.893790497	7285.932065902	1.5	0.1
0.01	1	0.00389296299999842	1	108	NA	142.889057162	0	0.2	1.49	1	137.281995011999	137.285887974999	"9"	7334.893790497	7285.932065902	1.5	0.1
0.01	1	0.0440550720004467	1	108	NA	142.889057162	0	0.2	1.49	1	137.515726584999	137.559781657	"9"	7334.893790497	7285.932065902	1.5	0.1
0.01	1	0.095769872999881	1	108	NA	142.889057162	0	0.2	1.49	1	137.799587959999	137.895357832999	"9"	7334.893790497	7285.932065902	1.5	0.1
0.01	1	0.00202617200011446	1	108	NA	142.889057162	0	0.2	1.49	1	138.13350173	138.135527902	"9"	7334.893790497	7285.932065902	1.5	0.1
0.01	1	0.0711013209993325	1	108	NA	142.889057162	0	0.2	1.49	1	138.367147592	138.438248912999	"9"	7334.893790497	7285.932065902	1.5	0.1
0.01	1	0.00400823900054093	1	108	NA	142.889057162	0	0.2	1.49	1	138.667648031999	138.671656271	"9"	7334.893790497	7285.932065902	1.5	0.1
0.01	1	0.0588189199997942	1	108	NA	142.889057162	0	0.2	1.49	1	138.901509017	138.960327936999	"9"	7334.893790497	7285.932065902	1.5	0.1
0.01	1	0.125510529000167	1	108	NA	142.889057162	0	0.2	1.49	1	139.185225724999	139.310736253999	"9"	7334.893790497	7285.932065902	1.5	0.1
0.01	1	0.0868032689995744	1	108	NA	142.889057162	0	0.2	1.49	1	139.535753155	139.622556423999	"9"	7334.893790497	7285.932065902	1.5	0.1
0.01	1	0.00214631499966345	1	108	NA	142.889057162	0	0.2	1.49	1	139.853040886	139.855187200999	"9"	7334.893790497	7285.932065902	1.5	0.1
0.01	1	0.296752219000155	1	108	NA	142.889057162	0	0.2	1.49	1	140.0868513	140.383603519	"9"	7334.893790497	7285.932065902	1.5	0.1
0.01	1	0.362730382000336	1	108	NA	142.889057162	0	0.2	1.49	1	140.62109869	140.983829072	"9"	7334.893790497	7285.932065902	1.5	0.1
0.01	1	0.00386006600001565	1	108	NA	142.889057162	0	0.2	1.49	1	141.205304695	141.209164761	"9"	7334.893790497	7285.932065902	1.5	0.1
0.01	1	0.648703933000434	1	108	NA	142.889057162	0	0.2	1.49	1	141.439036729999	142.087740663	"9"	7334.893790497	7285.932065902	1.5	0.1
0.01	1	0.563585435999812	2	108	NA	142.889057162	0	0.2	1.49	1	142.323918315	142.887503751	"9"	7334.893790497	7285.932065902	1.5	0.1
0.01	1	0.359296880000329	1	18	150.123235401999	NA	1	0	1.49	1	144.944966194999	145.304263075	"10"	7334.893790497	7285.932065902	1.5	0.1
0.01	1	0.0869581139995717	1	18	150.123235401999	NA	1	0	1.49	1	145.529224295	145.616182409	"10"	7334.893790497	7285.932065902	1.5	0.1
0.01	1	0.065440512999885	1	18	150.123235401999	NA	1	0	1.49	1	145.846487082	145.911927595	"10"	7334.893790497	7285.932065902	1.5	0.1
0.01	1	0.0608064630005174	1	18	150.123235401999	NA	1	0	1.49	1	146.146925374999	146.207731838	"10"	7334.893790497	7285.932065902	1.5	0.1
0.01	1	0.0495210660001248	1	18	150.123235401999	NA	1	0	1.49	1	146.430762022999	146.480283088999	"10"	7334.893790497	7285.932065902	1.5	0.1
0.01	1	0.0357890680006676	1	18	150.123235401999	NA	1	0	1.49	1	146.714572344999	146.750361413	"10"	7334.893790497	7285.932065902	1.5	0.1
0.01	1	0.0249132660001123	1	18	150.123235401999	NA	1	0	1.49	1	146.981680375	147.006593641	"10"	7334.893790497	7285.932065902	1.5	0.1
0.01	1	0.0226959970004827	1	18	150.123235401999	NA	1	0	1.49	1	147.232164175	147.254860172	"10"	7334.893790497	7285.932065902	1.5	0.1
0.01	1	0.02026450700032	1	18	150.123235401999	NA	1	0	1.49	1	147.482578153999	147.502842661	"10"	7334.893790497	7285.932065902	1.5	0.1
0.01	1	0.00213540100048704	1	18	150.123235401999	NA	1	0	1.49	1	147.733003994999	147.735139396	"10"	7334.893790497	7285.932065902	1.5	0.1
0.01	1	0.0037348750001911	1	18	150.123235401999	NA	1	0	1.49	1	147.966726209999	147.970461084999	"10"	7334.893790497	7285.932065902	1.5	0.1
0.01	1	0.0717420499995569	1	18	150.123235401999	NA	1	0	1.49	1	148.200428565	148.272170615	"10"	7334.893790497	7285.932065902	1.5	0.1
0.01	1	0.265230478999911	1	18	150.123235401999	NA	1	0	1.49	1	148.500987824999	148.766218303999	"10"	7334.893790497	7285.932065902	1.5	0.1
0.01	1	0.00225479300024745	1	18	150.123235401999	NA	1	0	1.49	1	149.001750789999	149.004005583	"10"	7334.893790497	7285.932065902	1.5	0.1
0.01	1	0.00400881299992761	1	18	150.123235401999	NA	1	0	1.49	1	149.235449422	149.239458235	"10"	7334.893790497	7285.932065902	1.5	0.1
0.01	1	0.00376699000025837	1	18	150.123235401999	NA	1	0	1.49	1	149.469152664999	149.472919655	"10"	7334.893790497	7285.932065902	1.5	0.1
0.01	1	0.00396804499996506	1	18	150.123235401999	NA	1	0	1.49	1	149.702875321999	149.706843366999	"10"	7334.893790497	7285.932065902	1.5	0.1
0.01	1	0.0786683930000436	1	18	150.123235401999	NA	1	0	1.49	1	149.936729557	150.01539795	"10"	7334.893790497	7285.932065902	1.5	0.1
0.01	1	0.314733357000478	1	2	152.827607005	NA	1	0	1.49	1	152.157135295	152.471868652	"11"	7334.893790497	7285.932065902	1.5	0.1
0.01	1	0.00383915100064769	1	2	152.827607005	NA	1	0	1.49	1	152.707971819999	152.711810971	"11"	7334.893790497	7285.932065902	1.5	0.1
0.01	1	0.497782423999524	1	107	NA	161.055662018	0	0.21	1.7	1	154.861626831	155.359409254999	"12"	7334.893790497	7285.932065902	1.5	0.1
0.01	1	0.00249886000074184	1	107	NA	161.055662018	0	0.21	1.7	1	155.596196144999	155.598695005	"12"	7334.893790497	7285.932065902	1.5	0.1
0.01	1	0.105104690000189	1	107	NA	161.055662018	0	0.21	1.7	1	155.829885419999	155.934990109999	"12"	7334.893790497	7285.932065902	1.5	0.1
0.01	1	0.00425179299963929	1	107	NA	161.055662018	0	0.21	1.7	1	156.163819884	156.168071677	"12"	7334.893790497	7285.932065902	1.5	0.1
0.01	1	0.106132166999487	1	107	NA	161.055662018	0	0.21	1.7	1	156.397541984	156.503674150999	"12"	7334.893790497	7285.932065902	1.5	0.1
0.01	1	0.00392835499951616	1	107	NA	161.055662018	0	0.21	1.7	1	156.73132628	156.735254634999	"12"	7334.893790497	7285.932065902	1.5	0.1
0.01	1	0.074806004000493	1	107	NA	161.055662018	0	0.21	1.7	1	156.965177616999	157.039983621	"12"	7334.893790497	7285.932065902	1.5	0.1
0.01	1	0.00204008800028532	1	107	NA	161.055662018	0	0.21	1.7	1	157.265610969	157.267651057	"12"	7334.893790497	7285.932065902	1.5	0.1
0.01	1	0.0909776590006004	1	107	NA	161.055662018	0	0.21	1.7	1	157.499473489999	157.590451149	"12"	7334.893790497	7285.932065902	1.5	0.1
0.01	1	0.0022240199996304	1	107	NA	161.055662018	0	0.21	1.7	1	157.816494662	157.818718682	"12"	7334.893790497	7285.932065902	1.5	0.1
0.01	1	0.00209834799989039	1	107	NA	161.055662018	0	0.21	1.7	1	158.050469365	158.052567713	"12"	7334.893790497	7285.932065902	1.5	0.1
0.01	1	0.0588614250000319	1	107	NA	161.055662018	0	0.21	1.7	1	158.284073972	158.342935397	"12"	7334.893790497	7285.932065902	1.5	0.1
0.01	1	0.00207892000071297	1	107	NA	161.055662018	0	0.21	1.7	1	158.567866134999	158.569945055	"12"	7334.893790497	7285.932065902	1.5	0.1
0.01	1	0.085088695000195	1	107	NA	161.055662018	0	0.21	1.7	1	158.801611045	158.88669974	"12"	7334.893790497	7285.932065902	1.5	0.1
0.01	1	0.00456353699973988	1	107	NA	161.055662018	0	0.21	1.7	1	159.118798758	159.123362294999	"12"	7334.893790497	7285.932065902	1.5	0.1
0.01	1	0.0872437029993307	1	107	NA	161.055662018	0	0.21	1.7	1	159.35262013	159.439863832999	"12"	7334.893790497	7285.932065902	1.5	0.1
0.01	1	0.00264024799980689	1	107	NA	161.055662018	0	0.21	1.7	1	159.669712077	159.672352324999	"12"	7334.893790497	7285.932065902	1.5	0.1
0.01	1	0.12043484700007	1	107	NA	161.055662018	0	0.21	1.7	1	159.903501657	160.023936504	"12"	7334.893790497	7285.932065902	1.5	0.1
0.01	1	0.0408599149996007	1	107	NA	161.055662018	0	0.21	1.7	1	160.254000215	160.29486013	"12"	7334.893790497	7285.932065902	1.5	0.1
0.01	1	0.0213100299997677	1	107	NA	161.055662018	0	0.21	1.7	1	160.521159292	160.542469321999	"12"	7334.893790497	7285.932065902	1.5	0.1
0.01	1	0.0020438199999262	1	107	NA	161.055662018	0	0.21	1.7	1	160.771580242999	160.773624062999	"12"	7334.893790497	7285.932065902	1.5	0.1
0.01	1	0.0488781359999848	2	107	NA	161.055662018	0	0.21	1.7	1	161.005327354999	161.054205490999	"12"	7334.893790497	7285.932065902	1.5	0.1
0.01	1	0.34582031500031	1	119	NA	173.639815973999	0	0.35	2.05	1	163.108941537999	163.454761853	"13"	7334.893790497	7285.932065902	1.5	0.1
0.01	1	0.105325440000342	1	119	NA	173.639815973999	0	0.35	2.05	1	163.693160956999	163.798486397	"13"	7334.893790497	7285.932065902	1.5	0.1
0.01	1	0.00262727799963614	1	119	NA	173.639815973999	0	0.35	2.05	1	164.027086057	164.029713335	"13"	7334.893790497	7285.932065902	1.5	0.1
0.01	1	0.0657128530001501	1	119	NA	173.639815973999	0	0.35	2.05	1	164.26079678	164.326509633	"13"	7334.893790497	7285.932065902	1.5	0.1
0.01	1	0.00459546000001865	1	119	NA	173.639815973999	0	0.35	2.05	1	164.561273249999	164.565868709999	"13"	7334.893790497	7285.932065902	1.5	0.1
0.01	1	0.0038961410000411	1	119	NA	173.639815973999	0	0.35	2.05	1	164.79509376	164.798989901	"13"	7334.893790497	7285.932065902	1.5	0.1
0.01	1	0.0995817829998487	1	119	NA	173.639815973999	0	0.35	2.05	1	165.02870226	165.128284042999	"13"	7334.893790497	7285.932065902	1.5	0.1
0.01	1	0.00211513900012505	1	119	NA	173.639815973999	0	0.35	2.05	1	165.362628053	165.364743192	"13"	7334.893790497	7285.932065902	1.5	0.1
0.01	1	0.0081690900005924	1	119	NA	173.639815973999	0	0.35	2.05	1	165.596353014999	165.604522105	"13"	7334.893790497	7285.932065902	1.5	0.1
0.01	1	0.272319876999973	1	119	NA	173.639815973999	0	0.35	2.05	1	165.83018893	166.102508807	"13"	7334.893790497	7285.932065902	1.5	0.1
0.01	1	0.140932862999762	1	119	NA	173.639815973999	0	0.35	2.05	1	166.330910752	166.471843615	"13"	7334.893790497	7285.932065902	1.5	0.1
0.01	1	0.0770480219998717	1	119	NA	173.639815973999	0	0.35	2.05	1	166.69824526	166.775293281999	"13"	7334.893790497	7285.932065902	1.5	0.1
0.01	1	0.0230838150000636	1	119	NA	173.639815973999	0	0.35	2.05	1	167.0154453	167.038529115	"13"	7334.893790497	7285.932065902	1.5	0.1
0.01	1	0.0206461030002174	1	119	NA	173.639815973999	0	0.35	2.05	1	167.265873447	167.28651955	"13"	7334.893790497	7285.932065902	1.5	0.1
0.01	1	0.0271215809998466	1	119	NA	173.639815973999	0	0.35	2.05	1	167.516257837	167.543379418	"13"	7334.893790497	7285.932065902	1.5	0.1
0.01	1	0.0251896380004837	1	119	NA	173.639815973999	0	0.35	2.05	1	167.766639115	167.791828753	"13"	7334.893790497	7285.932065902	1.5	0.1
0.01	1	0.0135217629995168	1	119	NA	173.639815973999	0	0.35	2.05	1	168.017192667	168.03071443	"13"	7334.893790497	7285.932065902	1.5	0.1
0.01	1	0.0115794349994758	1	119	NA	173.639815973999	0	0.35	2.05	1	168.267520665	168.2791001	"13"	7334.893790497	7285.932065902	1.5	0.1
0.01	1	0.0427257780002037	1	119	NA	173.639815973999	0	0.35	2.05	1	168.501236591999	168.543962369999	"13"	7334.893790497	7285.932065902	1.5	0.1
0.01	1	0.0387753619997966	1	119	NA	173.639815973999	0	0.35	2.05	1	168.768404465	168.807179826999	"13"	7334.893790497	7285.932065902	1.5	0.1
0.01	1	0.0275070640000195	1	119	NA	173.639815973999	0	0.35	2.05	1	169.035451037	169.062958101	"13"	7334.893790497	7285.932065902	1.5	0.1
0.01	1	0.0413719849993868	1	119	NA	173.639815973999	0	0.35	2.05	1	169.28585561	169.327227594999	"13"	7334.893790497	7285.932065902	1.5	0.1
0.01	1	0.0382754820002447	1	119	NA	173.639815973999	0	0.35	2.05	1	169.553003004999	169.591278487	"13"	7334.893790497	7285.932065902	1.5	0.1
0.01	1	0.0180343980000544	1	119	NA	173.639815973999	0	0.35	2.05	1	169.820176657	169.838211055	"13"	7334.893790497	7285.932065902	1.5	0.1
0.01	1	0.0160726829999476	1	119	NA	173.639815973999	0	0.35	2.05	1	170.070595092	170.086667775	"13"	7334.893790497	7285.932065902	1.5	0.1
0.01	1	0.0292410660003952	1	119	NA	173.639815973999	0	0.35	2.05	1	170.32096975	170.350210816	"13"	7334.893790497	7285.932065902	1.5	0.1
0.01	1	0.0272278749998804	1	119	NA	173.639815973999	0	0.35	2.05	1	170.588126056999	170.615353931999	"13"	7334.893790497	7285.932065902	1.5	0.1
0.01	1	0.0413779099999374	1	119	NA	173.639815973999	0	0.35	2.05	1	170.838475611999	170.879853521999	"13"	7334.893790497	7285.932065902	1.5	0.1
0.01	1	0.0211349579994931	1	119	NA	173.639815973999	0	0.35	2.05	1	171.10570164	171.126836597999	"13"	7334.893790497	7285.932065902	1.5	0.1
0.01	1	0.0340773549996811	1	119	NA	173.639815973999	0	0.35	2.05	1	171.35613848	171.390215834999	"13"	7334.893790497	7285.932065902	1.5	0.1
0.01	1	0.00383379899994907	1	119	NA	173.639815973999	0	0.35	2.05	1	171.62314277	171.626976568999	"13"	7334.893790497	7285.932065902	1.5	0.1
0.01	1	0.0463395700007823	1	119	NA	173.639815973999	0	0.35	2.05	1	171.856896824999	171.903236395	"13"	7334.893790497	7285.932065902	1.5	0.1
0.01	1	0.00455367199992907	1	119	NA	173.639815973999	0	0.35	2.05	1	172.14069677	172.145250441999	"13"	7334.893790497	7285.932065902	1.5	0.1
0.01	1	0.169338161999804	1	119	NA	173.639815973999	0	0.35	2.05	1	172.374469585	172.543807747	"13"	7334.893790497	7285.932065902	1.5	0.1
0.01	1	0.00366403699990769	1	119	NA	173.639815973999	0	0.35	2.05	1	172.77502501	172.778689047	"13"	7334.893790497	7285.932065902	1.5	0.1
0.01	1	0.629363506000118	2	119	NA	173.639815973999	0	0.35	2.05	1	173.008885531	173.638249037	"13"	7334.893790497	7285.932065902	1.5	0.1
0.01	1	0.352361742000539	1	71	NA	188.745539494	0	0.36	2.41	1	175.663365619999	176.015727362	"14"	7334.893790497	7285.932065902	1.5	0.1
0.01	1	0.00268283399964275	1	71	NA	188.745539494	0	0.36	2.41	1	176.247583147	176.250265981	"14"	7334.893790497	7285.932065902	1.5	0.1
0.01	1	0.0699944119996871	1	71	NA	188.745539494	0	0.36	2.41	1	176.481351542	176.551345954	"14"	7334.893790497	7285.932065902	1.5	0.1
0.01	1	0.105637003999618	1	71	NA	188.745539494	0	0.36	2.41	1	176.781773697	176.887410701	"14"	7334.893790497	7285.932065902	1.5	0.1
0.01	1	0.0044426750000639	1	71	NA	188.745539494	0	0.36	2.41	1	177.115731925	177.1201746	"14"	7334.893790497	7285.932065902	1.5	0.1
0.01	1	0.0819095739998374	1	71	NA	188.745539494	0	0.36	2.41	1	177.349405117	177.431314691	"14"	7334.893790497	7285.932065902	1.5	0.1
0.01	1	0.0453822270001183	1	71	NA	188.745539494	0	0.36	2.41	1	177.666714565	177.712096792	"14"	7334.893790497	7285.932065902	1.5	0.1
0.01	1	0.105419317999804	1	71	NA	188.745539494	0	0.36	2.41	1	177.950491525	178.055910843	"14"	7334.893790497	7285.932065902	1.5	0.1
0.01	1	0.0580891749996226	1	71	NA	188.745539494	0	0.36	2.41	1	178.284323057	178.342412231999	"14"	7334.893790497	7285.932065902	1.5	0.1
0.01	1	0.00469206500019936	1	71	NA	188.745539494	0	0.36	2.41	1	178.568172679999	178.572864745	"14"	7334.893790497	7285.932065902	1.5	0.1
0.01	1	0.0773806269999113	1	71	NA	188.745539494	0	0.36	2.41	1	178.801873237	178.879253864	"14"	7334.893790497	7285.932065902	1.5	0.1
0.01	1	0.103009546000067	1	71	NA	188.745539494	0	0.36	2.41	1	179.119129836999	179.222139383	"14"	7334.893790497	7285.932065902	1.5	0.1
0.01	1	0.00385476300016308	1	71	NA	188.745539494	0	0.36	2.41	1	179.452973682	179.456828445	"14"	7334.893790497	7285.932065902	1.5	0.1
0.01	1	0.0490112010002122	1	71	NA	188.745539494	0	0.36	2.41	1	179.686713102	179.735724303	"14"	7334.893790497	7285.932065902	1.5	0.1
0.01	1	0.1320561980001	1	71	NA	188.745539494	0	0.36	2.41	1	179.970610044999	180.102666242999	"14"	7334.893790497	7285.932065902	1.5	0.1
0.01	1	0.0684137449998161	1	71	NA	188.745539494	0	0.36	2.41	1	180.337826192	180.406239937	"14"	7334.893790497	7285.932065902	1.5	0.1
0.01	1	0.0496412849997796	1	71	NA	188.745539494	0	0.36	2.41	1	180.638417675	180.68805896	"14"	7334.893790497	7285.932065902	1.5	0.1
0.01	1	0.0219310889997359	1	71	NA	188.745539494	0	0.36	2.41	1	180.9221687	180.944099789	"14"	7334.893790497	7285.932065902	1.5	0.1
0.01	1	0.0742389239994736	1	71	NA	188.745539494	0	0.36	2.41	1	181.172614215	181.246853139	"14"	7334.893790497	7285.932065902	1.5	0.1
0.01	1	0.0789074189997336	1	71	NA	188.745539494	0	0.36	2.41	1	181.473177365	181.552084784	"14"	7334.893790497	7285.932065902	1.5	0.1
0.01	1	0.017943658999684	1	71	NA	188.745539494	0	0.36	2.41	1	181.790271092	181.808214750999	"14"	7334.893790497	7285.932065902	1.5	0.1
0.01	1	0.0942896130000008	1	71	NA	188.745539494	0	0.36	2.41	1	182.040665077	182.13495469	"14"	7334.893790497	7285.932065902	1.5	0.1
0.01	1	0.0728075730003184	1	71	NA	188.745539494	0	0.36	2.41	1	182.357867817	182.43067539	"14"	7334.893790497	7285.932065902	1.5	0.1
0.01	1	0.188349695000397	1	71	NA	188.745539494	0	0.36	2.41	1	182.65837787	182.846727565	"14"	7334.893790497	7285.932065902	1.5	0.1
0.01	1	0.242370863999895	1	71	NA	188.745539494	0	0.36	2.41	1	183.075722297	183.318093161	"14"	7334.893790497	7285.932065902	1.5	0.1
0.01	1	0.216553889999886	1	71	NA	188.745539494	0	0.36	2.41	1	183.543256602	183.759810492	"14"	7334.893790497	7285.932065902	1.5	0.1
0.01	1	0.204663180000352	1	71	NA	188.745539494	0	0.36	2.41	1	183.993949711999	184.198612892	"14"	7334.893790497	7285.932065902	1.5	0.1
0.01	1	0.212000567000359	1	71	NA	188.745539494	0	0.36	2.41	1	184.427932801999	184.639933369	"14"	7334.893790497	7285.932065902	1.5	0.1
0.01	1	0.184201048000432	1	71	NA	188.745539494	0	0.36	2.41	1	184.878735769999	185.062936818	"14"	7334.893790497	7285.932065902	1.5	0.1
0.01	1	0.167628531999981	1	71	NA	188.745539494	0	0.36	2.41	1	185.296233239999	185.463861771999	"14"	7334.893790497	7285.932065902	1.5	0.1
0.01	1	0.246248632999595	1	71	NA	188.745539494	0	0.36	2.41	1	185.69681677	185.943065402999	"14"	7334.893790497	7285.932065902	1.5	0.1
0.01	1	0.18550835699989	1	71	NA	188.745539494	0	0.36	2.41	1	186.181026415	186.366534772	"14"	7334.893790497	7285.932065902	1.5	0.1
0.01	1	0.20879642699947	1	71	NA	188.745539494	0	0.36	2.41	1	186.598375777	186.807172203999	"14"	7334.893790497	7285.932065902	1.5	0.1
0.01	1	0.213733265999508	1	71	NA	188.745539494	0	0.36	2.41	1	187.032487417	187.246220683	"14"	7334.893790497	7285.932065902	1.5	0.1
0.01	1	0.275674067000182	1	71	NA	188.745539494	0	0.36	2.41	1	187.483154009999	187.758828077	"14"	7334.893790497	7285.932065902	1.5	0.1
0.01	1	0.295635916999345	1	71	NA	188.745539494	0	0.36	2.41	1	187.98410968	188.279745596999	"14"	7334.893790497	7285.932065902	1.5	0.1
0.01	1	0.225730574999943	2	71	NA	188.745539494	0	0.36	2.41	1	188.518242894999	188.743973469999	"14"	7334.893790497	7285.932065902	1.5	0.1
0.01	1	0.650497868999992	1	32	203.145703257	NA	1	0	2.41	1	190.772082404999	191.422580273999	"15"	7334.893790497	7285.932065902	1.5	0.1
0.01	1	0.00223449700024503	1	32	203.145703257	NA	1	0	2.41	1	191.656862905	191.659097402	"15"	7334.893790497	7285.932065902	1.5	0.1
0.01	1	0.00224549800077511	1	32	203.145703257	NA	1	0	2.41	1	191.890631394999	191.892876893	"15"	7334.893790497	7285.932065902	1.5	0.1
0.01	1	0.123189313000694	1	32	203.145703257	NA	1	0	2.41	1	192.124440156999	192.24762947	"15"	7334.893790497	7285.932065902	1.5	0.1
0.01	1	0.00210814999991271	1	32	203.145703257	NA	1	0	2.41	1	192.474958723999	192.477066873999	"15"	7334.893790497	7285.932065902	1.5	0.1
0.01	1	0.00214251400029752	1	32	203.145703257	NA	1	0	2.41	1	192.70859246	192.710734974	"15"	7334.893790497	7285.932065902	1.5	0.1
0.01	1	0.00486907499998779	1	32	203.145703257	NA	1	0	2.41	1	192.942536105	192.94740518	"15"	7334.893790497	7285.932065902	1.5	0.1
0.01	1	0.174705274000189	1	32	203.145703257	NA	1	0	2.41	1	193.176077724999	193.350782998999	"15"	7334.893790497	7285.932065902	1.5	0.1
0.01	1	0.00460620699959691	1	32	203.145703257	NA	1	0	2.41	1	193.576851485	193.581457691999	"15"	7334.893790497	7285.932065902	1.5	0.1
0.01	1	0.00407222299963905	1	32	203.145703257	NA	1	0	2.41	1	193.81054065	193.814612873	"15"	7334.893790497	7285.932065902	1.5	0.1
0.01	1	0.0046172470001693	1	32	203.145703257	NA	1	0	2.41	1	194.044251089999	194.048868336999	"15"	7334.893790497	7285.932065902	1.5	0.1
0.01	1	0.161349227999381	1	32	203.145703257	NA	1	0	2.41	1	194.277919581	194.439268808999	"15"	7334.893790497	7285.932065902	1.5	0.1
0.01	1	0.00997723000000406	1	32	203.145703257	NA	1	0	2.41	1	194.67853349	194.68851072	"15"	7334.893790497	7285.932065902	1.5	0.1
0.01	1	0.00333963800039783	1	32	203.145703257	NA	1	0	2.41	1	194.912215961	194.915555599	"15"	7334.893790497	7285.932065902	1.5	0.1
0.01	1	0.052649104000011	1	32	203.145703257	NA	1	0	2.41	1	195.146083164999	195.198732268999	"15"	7334.893790497	7285.932065902	1.5	0.1
0.01	1	0.105184115999691	1	32	203.145703257	NA	1	0	2.41	1	195.429857917	195.535042033	"15"	7334.893790497	7285.932065902	1.5	0.1
0.01	1	0.0987225710005077	1	32	203.145703257	NA	1	0	2.41	1	195.763811379999	195.862533951	"15"	7334.893790497	7285.932065902	1.5	0.1
0.01	1	0.278308181000284	1	32	203.145703257	NA	1	0	2.41	1	196.097667382	196.375975563	"15"	7334.893790497	7285.932065902	1.5	0.1
0.01	1	0.105442201999722	1	32	203.145703257	NA	1	0	2.41	1	196.59849239	196.703934591999	"15"	7334.893790497	7285.932065902	1.5	0.1
0.01	1	0.26622984199912	1	32	203.145703257	NA	1	0	2.41	1	196.93235197	197.198581811999	"15"	7334.893790497	7285.932065902	1.5	0.1
0.01	1	0.197417776999828	1	32	203.145703257	NA	1	0	2.41	1	197.433290647	197.630708424	"15"	7334.893790497	7285.932065902	1.5	0.1
0.01	1	0.666912738000065	1	32	203.145703257	NA	1	0	2.41	1	197.867295356999	198.534208094999	"15"	7334.893790497	7285.932065902	1.5	0.1
0.01	1	0.278670363999481	1	32	203.145703257	NA	1	0	2.41	1	198.768860395	199.047530759	"15"	7334.893790497	7285.932065902	1.5	0.1
0.01	1	0.209912248999899	1	32	203.145703257	NA	1	0	2.41	1	199.269642495	199.479554744	"15"	7334.893790497	7285.932065902	1.5	0.1
0.01	1	0.223057772999709	1	32	203.145703257	NA	1	0	2.41	1	199.703675772	199.926733544999	"15"	7334.893790497	7285.932065902	1.5	0.1
0.01	1	0.237265708999985	1	32	203.145703257	NA	1	0	2.41	1	200.154439455	200.391705164	"15"	7334.893790497	7285.932065902	1.5	0.1
0.01	1	0.274150612000085	1	32	203.145703257	NA	1	0	2.41	1	200.621944862	200.896095474	"15"	7334.893790497	7285.932065902	1.5	0.1
0.01	1	0.22870731400053	1	32	203.145703257	NA	1	0	2.41	1	201.122828914999	201.351536229	"15"	7334.893790497	7285.932065902	1.5	0.1
0.01	1	0.111738212999626	1	32	203.145703257	NA	1	0	2.41	1	201.590360865	201.702099077999	"15"	7334.893790497	7285.932065902	1.5	0.1
0.01	1	0.225733123000282	1	32	203.145703257	NA	1	0	2.41	1	201.940802312	202.166535435	"15"	7334.893790497	7285.932065902	1.5	0.1
0.01	1	0.264561171000423	1	32	203.145703257	NA	1	0	2.41	1	202.391579409999	202.656140581	"15"	7334.893790497	7285.932065902	1.5	0.1
0.01	1	0.138430271000288	1	32	203.145703257	NA	1	0	2.41	1	202.89250544	203.030935711	"15"	7334.893790497	7285.932065902	1.5	0.1
0.01	1	0.235770557000251	1	7	207.402990977	NA	1	0	2.41	1	205.196298086999	205.432068644	"16"	7334.893790497	7285.932065902	1.5	0.1
0.01	1	0.0402429729992946	1	7	207.402990977	NA	1	0	2.41	1	205.663783002	205.704025974999	"16"	7334.893790497	7285.932065902	1.5	0.1
0.01	1	0.108256833000269	1	7	207.402990977	NA	1	0	2.41	1	205.930939059999	206.039195892999	"16"	7334.893790497	7285.932065902	1.5	0.1
0.01	1	0.00463186699926155	1	7	207.402990977	NA	1	0	2.41	1	206.26471072	206.269342586999	"16"	7334.893790497	7285.932065902	1.5	0.1
0.01	1	0.10171943000023	1	7	207.402990977	NA	1	0	2.41	1	206.498506489999	206.60022592	"16"	7334.893790497	7285.932065902	1.5	0.1
0.01	1	0.207649654000306	1	7	207.402990977	NA	1	0	2.41	1	206.832426864999	207.040076519	"16"	7334.893790497	7285.932065902	1.5	0.1
0.01	1	0.0212981039994702	1	7	207.402990977	NA	1	0	2.41	1	207.266454517	207.287752621	"16"	7334.893790497	7285.932065902	1.5	0.1
0.01	1	0.0418806779998704	1	49	NA	219.561817082999	0	0.3	2.71	1	209.453418077	209.495298755	"17"	7334.893790497	7285.932065902	1.5	0.1
0.01	1	0.0234754510001949	1	49	NA	219.561817082999	0	0.3	2.71	1	209.720676178	209.744151629	"17"	7334.893790497	7285.932065902	1.5	0.1
0.01	1	0.0283275600004345	1	49	NA	219.561817082999	0	0.3	2.71	1	209.971040134999	209.999367695	"17"	7334.893790497	7285.932065902	1.5	0.1
0.01	1	0.00202018200070597	1	49	NA	219.561817082999	0	0.3	2.71	1	210.238137912999	210.240158095	"17"	7334.893790497	7285.932065902	1.5	0.1
0.01	1	0.00392972899953747	1	49	NA	219.561817082999	0	0.3	2.71	1	210.471819222	210.475748950999	"17"	7334.893790497	7285.932065902	1.5	0.1
0.01	1	0.00464281200038386	1	49	NA	219.561817082999	0	0.3	2.71	1	210.70563953	210.710282342	"17"	7334.893790497	7285.932065902	1.5	0.1
0.01	1	0.00409146600031818	1	49	NA	219.561817082999	0	0.3	2.71	1	210.939361156999	210.943452623	"17"	7334.893790497	7285.932065902	1.5	0.1
0.01	1	0.130817993000164	1	49	NA	219.561817082999	0	0.3	2.71	1	211.173052372	211.303870365	"17"	7334.893790497	7285.932065902	1.5	0.1
0.01	1	0.0029528120003306	1	49	NA	219.561817082999	0	0.3	2.71	1	211.540289758999	211.543242571	"17"	7334.893790497	7285.932065902	1.5	0.1
0.01	1	0.00266327499957697	1	49	NA	219.561817082999	0	0.3	2.71	1	211.773981771	211.776645045999	"17"	7334.893790497	7285.932065902	1.5	0.1
0.01	1	0.0222937809994619	1	49	NA	219.561817082999	0	0.3	2.71	1	212.007810737	212.030104517999	"17"	7334.893790497	7285.932065902	1.5	0.1
0.01	1	0.0038795949994892	1	49	NA	219.561817082999	0	0.3	2.71	1	212.25820046	212.262080054999	"17"	7334.893790497	7285.932065902	1.5	0.1
0.01	1	0.00210485499974311	1	49	NA	219.561817082999	0	0.3	2.71	1	212.492051185	212.494156039999	"17"	7334.893790497	7285.932065902	1.5	0.1
0.01	1	0.145213767000314	1	49	NA	219.561817082999	0	0.3	2.71	1	212.725627874	212.870841641	"17"	7334.893790497	7285.932065902	1.5	0.1
0.01	1	0.00332339200031129	1	49	NA	219.561817082999	0	0.3	2.71	1	213.109625206999	213.112948599	"17"	7334.893790497	7285.932065902	1.5	0.1
0.01	1	0.0231205210002372	1	49	NA	219.561817082999	0	0.3	2.71	1	213.343422444999	213.366542966	"17"	7334.893790497	7285.932065902	1.5	0.1
0.01	1	0.0285320769999089	1	49	NA	219.561817082999	0	0.3	2.71	1	213.593827485	213.622359561999	"17"	7334.893790497	7285.932065902	1.5	0.1
0.01	1	0.00465252499998314	1	49	NA	219.561817082999	0	0.3	2.71	1	213.860927835	213.86558036	"17"	7334.893790497	7285.932065902	1.5	0.1
0.01	1	0.0585384819996762	1	49	NA	219.561817082999	0	0.3	2.71	1	214.094697502	214.153235983999	"17"	7334.893790497	7285.932065902	1.5	0.1
0.01	1	0.03777800700027	1	49	NA	219.561817082999	0	0.3	2.71	1	214.378443336999	214.416221343999	"17"	7334.893790497	7285.932065902	1.5	0.1
0.01	1	0.0499702810002418	1	49	NA	219.561817082999	0	0.3	2.71	1	214.645476285	214.695446566	"17"	7334.893790497	7285.932065902	1.5	0.1
0.01	1	0.246105088999684	1	49	NA	219.561817082999	0	0.3	2.71	1	214.929352255	215.175457343999	"17"	7334.893790497	7285.932065902	1.5	0.1
0.01	1	0.265126861000681	1	49	NA	219.561817082999	0	0.3	2.71	1	215.413537879999	215.678664741	"17"	7334.893790497	7285.932065902	1.5	0.1
0.01	1	0.276577865000036	1	49	NA	219.561817082999	0	0.3	2.71	1	215.914332304999	216.190910169999	"17"	7334.893790497	7285.932065902	1.5	0.1
0.01	1	0.272999267000159	1	49	NA	219.561817082999	0	0.3	2.71	1	216.415270967999	216.688270234999	"17"	7334.893790497	7285.932065902	1.5	0.1
0.01	1	0.219997749000868	1	49	NA	219.561817082999	0	0.3	2.71	1	216.916078736999	217.136076486	"17"	7334.893790497	7285.932065902	1.5	0.1
0.01	1	0.223491604999253	1	49	NA	219.561817082999	0	0.3	2.71	1	217.36687385	217.590365454999	"17"	7334.893790497	7285.932065902	1.5	0.1
0.01	1	0.254436991000148	1	49	NA	219.561817082999	0	0.3	2.71	1	217.817578904	218.072015895	"17"	7334.893790497	7285.932065902	1.5	0.1
0.01	1	0.210467727999458	1	49	NA	219.561817082999	0	0.3	2.71	1	218.301735252	218.51220298	"17"	7334.893790497	7285.932065902	1.5	0.1
0.01	1	0.382499954000195	1	49	NA	219.561817082999	0	0.3	2.71	1	218.735790455	219.118290409	"17"	7334.893790497	7285.932065902	1.5	0.1
0.01	1	0.206736860999627	2	49	NA	219.561817082999	0	0.3	2.71	1	219.353548782	219.560285643	"17"	7334.893790497	7285.932065902	1.5	0.1
0.01	1	0.328647235000062	1	17	226.334817522	NA	1	0	2.71	1	221.590588456999	221.919235691999	"18"	7334.893790497	7285.932065902	1.5	0.1
0.01	1	0.00393634499960172	1	17	226.334817522	NA	1	0	2.71	1	222.15812044	222.162056785	"18"	7334.893790497	7285.932065902	1.5	0.1
0.01	1	0.00379245199928846	1	17	226.334817522	NA	1	0	2.71	1	222.391921245	222.395713696999	"18"	7334.893790497	7285.932065902	1.5	0.1
0.01	1	0.00374859400017158	1	17	226.334817522	NA	1	0	2.71	1	222.625645534999	222.629394129	"18"	7334.893790497	7285.932065902	1.5	0.1
0.01	1	0.00318556599995645	1	17	226.334817522	NA	1	0	2.71	1	222.859377039	222.862562605	"18"	7334.893790497	7285.932065902	1.5	0.1
0.01	1	0.00374758300040412	1	17	226.334817522	NA	1	0	2.71	1	223.093056891999	223.096804475	"18"	7334.893790497	7285.932065902	1.5	0.1
0.01	1	0.0651444579998497	1	17	226.334817522	NA	1	0	2.71	1	223.326853472	223.39199793	"18"	7334.893790497	7285.932065902	1.5	0.1
0.01	1	0.00406945000031556	1	17	226.334817522	NA	1	0	2.71	1	223.627332435	223.631401885	"18"	7334.893790497	7285.932065902	1.5	0.1
0.01	1	0.089526580999518	1	17	226.334817522	NA	1	0	2.71	1	223.86106895	223.950595531	"18"	7334.893790497	7285.932065902	1.5	0.1
0.01	1	0.0761874529998749	1	17	226.334817522	NA	1	0	2.71	1	224.178300404999	224.254487857999	"18"	7334.893790497	7285.932065902	1.5	0.1
0.01	1	0.00201756499973271	1	17	226.334817522	NA	1	0	2.71	1	224.478827364	224.480844928999	"18"	7334.893790497	7285.932065902	1.5	0.1
0.01	1	0.0866472429997884	1	17	226.334817522	NA	1	0	2.71	1	224.712552657	224.7991999	"18"	7334.893790497	7285.932065902	1.5	0.1
0.01	1	0.00463423499968485	1	17	226.334817522	NA	1	0	2.71	1	225.02976209	225.034396325	"18"	7334.893790497	7285.932065902	1.5	0.1
0.01	1	0.0156399600000441	1	17	226.334817522	NA	1	0	2.71	1	225.263459375	225.279099335	"18"	7334.893790497	7285.932065902	1.5	0.1
0.01	1	0.0778625909997572	1	17	226.334817522	NA	1	0	2.71	1	225.513816191999	225.591678782999	"18"	7334.893790497	7285.932065902	1.5	0.1
0.01	1	0.0657101189999594	1	17	226.334817522	NA	1	0	2.71	1	225.814366711999	225.880076830999	"18"	7334.893790497	7285.932065902	1.5	0.1
0.01	1	0.100089325999761	1	17	226.334817522	NA	1	0	2.71	1	226.114785752	226.214875078	"18"	7334.893790497	7285.932065902	1.5	0.1
0.01	1	0.269564189999983	1	20	233.663736295	NA	1	0	2.71	1	228.38536557	228.65492976	"19"	7334.893790497	7285.932065902	1.5	0.1
0.01	1	0.00258168000073056	1	20	233.663736295	NA	1	0	2.71	1	228.886105064999	228.888686745	"19"	7334.893790497	7285.932065902	1.5	0.1
0.01	1	0.048170908999964	1	20	233.663736295	NA	1	0	2.71	1	229.119908322	229.168079231	"19"	7334.893790497	7285.932065902	1.5	0.1
0.01	1	0.00225312800012034	1	20	233.663736295	NA	1	0	2.71	1	229.403767223999	229.406020351999	"19"	7334.893790497	7285.932065902	1.5	0.1
0.01	1	0.0344856319998144	1	20	233.663736295	NA	1	0	2.71	1	229.637479174999	229.671964806999	"19"	7334.893790497	7285.932065902	1.5	0.1
0.01	1	0.246253264999723	1	20	233.663736295	NA	1	0	2.71	1	229.9044742	230.150727464999	"19"	7334.893790497	7285.932065902	1.5	0.1
0.01	1	0.00249015299959865	1	20	233.663736295	NA	1	0	2.71	1	230.388699317	230.39118947	"19"	7334.893790497	7285.932065902	1.5	0.1
0.01	1	0.00456653499986714	1	20	233.663736295	NA	1	0	2.71	1	230.622468009999	230.627034544999	"19"	7334.893790497	7285.932065902	1.5	0.1
0.01	1	0.00209296399953018	1	20	233.663736295	NA	1	0	2.71	1	230.856200585	230.858293548999	"19"	7334.893790497	7285.932065902	1.5	0.1
0.01	1	0.00404067199997371	1	20	233.663736295	NA	1	0	2.71	1	231.090019196999	231.094059868999	"19"	7334.893790497	7285.932065902	1.5	0.1
0.01	1	0.00389886199991452	1	20	233.663736295	NA	1	0	2.71	1	231.323601215	231.327500077	"19"	7334.893790497	7285.932065902	1.5	0.1
0.01	1	0.00472214699948381	1	20	233.663736295	NA	1	0	2.71	1	231.557404055	231.562126201999	"19"	7334.893790497	7285.932065902	1.5	0.1
0.01	1	0.00381493100030639	1	20	233.663736295	NA	1	0	2.71	1	231.790979511999	231.794794443	"19"	7334.893790497	7285.932065902	1.5	0.1
0.01	1	0.0136401529998693	1	20	233.663736295	NA	1	0	2.71	1	232.02476973	232.038409883	"19"	7334.893790497	7285.932065902	1.5	0.1
0.01	1	0.02079975200013	1	20	233.663736295	NA	1	0	2.71	1	232.275293997	232.296093749	"19"	7334.893790497	7285.932065902	1.5	0.1
0.01	1	0.0172762419997525	1	20	233.663736295	NA	1	0	2.71	1	232.525661652	232.542937894	"19"	7334.893790497	7285.932065902	1.5	0.1
0.01	1	0.00371245200039994	1	20	233.663736295	NA	1	0	2.71	1	232.776155994999	232.779868447	"19"	7334.893790497	7285.932065902	1.5	0.1
0.01	1	0.0218572739995579	1	20	233.663736295	NA	1	0	2.71	1	233.009953195	233.031810469	"19"	7334.893790497	7285.932065902	1.5	0.1
0.01	1	0.0270077230006791	1	20	233.663736295	NA	1	0	2.71	1	233.260223814999	233.287231538	"19"	7334.893790497	7285.932065902	1.5	0.1
0.01	1	0.0403040800001691	1	20	233.663736295	NA	1	0	2.71	1	233.510572325	233.550876405	"19"	7334.893790497	7285.932065902	1.5	0.1
0.01	1	0.300122698999985	1	21	241.026042857	NA	1	0	2.71	1	235.714364105	236.014486804	"20"	7334.893790497	7285.932065902	1.5	0.1
0.01	1	0.00222675100030756	1	21	241.026042857	NA	1	0	2.71	1	236.248523556999	236.250750308	"20"	7334.893790497	7285.932065902	1.5	0.1
0.01	1	0.0215123899997707	1	21	241.026042857	NA	1	0	2.71	1	236.48225077	236.50376316	"20"	7334.893790497	7285.932065902	1.5	0.1
0.01	1	0.00369889500052523	1	21	241.026042857	NA	1	0	2.71	1	236.73268177	236.736380665	"20"	7334.893790497	7285.932065902	1.5	0.1
0.01	1	0.00260740599969722	1	21	241.026042857	NA	1	0	2.71	1	236.966382715	236.968990120999	"20"	7334.893790497	7285.932065902	1.5	0.1
0.01	1	0.00360660699971049	1	21	241.026042857	NA	1	0	2.71	1	237.200191162	237.203797769	"20"	7334.893790497	7285.932065902	1.5	0.1
0.01	1	0.0022292080002444	1	21	241.026042857	NA	1	0	2.71	1	237.433889397999	237.436118606	"20"	7334.893790497	7285.932065902	1.5	0.1
0.01	1	0.00460569700044289	1	21	241.026042857	NA	1	0	2.71	1	237.667756094999	237.672361792	"20"	7334.893790497	7285.932065902	1.5	0.1
0.01	1	0.0020994869992137	1	21	241.026042857	NA	1	0	2.71	1	237.901373177	237.903472663999	"20"	7334.893790497	7285.932065902	1.5	0.1
0.01	1	0.00469990500005224	1	21	241.026042857	NA	1	0	2.71	1	238.135018425	238.13971833	"20"	7334.893790497	7285.932065902	1.5	0.1
0.01	1	0.00215011100044649	1	21	241.026042857	NA	1	0	2.71	1	238.368847532	238.370997643	"20"	7334.893790497	7285.932065902	1.5	0.1
0.01	1	0.00207369599957019	1	21	241.026042857	NA	1	0	2.71	1	238.602627894	238.604701589999	"20"	7334.893790497	7285.932065902	1.5	0.1
0.01	1	0.017976082000132	1	21	241.026042857	NA	1	0	2.71	1	238.836318465	238.854294547	"20"	7334.893790497	7285.932065902	1.5	0.1
0.01	1	0.00367904500035365	1	21	241.026042857	NA	1	0	2.71	1	239.086664322	239.090343367	"20"	7334.893790497	7285.932065902	1.5	0.1
0.01	1	0.0152750520001064	1	21	241.026042857	NA	1	0	2.71	1	239.320471137	239.335746189	"20"	7334.893790497	7285.932065902	1.5	0.1
0.01	1	0.00732687500021711	1	21	241.026042857	NA	1	0	2.71	1	239.570899568	239.578226443	"20"	7334.893790497	7285.932065902	1.5	0.1
0.01	1	0.0339330739998331	1	21	241.026042857	NA	1	0	2.71	1	239.804510094999	239.838443168999	"20"	7334.893790497	7285.932065902	1.5	0.1
0.01	1	0.0307023109999136	1	21	241.026042857	NA	1	0	2.71	1	240.07167923	240.102381541	"20"	7334.893790497	7285.932065902	1.5	0.1
0.01	1	0.0514805669999987	1	21	241.026042857	NA	1	0	2.71	1	240.338781505	240.390262072	"20"	7334.893790497	7285.932065902	1.5	0.1
0.01	1	0.0157009240001571	1	21	241.026042857	NA	1	0	2.71	1	240.622589156999	240.638290080999	"20"	7334.893790497	7285.932065902	1.5	0.1
0.01	1	0.046720612000172	1	21	241.026042857	NA	1	0	2.71	1	240.873055972	240.919776584	"20"	7334.893790497	7285.932065902	1.5	0.1
0.01	1	0.369392451000749	1	26	250.47554954	NA	1	0	2.71	1	243.076813420999	243.446205872	"21"	7334.893790497	7285.932065902	1.5	0.1
0.01	1	0.00264151500050502	1	26	250.47554954	NA	1	0	2.71	1	243.677695285	243.6803368	"21"	7334.893790497	7285.932065902	1.5	0.1
0.01	1	0.0713181660003102	1	26	250.47554954	NA	1	0	2.71	1	243.911388324999	243.982706491	"21"	7334.893790497	7285.932065902	1.5	0.1
0.01	1	0.00405710099948919	1	26	250.47554954	NA	1	0	2.71	1	244.21201345	244.216070551	"21"	7334.893790497	7285.932065902	1.5	0.1
0.01	1	0.0253484900003969	1	26	250.47554954	NA	1	0	2.71	1	244.445653893999	244.471002384	"21"	7334.893790497	7285.932065902	1.5	0.1
0.01	1	0.00390206900010526	1	26	250.47554954	NA	1	0	2.71	1	244.696110262	244.700012331	"21"	7334.893790497	7285.932065902	1.5	0.1
0.01	1	0.0458369520001725	1	26	250.47554954	NA	1	0	2.71	1	244.929848723	244.975685675	"21"	7334.893790497	7285.932065902	1.5	0.1
0.01	1	0.00463587699960044	1	26	250.47554954	NA	1	0	2.71	1	245.213654315	245.218290192	"21"	7334.893790497	7285.932065902	1.5	0.1
0.01	1	0.0153993129997616	1	26	250.47554954	NA	1	0	2.71	1	245.4473152	245.462714513	"21"	7334.893790497	7285.932065902	1.5	0.1
0.01	1	0.108693140000469	1	26	250.47554954	NA	1	0	2.71	1	245.697813094999	245.806506235	"21"	7334.893790497	7285.932065902	1.5	0.1
0.01	1	0.0876781960005246	1	26	250.47554954	NA	1	0	2.71	1	246.031648159999	246.119326356	"21"	7334.893790497	7285.932065902	1.5	0.1
0.01	1	0.00462208699991606	1	26	250.47554954	NA	1	0	2.71	1	246.34888291	246.353504997	"21"	7334.893790497	7285.932065902	1.5	0.1
0.01	1	0.00382971900035045	1	26	250.47554954	NA	1	0	2.71	1	246.582604929999	246.586434649	"21"	7334.893790497	7285.932065902	1.5	0.1
0.01	1	0.00384181499975966	1	26	250.47554954	NA	1	0	2.71	1	246.81630643	246.820148244999	"21"	7334.893790497	7285.932065902	1.5	0.1
0.01	1	0.0453339510004298	1	26	250.47554954	NA	1	0	2.71	1	247.050022412	247.095356363	"21"	7334.893790497	7285.932065902	1.5	0.1
0.01	1	0.161758211999768	1	26	250.47554954	NA	1	0	2.71	1	247.333872839999	247.495631051999	"21"	7334.893790497	7285.932065902	1.5	0.1
0.01	1	0.0887914319991978	1	26	250.47554954	NA	1	0	2.71	1	247.717883882	247.806675313999	"21"	7334.893790497	7285.932065902	1.5	0.1
0.01	1	0.0437562320003053	1	26	250.47554954	NA	1	0	2.71	1	248.034979929999	248.078736162	"21"	7334.893790497	7285.932065902	1.5	0.1
0.01	1	0.00207819000024756	1	26	250.47554954	NA	1	0	2.71	1	248.30223539	248.30431358	"21"	7334.893790497	7285.932065902	1.5	0.1
0.01	1	0.111525781000637	1	26	250.47554954	NA	1	0	2.71	1	248.535930839999	248.647456621	"21"	7334.893790497	7285.932065902	1.5	0.1
0.01	1	0.00388869699963834	1	26	250.47554954	NA	1	0	2.71	1	248.869781672	248.873670368999	"21"	7334.893790497	7285.932065902	1.5	0.1
0.01	1	0.0883762369994656	1	26	250.47554954	NA	1	0	2.71	1	249.103606975	249.191983211999	"21"	7334.893790497	7285.932065902	1.5	0.1
0.01	1	0.145660753999437	1	26	250.47554954	NA	1	0	2.71	1	249.420717635	249.566378389	"21"	7334.893790497	7285.932065902	1.5	0.1
0.01	1	0.0736772000000201	1	26	250.47554954	NA	1	0	2.71	1	249.804744274999	249.878421474999	"21"	7334.893790497	7285.932065902	1.5	0.1
0.01	1	0.0227711730003648	1	26	250.47554954	NA	1	0	2.71	1	250.105133909999	250.127905083	"21"	7334.893790497	7285.932065902	1.5	0.1
0.01	1	0.0020389069995872	1	26	250.47554954	NA	1	0	2.71	1	250.355690171	250.357729077999	"21"	7334.893790497	7285.932065902	1.5	0.1
0.01	1	0.394174398999894	1	97	NA	262.737408723	0	0.26	2.97	1	252.509172317	252.903346716	"22"	7334.893790497	7285.932065902	1.5	0.1
0.01	1	0.0038187320005818	1	97	NA	262.737408723	0	0.26	2.97	1	253.143614234999	253.147432967	"22"	7334.893790497	7285.932065902	1.5	0.1
0.01	1	0.150220581999747	1	97	NA	262.737408723	0	0.26	2.97	1	253.37735599	253.527576572	"22"	7334.893790497	7285.932065902	1.5	0.1
0.01	1	0.00209803899997496	1	97	NA	262.737408723	0	0.26	2.97	1	253.761397429999	253.763495468999	"22"	7334.893790497	7285.932065902	1.5	0.1
0.01	1	0.00458567199984827	1	97	NA	262.737408723	0	0.26	2.97	1	253.99506582	253.999651491999	"22"	7334.893790497	7285.932065902	1.5	0.1
0.01	1	0.121633011000085	1	97	NA	262.737408723	0	0.26	2.97	1	254.228758175	254.350391186	"22"	7334.893790497	7285.932065902	1.5	0.1
0.01	1	0.00210751000031451	1	97	NA	262.737408723	0	0.26	2.97	1	254.579390465999	254.581497976	"22"	7334.893790497	7285.932065902	1.5	0.1
0.01	1	0.137269550999918	1	97	NA	262.737408723	0	0.26	2.97	1	254.81316791	254.950437461	"22"	7334.893790497	7285.932065902	1.5	0.1
0.01	1	0.00204178900003171	1	97	NA	262.737408723	0	0.26	2.97	1	255.180358653	255.182400442	"22"	7334.893790497	7285.932065902	1.5	0.1
0.01	1	0.137713504999738	1	97	NA	262.737408723	0	0.26	2.97	1	255.414131287	255.551844791999	"22"	7334.893790497	7285.932065902	1.5	0.1
0.01	1	0.00405609100016591	1	97	NA	262.737408723	0	0.26	2.97	1	255.781356422	255.785412513	"22"	7334.893790497	7285.932065902	1.5	0.1
0.01	1	0.104191030000038	1	97	NA	262.737408723	0	0.26	2.97	1	256.015172662	256.119363692	"22"	7334.893790497	7285.932065902	1.5	0.1
0.01	1	0.297497937999651	1	97	NA	262.737408723	0	0.26	2.97	1	256.349044842	256.646542779999	"22"	7334.893790497	7285.932065902	1.5	0.1
0.01	1	0.147750947000532	1	97	NA	262.737408723	0	0.26	2.97	1	256.883283296999	257.031034244	"22"	7334.893790497	7285.932065902	1.5	0.1
0.01	1	0.0995046090001779	1	97	NA	262.737408723	0	0.26	2.97	1	257.267240169999	257.366744778999	"22"	7334.893790497	7285.932065902	1.5	0.1
0.01	1	0.0939205869999569	1	97	NA	262.737408723	0	0.26	2.97	1	257.601142762	257.695063349	"22"	7334.893790497	7285.932065902	1.5	0.1
0.01	1	0.288660913999593	1	97	NA	262.737408723	0	0.26	2.97	1	257.918378722	258.207039636	"22"	7334.893790497	7285.932065902	1.5	0.1
0.01	1	0.234718730999703	1	97	NA	262.737408723	0	0.26	2.97	1	258.43587813	258.670596860999	"22"	7334.893790497	7285.932065902	1.5	0.1
0.01	1	0.2480022740001	1	97	NA	262.737408723	0	0.26	2.97	1	258.903397309999	259.151399584	"22"	7334.893790497	7285.932065902	1.5	0.1
0.01	1	0.420758305000163	1	97	NA	262.737408723	0	0.26	2.97	1	259.387503389999	259.808261695	"22"	7334.893790497	7285.932065902	1.5	0.1
0.01	1	0.216116915999919	1	97	NA	262.737408723	0	0.26	2.97	1	260.038578562	260.254695478	"22"	7334.893790497	7285.932065902	1.5	0.1
0.01	1	0.214208096999755	1	97	NA	262.737408723	0	0.26	2.97	1	260.489252355	260.703460451999	"22"	7334.893790497	7285.932065902	1.5	0.1
0.01	1	0.130564926000261	1	97	NA	262.737408723	0	0.26	2.97	1	260.940057516999	261.070622443	"22"	7334.893790497	7285.932065902	1.5	0.1
0.01	1	0.155266117000792	1	97	NA	262.737408723	0	0.26	2.97	1	261.307370109999	261.462636227	"22"	7334.893790497	7285.932065902	1.5	0.1
0.01	1	0.114939791999859	1	97	NA	262.737408723	0	0.26	2.97	1	261.691404034	261.806343826	"22"	7334.893790497	7285.932065902	1.5	0.1
0.01	1	0.221337291999589	1	97	NA	262.737408723	0	0.26	2.97	1	262.042017105	262.263354397	"22"	7334.893790497	7285.932065902	1.5	0.1
0.01	1	0.243082529000276	2	97	NA	262.737408723	0	0.26	2.97	1	262.492741956999	262.735824486	"22"	7334.893790497	7285.932065902	1.5	0.1
0.01	1	0.00201914799981751	1	118	NA	269.144808794999	0	0.13	3.1	1	264.779890325	264.781909472999	"23"	7334.893790497	7285.932065902	1.5	0.1
0.01	1	0.0420068049998008	1	118	NA	269.144808794999	0	0.13	3.1	1	265.013705755	265.05571256	"23"	7334.893790497	7285.932065902	1.5	0.1
0.01	1	0.0857894539994959	1	118	NA	269.144808794999	0	0.13	3.1	1	265.28069401	265.366483463999	"23"	7334.893790497	7285.932065902	1.5	0.1
0.01	1	0.0735280489998331	1	118	NA	269.144808794999	0	0.13	3.1	1	265.597922855	265.671450903999	"23"	7334.893790497	7285.932065902	1.5	0.1
0.01	1	0.157626424999762	1	118	NA	269.144808794999	0	0.13	3.1	1	265.898464155	266.056090579999	"23"	7334.893790497	7285.932065902	1.5	0.1
0.01	1	0.108681039000658	1	118	NA	269.144808794999	0	0.13	3.1	1	266.282408489999	266.391089529	"23"	7334.893790497	7285.932065902	1.5	0.1
0.01	1	0.0952092830002584	1	118	NA	269.144808794999	0	0.13	3.1	1	266.61625134	266.711460623	"23"	7334.893790497	7285.932065902	1.5	0.1
0.01	1	0.105787768000482	1	118	NA	269.144808794999	0	0.13	3.1	1	266.933527894999	267.039315663	"23"	7334.893790497	7285.932065902	1.5	0.1
0.01	1	0.0830867000004218	1	118	NA	269.144808794999	0	0.13	3.1	1	267.267410789999	267.35049749	"23"	7334.893790497	7285.932065902	1.5	0.1
0.01	1	0.0868243300001268	1	118	NA	269.144808794999	0	0.13	3.1	1	267.58467019	267.67149452	"23"	7334.893790497	7285.932065902	1.5	0.1
0.01	1	0.0887064720000126	1	118	NA	269.144808794999	0	0.13	3.1	1	267.901742812	267.990449284	"23"	7334.893790497	7285.932065902	1.5	0.1
0.01	1	0.140746023000247	1	118	NA	269.144808794999	0	0.13	3.1	1	268.218987259999	268.359733283	"23"	7334.893790497	7285.932065902	1.5	0.1
0.01	1	0.228200562999518	1	118	NA	269.144808794999	0	0.13	3.1	1	268.586348402	268.814548965	"23"	7334.893790497	7285.932065902	1.5	0.1
0.01	1	0.106228962999921	2	118	NA	269.144808794999	0	0.13	3.1	1	269.036986772	269.143215735	"23"	7334.893790497	7285.932065902	1.5	0.1
0.01	1	0.289894788000311	1	100	NA	280.647782180999	0	0.27	3.37	1	271.174037549999	271.463932338	"24"	7334.893790497	7285.932065902	1.5	0.1
0.01	1	0.00201189000017621	1	100	NA	280.647782180999	0	0.27	3.37	1	271.691603085999	271.693614975999	"24"	7334.893790497	7285.932065902	1.5	0.1
0.01	1	0.0975444720006635	1	100	NA	280.647782180999	0	0.27	3.37	1	271.925221109999	272.022765582	"24"	7334.893790497	7285.932065902	1.5	0.1
0.01	1	0.00462455699926068	1	100	NA	280.647782180999	0	0.27	3.37	1	272.259205585	272.263830141999	"24"	7334.893790497	7285.932065902	1.5	0.1
0.01	1	0.0899827849998474	1	100	NA	280.647782180999	0	0.27	3.37	1	272.49289791	272.582880694999	"24"	7334.893790497	7285.932065902	1.5	0.1
0.01	1	0.00383798700022453	1	100	NA	280.647782180999	0	0.27	3.37	1	272.810079661999	272.813917648999	"24"	7334.893790497	7285.932065902	1.5	0.1
0.01	1	0.0430965179994018	1	100	NA	280.647782180999	0	0.27	3.37	1	273.043800685	273.086897202999	"24"	7334.893790497	7285.932065902	1.5	0.1
0.01	1	0.127575783000793	1	100	NA	280.647782180999	0	0.27	3.37	1	273.310862734999	273.438438518	"24"	7334.893790497	7285.932065902	1.5	0.1
0.01	1	0.282933896000031	1	100	NA	280.647782180999	0	0.27	3.37	1	273.661458824999	273.944392721	"24"	7334.893790497	7285.932065902	1.5	0.1
0.01	1	0.229117941999903	1	100	NA	280.647782180999	0	0.27	3.37	1	274.17910561	274.408223552	"24"	7334.893790497	7285.932065902	1.5	0.1
0.01	1	0.12147356999958	1	100	NA	280.647782180999	0	0.27	3.37	1	274.646492545	274.767966115	"24"	7334.893790497	7285.932065902	1.5	0.1
0.01	1	0.14605169800052	1	100	NA	280.647782180999	0	0.27	3.37	1	274.996987682	275.14303938	"24"	7334.893790497	7285.932065902	1.5	0.1
0.01	1	0.098821216000033	1	100	NA	280.647782180999	0	0.27	3.37	1	275.381005224	275.47982644	"24"	7334.893790497	7285.932065902	1.5	0.1
0.01	1	0.108874453000681	1	100	NA	280.647782180999	0	0.27	3.37	1	275.714949761999	275.823824215	"24"	7334.893790497	7285.932065902	1.5	0.1
0.01	1	0.0787105079998582	1	100	NA	280.647782180999	0	0.27	3.37	1	276.048885794999	276.127596302999	"24"	7334.893790497	7285.932065902	1.5	0.1
0.01	1	0.0575873979996686	1	100	NA	280.647782180999	0	0.27	3.37	1	276.366089437	276.423676834999	"24"	7334.893790497	7285.932065902	1.5	0.1
0.01	1	0.0623869910004942	1	100	NA	280.647782180999	0	0.27	3.37	1	276.649777289999	276.712164281	"24"	7334.893790497	7285.932065902	1.5	0.1
0.01	1	0.0400455269991653	1	100	NA	280.647782180999	0	0.27	3.37	1	276.95040719	276.990452716999	"24"	7334.893790497	7285.932065902	1.5	0.1
0.01	1	0.0770187130001432	1	100	NA	280.647782180999	0	0.27	3.37	1	277.21744427	277.294462983	"24"	7334.893790497	7285.932065902	1.5	0.1
0.01	1	0.048812156999702	1	100	NA	280.647782180999	0	0.27	3.37	1	277.51794378	277.566755936999	"24"	7334.893790497	7285.932065902	1.5	0.1
0.01	1	0.0535779279998678	1	100	NA	280.647782180999	0	0.27	3.37	1	277.801768912	277.85534684	"24"	7334.893790497	7285.932065902	1.5	0.1
0.01	1	0.0809464899994055	1	100	NA	280.647782180999	0	0.27	3.37	1	278.085550424	278.166496913999	"24"	7334.893790497	7285.932065902	1.5	0.1
0.01	1	0.300932092000039	1	100	NA	280.647782180999	0	0.27	3.37	1	278.40281946	278.703751552	"24"	7334.893790497	7285.932065902	1.5	0.1
0.01	1	0.002170630999899	1	100	NA	280.647782180999	0	0.27	3.37	1	278.936963157999	278.939133788999	"24"	7334.893790497	7285.932065902	1.5	0.1
0.01	1	0.00392997099970671	1	100	NA	280.647782180999	0	0.27	3.37	1	279.170816082	279.174746053	"24"	7334.893790497	7285.932065902	1.5	0.1
0.01	1	0.274443453000458	1	100	NA	280.647782180999	0	0.27	3.37	1	279.404586969999	279.679030423	"24"	7334.893790497	7285.932065902	1.5	0.1
0.01	1	0.0615526920000775	1	100	NA	280.647782180999	0	0.27	3.37	1	279.90541142	279.966964112	"24"	7334.893790497	7285.932065902	1.5	0.1
0.01	1	0.457104738999988	2	100	NA	280.647782180999	0	0.27	3.37	1	280.189126429999	280.646231168999	"24"	7334.893790497	7285.932065902	1.5	0.1
0.01	1	0.705037269999593	1	46	NA	292.873881041	0	0.27	3.64	1	282.693331155	283.398368425	"25"	7334.893790497	7285.932065902	1.5	0.1
0.01	1	0.00447695000002568	1	46	NA	292.873881041	0	0.27	3.64	1	283.628230634999	283.632707584999	"25"	7334.893790497	7285.932065902	1.5	0.1
0.01	1	0.00388458699944749	1	46	NA	292.873881041	0	0.27	3.64	1	283.86192615	283.865810736999	"25"	7334.893790497	7285.932065902	1.5	0.1
0.01	1	0.159474510999644	1	46	NA	292.873881041	0	0.27	3.64	1	284.095712017	284.255186527999	"25"	7334.893790497	7285.932065902	1.5	0.1
0.01	1	0.191639998000028	1	46	NA	292.873881041	0	0.27	3.64	1	284.479678795	284.671318793	"25"	7334.893790497	7285.932065902	1.5	0.1
0.01	1	0.00202745000024152	1	46	NA	292.873881041	0	0.27	3.64	1	284.897091092999	284.899118543	"25"	7334.893790497	7285.932065902	1.5	0.1
0.01	1	0.12540682800045	1	46	NA	292.873881041	0	0.27	3.64	1	285.130815279999	285.256222108	"25"	7334.893790497	7285.932065902	1.5	0.1
0.01	1	0.00453018500047619	1	46	NA	292.873881041	0	0.27	3.64	1	285.48137464	285.485904825	"25"	7334.893790497	7285.932065902	1.5	0.1
0.01	1	0.123928492000232	1	46	NA	292.873881041	0	0.27	3.64	1	285.715123931	285.839052423	"25"	7334.893790497	7285.932065902	1.5	0.1
0.01	1	0.00212805299997854	1	46	NA	292.873881041	0	0.27	3.64	1	286.065728539999	286.067856592999	"25"	7334.893790497	7285.932065902	1.5	0.1
0.01	1	0.10811004199968	1	46	NA	292.873881041	0	0.27	3.64	1	286.299438567	286.407548609	"25"	7334.893790497	7285.932065902	1.5	0.1
0.01	1	0.00391350900008547	1	46	NA	292.873881041	0	0.27	3.64	1	286.633358542	286.637272051	"25"	7334.893790497	7285.932065902	1.5	0.1
0.01	1	0.0676244009991933	1	46	NA	292.873881041	0	0.27	3.64	1	286.86702005	286.934644450999	"25"	7334.893790497	7285.932065902	1.5	0.1
0.01	1	0.0880360700002711	1	46	NA	292.873881041	0	0.27	3.64	1	287.167643485	287.255679555	"25"	7334.893790497	7285.932065902	1.5	0.1
0.01	1	0.0744149849997484	1	46	NA	292.873881041	0	0.27	3.64	1	287.484674572	287.559089556999	"25"	7334.893790497	7285.932065902	1.5	0.1
0.01	1	0.0610360199998468	1	46	NA	292.873881041	0	0.27	3.64	1	287.785282755	287.846318774999	"25"	7334.893790497	7285.932065902	1.5	0.1
0.01	1	0.0582924930004083	1	46	NA	292.873881041	0	0.27	3.64	1	288.069071911999	288.127364405	"25"	7334.893790497	7285.932065902	1.5	0.1
0.01	1	0.0455367639997348	1	46	NA	292.873881041	0	0.27	3.64	1	288.35294603	288.398482793999	"25"	7334.893790497	7285.932065902	1.5	0.1
0.01	1	0.0676062399998045	1	46	NA	292.873881041	0	0.27	3.64	1	288.62008956	288.687695799999	"25"	7334.893790497	7285.932065902	1.5	0.1
0.01	1	0.606891108999662	1	46	NA	292.873881041	0	0.27	3.64	1	288.920478057	289.527369166	"25"	7334.893790497	7285.932065902	1.5	0.1
0.01	1	0.0682309320000059	1	46	NA	292.873881041	0	0.27	3.64	1	289.755285107	289.823516039	"25"	7334.893790497	7285.932065902	1.5	0.1
0.01	1	0.0467994219998218	1	46	NA	292.873881041	0	0.27	3.64	1	290.055745872	290.102545293999	"25"	7334.893790497	7285.932065902	1.5	0.1
0.01	1	0.412672931000088	1	46	NA	292.873881041	0	0.27	3.64	1	290.339507631	290.752180562	"25"	7334.893790497	7285.932065902	1.5	0.1
0.01	1	0.0556146529997932	1	46	NA	292.873881041	0	0.27	3.64	1	290.990699430999	291.046314083999	"25"	7334.893790497	7285.932065902	1.5	0.1
0.01	1	0.0609315720002996	1	46	NA	292.873881041	0	0.27	3.64	1	291.274384865	291.335316437	"25"	7334.893790497	7285.932065902	1.5	0.1
0.01	1	0.345218632999604	1	46	NA	292.873881041	0	0.27	3.64	1	291.55828391	291.903502542999	"25"	7334.893790497	7285.932065902	1.5	0.1
0.01	1	0.0893779039997753	1	46	NA	292.873881041	0	0.27	3.64	1	292.125915225	292.215293128999	"25"	7334.893790497	7285.932065902	1.5	0.1
0.01	1	0.429285203999825	2	46	NA	292.873881041	0	0.27	3.64	1	292.44302964	292.872314843999	"25"	7334.893790497	7285.932065902	1.5	0.1
0.01	1	0.52473553999971	1	102	NA	304.312081802999	0	0.26	3.9	1	294.913869235	295.438604774999	"26"	7334.893790497	7285.932065902	1.5	0.1
0.01	1	0.00205889500011835	1	102	NA	304.312081802999	0	0.26	3.9	1	295.665224429	295.667283324	"26"	7334.893790497	7285.932065902	1.5	0.1
0.01	1	0.116523337999752	1	102	NA	304.312081802999	0	0.26	3.9	1	295.898903442	296.01542678	"26"	7334.893790497	7285.932065902	1.5	0.1
0.01	1	0.00217202800013183	1	102	NA	304.312081802999	0	0.26	3.9	1	296.24943819	296.251610218	"26"	7334.893790497	7285.932065902	1.5	0.1
0.01	1	0.124447486000463	1	102	NA	304.312081802999	0	0.26	3.9	1	296.483236685	296.607684171	"26"	7334.893790497	7285.932065902	1.5	0.1
0.01	1	0.00418262299990602	1	102	NA	304.312081802999	0	0.26	3.9	1	296.833775411999	296.837958034999	"26"	7334.893790497	7285.932065902	1.5	0.1
0.01	1	0.00386840800001664	1	102	NA	304.312081802999	0	0.26	3.9	1	297.067520494999	297.071388902999	"26"	7334.893790497	7285.932065902	1.5	0.1
0.01	1	0.0971960409997337	1	102	NA	304.312081802999	0	0.26	3.9	1	297.301331492	297.398527533	"26"	7334.893790497	7285.932065902	1.5	0.1
0.01	1	0.00464329700025701	1	102	NA	304.312081802999	0	0.26	3.9	1	297.635211479999	297.639854777	"26"	7334.893790497	7285.932065902	1.5	0.1
0.01	1	0.00458768699991197	1	102	NA	304.312081802999	0	0.26	3.9	1	297.868952205	297.873539892	"26"	7334.893790497	7285.932065902	1.5	0.1
0.01	1	0.151895508999587	1	102	NA	304.312081802999	0	0.26	3.9	1	298.1025681	298.254463609	"26"	7334.893790497	7285.932065902	1.5	0.1
0.01	1	0.0031676159997005	1	102	NA	304.312081802999	0	0.26	3.9	1	298.486544149	298.489711765	"26"	7334.893790497	7285.932065902	1.5	0.1
0.01	1	0.191736636999849	1	102	NA	304.312081802999	0	0.26	3.9	1	298.72035064	298.912087277	"26"	7334.893790497	7285.932065902	1.5	0.1
0.01	1	0.140946077000081	1	102	NA	304.312081802999	0	0.26	3.9	1	299.137679772	299.278625849	"26"	7334.893790497	7285.932065902	1.5	0.1
0.01	1	0.102195757000118	1	102	NA	304.312081802999	0	0.26	3.9	1	299.50500048	299.607196237	"26"	7334.893790497	7285.932065902	1.5	0.1
0.01	1	0.089382752000347	1	102	NA	304.312081802999	0	0.26	3.9	1	299.838790843	299.928173595	"26"	7334.893790497	7285.932065902	1.5	0.1
0.01	1	0.23434406800061	1	102	NA	304.312081802999	0	0.26	3.9	1	300.156091164999	300.390435233	"26"	7334.893790497	7285.932065902	1.5	0.1
0.01	1	0.126951606000148	1	102	NA	304.312081802999	0	0.26	3.9	1	300.623568919999	300.750520525999	"26"	7334.893790497	7285.932065902	1.5	0.1
0.01	1	0.104592605999642	1	102	NA	304.312081802999	0	0.26	3.9	1	300.974112415	301.078705020999	"26"	7334.893790497	7285.932065902	1.5	0.1
0.01	1	0.131944929999918	1	102	NA	304.312081802999	0	0.26	3.9	1	301.308036797	301.439981727	"26"	7334.893790497	7285.932065902	1.5	0.1
0.01	1	0.123092775000259	1	102	NA	304.312081802999	0	0.26	3.9	1	301.675279796999	301.798372572	"26"	7334.893790497	7285.932065902	1.5	0.1
0.01	1	0.181976986000336	1	102	NA	304.312081802999	0	0.26	3.9	1	302.025810124999	302.207787111	"26"	7334.893790497	7285.932065902	1.5	0.1
0.01	1	0.171208185000069	1	102	NA	304.312081802999	0	0.26	3.9	1	302.443321066999	302.614529252	"26"	7334.893790497	7285.932065902	1.5	0.1
0.01	1	0.507172395000453	1	102	NA	304.312081802999	0	0.26	3.9	1	302.844031887999	303.351204283	"26"	7334.893790497	7285.932065902	1.5	0.1
0.01	1	0.141628451999168	1	102	NA	304.312081802999	0	0.26	3.9	1	303.578454415	303.720082866999	"26"	7334.893790497	7285.932065902	1.5	0.1
0.01	1	0.108788500000628	1	102	NA	304.312081802999	0	0.26	3.9	1	303.945763064999	304.054551565	"26"	7334.893790497	7285.932065902	1.5	0.1
0.01	1	0.0308419299999514	2	102	NA	304.312081802999	0	0.26	3.9	1	304.279687352	304.310529282	"26"	7334.893790497	7285.932065902	1.5	0.1
0.01	1	0.400645347000136	1	120	NA	315.441556973	0	0.25	4.15	1	306.366626132	306.767271479	"27"	7334.893790497	7285.932065902	1.5	0.1
0.01	1	0.133624187999885	1	120	NA	315.441556973	0	0.25	4.15	1	307.000904862	307.134529049999	"27"	7334.893790497	7285.932065902	1.5	0.1
0.01	1	0.00222286000007443	1	120	NA	315.441556973	0	0.25	4.15	1	307.368269394	307.370492254	"27"	7334.893790497	7285.932065902	1.5	0.1
0.01	1	0.109951182999794	1	120	NA	315.441556973	0	0.25	4.15	1	307.601824742	307.711775925	"27"	7334.893790497	7285.932065902	1.5	0.1
0.01	1	0.0021998900001563	1	120	NA	315.441556973	0	0.25	4.15	1	307.93578484	307.93798473	"27"	7334.893790497	7285.932065902	1.5	0.1
0.01	1	0.126073528000234	1	120	NA	315.441556973	0	0.25	4.15	1	308.169547052	308.29562058	"27"	7334.893790497	7285.932065902	1.5	0.1
0.01	1	0.00208787700012181	1	120	NA	315.441556973	0	0.25	4.15	1	308.520171591999	308.522259468999	"27"	7334.893790497	7285.932065902	1.5	0.1
0.01	1	0.00213752399940859	1	120	NA	315.441556973	0	0.25	4.15	1	308.75384932	308.755986843999	"27"	7334.893790497	7285.932065902	1.5	0.1
0.01	1	0.00206127000001288	1	120	NA	315.441556973	0	0.25	4.15	1	308.987636483999	308.989697753999	"27"	7334.893790497	7285.932065902	1.5	0.1
0.01	1	0.362323433999336	1	120	NA	315.441556973	0	0.25	4.15	1	309.221339867	309.583663300999	"27"	7334.893790497	7285.932065902	1.5	0.1
0.01	1	0.105747444999906	1	120	NA	315.441556973	0	0.25	4.15	1	309.805612489999	309.911359934999	"27"	7334.893790497	7285.932065902	1.5	0.1
0.01	1	0.0349732419999782	1	120	NA	315.441556973	0	0.25	4.15	1	310.1395157	310.174488942	"27"	7334.893790497	7285.932065902	1.5	0.1
0.01	1	0.0721368829999847	1	120	NA	315.441556973	0	0.25	4.15	1	310.406719011999	310.478855894999	"27"	7334.893790497	7285.932065902	1.5	0.1
0.01	1	0.0594244379999509	1	120	NA	315.441556973	0	0.25	4.15	1	310.707233571999	310.766658009999	"27"	7334.893790497	7285.932065902	1.5	0.1
0.01	1	0.0557392319997234	1	120	NA	315.441556973	0	0.25	4.15	1	310.990917211	311.046656443	"27"	7334.893790497	7285.932065902	1.5	0.1
0.01	1	0.235396676000164	1	120	NA	315.441556973	0	0.25	4.15	1	311.274791676999	311.510188353	"27"	7334.893790497	7285.932065902	1.5	0.1
0.01	1	0.137386652000714	1	120	NA	315.441556973	0	0.25	4.15	1	311.742277439999	311.879664092	"27"	7334.893790497	7285.932065902	1.5	0.1
0.01	1	0.145599416999175	1	120	NA	315.441556973	0	0.25	4.15	1	312.109446845	312.255046261999	"27"	7334.893790497	7285.932065902	1.5	0.1
0.01	1	0.130082358999971	1	120	NA	315.441556973	0	0.25	4.15	1	312.493481519999	312.623563878999	"27"	7334.893790497	7285.932065902	1.5	0.1
0.01	1	0.169542730000103	1	120	NA	315.441556973	0	0.25	4.15	1	312.860746259999	313.030288989999	"27"	7334.893790497	7285.932065902	1.5	0.1
0.01	1	0.177618081999753	1	120	NA	315.441556973	0	0.25	4.15	1	313.26149904	313.439117122	"27"	7334.893790497	7285.932065902	1.5	0.1
0.01	1	0.169343797000693	1	120	NA	315.441556973	0	0.25	4.15	1	313.662210754999	313.831554552	"27"	7334.893790497	7285.932065902	1.5	0.1
0.01	1	0.16100437499972	1	120	NA	315.441556973	0	0.25	4.15	1	314.062716732	314.223721107	"27"	7334.893790497	7285.932065902	1.5	0.1
0.01	1	0.176928961000158	1	120	NA	315.441556973	0	0.25	4.15	1	314.446745421999	314.623674383	"27"	7334.893790497	7285.932065902	1.5	0.1
0.01	1	0.176242514000478	1	120	NA	315.441556973	0	0.25	4.15	1	314.847477644999	315.023720159	"27"	7334.893790497	7285.932065902	1.5	0.1
0.01	1	0.191882207000162	2	120	NA	315.441556973	0	0.25	4.15	1	315.248077169999	315.439959376999	"27"	7334.893790497	7285.932065902	1.5	0.1
0.01	1	0.417269478999515	1	44	NA	325.937036513	0	0.26	4.41	1	317.485261664	317.902531143	"28"	7334.893790497	7285.932065902	1.5	0.1
0.01	1	0.0391268550001769	1	44	NA	325.937036513	0	0.26	4.41	1	318.136286315	318.17541317	"28"	7334.893790497	7285.932065902	1.5	0.1
0.01	1	0.00212412900054915	1	44	NA	325.937036513	0	0.26	4.41	1	318.403489761999	318.405613891	"28"	7334.893790497	7285.932065902	1.5	0.1
0.01	1	0.00434160400072869	1	44	NA	325.937036513	0	0.26	4.41	1	318.637183180999	318.641524785	"28"	7334.893790497	7285.932065902	1.5	0.1
0.01	1	0.00456948800001555	1	44	NA	325.937036513	0	0.26	4.41	1	318.870956667	318.875526155	"28"	7334.893790497	7285.932065902	1.5	0.1
0.01	1	0.127416102000097	1	44	NA	325.937036513	0	0.26	4.41	1	319.10453987	319.231955972	"28"	7334.893790497	7285.932065902	1.5	0.1
0.01	1	0.00200810700061993	1	44	NA	325.937036513	0	0.26	4.41	1	319.455286687999	319.457294795	"28"	7334.893790497	7285.932065902	1.5	0.1
0.01	1	0.00211411599957501	1	44	NA	325.937036513	0	0.26	4.41	1	319.689017545	319.691131660999	"28"	7334.893790497	7285.932065902	1.5	0.1
0.01	1	0.141351026999473	1	44	NA	325.937036513	0	0.26	4.41	1	319.922684405	320.064035431999	"28"	7334.893790497	7285.932065902	1.5	0.1
