"payoff.level"	"balloon"	"rt"	"resp"	"explode.trial"	"explode.time"	"finish.time"	"exploded"	"trial.total"	"cumulative.total"	"finished"	"trial.start"	"trial.end"	"trial.num"	"secs"	"start.time"	"iti"	"isi"
0.01	1	0.889857214999211	1	64	NA	9.08765386600135	0	0.12	0.12	1	0.020884436002234	0.910741651001445	"1"	37233.018343019	37199.114386522	1.5	0.1
0.01	1	0.376224965002621	1	64	NA	9.08765386600135	0	0.12	0.12	1	1.20616786800383	1.58239283300645	"1"	37233.018343019	37199.114386522	1.5	0.1
0.01	1	0.439598532000673	1	64	NA	9.08765386600135	0	0.12	0.12	1	1.80712034099997	2.24671887300065	"1"	37233.018343019	37199.114386522	1.5	0.1
0.01	1	0.482640481000999	1	64	NA	9.08765386600135	0	0.12	0.12	1	2.47506353800418	2.95770401900518	"1"	37233.018343019	37199.114386522	1.5	0.1
0.01	1	0.460637406999012	1	64	NA	9.08765386600135	0	0.12	0.12	1	3.19293859600293	3.65357600300194	"1"	37233.018343019	37199.114386522	1.5	0.1
0.01	1	0.457315215004201	1	64	NA	9.08765386600135	0	0.12	0.12	1	3.87738727800024	4.33470249300444	"1"	37233.018343019	37199.114386522	1.5	0.1
0.01	1	0.437688472004083	1	64	NA	9.08765386600135	0	0.12	0.12	1	4.56180130100256	4.99948977300664	"1"	37233.018343019	37199.114386522	1.5	0.1
0.01	1	0.361230927002907	1	64	NA	9.08765386600135	0	0.12	0.12	1	5.22969889300293	5.59092982000584	"1"	37233.018343019	37199.114386522	1.5	0.1
0.01	1	0.408985476999078	1	64	NA	9.08765386600135	0	0.12	0.12	1	5.81383207100589	6.22281754800497	"1"	37233.018343019	37199.114386522	1.5	0.1
0.01	1	0.414315118003287	1	64	NA	9.08765386600135	0	0.12	0.12	1	6.44841244800045	6.86272756600374	"1"	37233.018343019	37199.114386522	1.5	0.1
0.01	1	0.59592474099918	1	64	NA	9.08765386600135	0	0.12	0.12	1	7.09935949600185	7.69528423700103	"1"	37233.018343019	37199.114386522	1.5	0.1
0.01	1	0.50421176400414	1	64	NA	9.08765386600135	0	0.12	0.12	1	7.91750721100107	8.42171897500521	"1"	37233.018343019	37199.114386522	1.5	0.1
0.01	1	0.433817605997319	2	64	NA	9.08765386600135	0	0.12	0.12	1	8.65212030300609	9.08593790900341	"1"	37233.018343019	37199.114386522	1.5	0.1
0.01	1	0.459110685005726	1	68	NA	28.6644642890024	0	0.31	0.43	1	11.1395495010001	11.5986601860059	"2"	37233.018343019	37199.114386522	1.5	0.1
0.01	1	0.00379525600146735	1	68	NA	28.6644642890024	0	0.31	0.43	1	11.8240626309998	11.8278578870013	"2"	37233.018343019	37199.114386522	1.5	0.1
0.01	1	0.0529783220044919	1	68	NA	28.6644642890024	0	0.31	0.43	1	12.0578010210011	12.1107793430056	"2"	37233.018343019	37199.114386522	1.5	0.1
0.01	1	0.417781107003975	1	68	NA	28.6644642890024	0	0.31	0.43	1	12.3415635929996	12.7593447000036	"2"	37233.018343019	37199.114386522	1.5	0.1
0.01	1	0.23001472499891	1	68	NA	28.6644642890024	0	0.31	0.43	1	12.9926146710059	13.2226293960048	"2"	37233.018343019	37199.114386522	1.5	0.1
0.01	1	0.298050786994281	1	68	NA	28.6644642890024	0	0.31	0.43	1	13.4600862710067	13.758137058001	"2"	37233.018343019	37199.114386522	1.5	0.1
0.01	1	0.259894855000312	1	68	NA	28.6644642890024	0	0.31	0.43	1	13.9944363510003	14.2543312060006	"2"	37233.018343019	37199.114386522	1.5	0.1
0.01	1	0.279780853001284	1	68	NA	28.6644642890024	0	0.31	0.43	1	14.4785655230007	14.758346376002	"2"	37233.018343019	37199.114386522	1.5	0.1
0.01	1	0.2823858940028	1	68	NA	28.6644642890024	0	0.31	0.43	1	14.9960126430014	15.2783985370043	"2"	37233.018343019	37199.114386522	1.5	0.1
0.01	1	0.24547820299631	1	68	NA	28.6644642890024	0	0.31	0.43	1	15.5136465660034	15.7591247689998	"2"	37233.018343019	37199.114386522	1.5	0.1
0.01	1	0.265371180998045	1	68	NA	28.6644642890024	0	0.31	0.43	1	15.9977468460056	16.2631180270037	"2"	37233.018343019	37199.114386522	1.5	0.1
0.01	1	0.292402874001709	1	68	NA	28.6644642890024	0	0.31	0.43	1	16.4984890030028	16.7908918770045	"2"	37233.018343019	37199.114386522	1.5	0.1
0.01	1	0.29405179299647	1	68	NA	28.6644642890024	0	0.31	0.43	1	17.0161609960051	17.3102127890015	"2"	37233.018343019	37199.114386522	1.5	0.1
0.01	1	0.368862608003838	1	68	NA	28.6644642890024	0	0.31	0.43	1	17.5336872309999	17.9025498390038	"2"	37233.018343019	37199.114386522	1.5	0.1
0.01	1	0.34438463600236	1	68	NA	28.6644642890024	0	0.31	0.43	1	18.1345856300031	18.4789702660055	"2"	37233.018343019	37199.114386522	1.5	0.1
0.01	1	0.29570731199783	1	68	NA	28.6644642890024	0	0.31	0.43	1	18.7190837510061	19.0147910630039	"2"	37233.018343019	37199.114386522	1.5	0.1
0.01	1	0.273953449002875	1	68	NA	28.6644642890024	0	0.31	0.43	1	19.2531924580035	19.5271459070063	"2"	37233.018343019	37199.114386522	1.5	0.1
0.01	1	0.293187659997784	1	68	NA	28.6644642890024	0	0.31	0.43	1	19.7540456560018	20.0472333159996	"2"	37233.018343019	37199.114386522	1.5	0.1
0.01	1	0.286245686998882	1	68	NA	28.6644642890024	0	0.31	0.43	1	20.2717035910027	20.5579492780016	"2"	37233.018343019	37199.114386522	1.5	0.1
0.01	1	0.28087203999894	1	68	NA	28.6644642890024	0	0.31	0.43	1	20.7891487580055	21.0700207980044	"2"	37233.018343019	37199.114386522	1.5	0.1
0.01	1	0.340454529003182	1	68	NA	28.6644642890024	0	0.31	0.43	1	21.3066885410008	21.6471430700039	"2"	37233.018343019	37199.114386522	1.5	0.1
0.01	1	0.356812074001937	1	68	NA	28.6644642890024	0	0.31	0.43	1	21.8743121610023	22.2311242350042	"2"	37233.018343019	37199.114386522	1.5	0.1
0.01	1	0.355688135001401	1	68	NA	28.6644642890024	0	0.31	0.43	1	22.4585630760048	22.8142512110062	"2"	37233.018343019	37199.114386522	1.5	0.1
0.01	1	0.388399038994976	1	68	NA	28.6644642890024	0	0.31	0.43	1	23.0429687160067	23.4313677550017	"2"	37233.018343019	37199.114386522	1.5	0.1
0.01	1	0.354394911999407	1	68	NA	28.6644642890024	0	0.31	0.43	1	23.6607170060015	24.0151119180009	"2"	37233.018343019	37199.114386522	1.5	0.1
0.01	1	0.378155947000778	1	68	NA	28.6644642890024	0	0.31	0.43	1	24.2448684370029	24.6230243840037	"2"	37233.018343019	37199.114386522	1.5	0.1
0.01	1	0.528722462993755	1	68	NA	28.6644642890024	0	0.31	0.43	1	24.8459469460067	25.3746694090005	"2"	37233.018343019	37199.114386522	1.5	0.1
0.01	1	0.561033514997689	1	68	NA	28.6644642890024	0	0.31	0.43	1	25.5971689510043	26.158202466002	"2"	37233.018343019	37199.114386522	1.5	0.1
0.01	1	0.569101829998544	1	68	NA	28.6644642890024	0	0.31	0.43	1	26.3818500760026	26.9509519060011	"2"	37233.018343019	37199.114386522	1.5	0.1
0.01	1	0.303697077004472	1	68	NA	28.6644642890024	0	0.31	0.43	1	27.1831557760015	27.486852853006	"2"	37233.018343019	37199.114386522	1.5	0.1
0.01	1	0.329662249998364	1	68	NA	28.6644642890024	0	0.31	0.43	1	27.7174651010064	28.0471273510047	"2"	37233.018343019	37199.114386522	1.5	0.1
0.01	1	0.377742021002632	2	68	NA	28.6644642890024	0	0.31	0.43	1	28.285032026004	28.6627740470067	"2"	37233.018343019	37199.114386522	1.5	0.1
0.01	1	0.0616919379972387	1	33	NA	50.2719926280042	0	0.3	0.73	1	30.7058623200064	30.7675542580037	"3"	37233.018343019	37199.114386522	1.5	0.1
0.01	1	0.455977926001651	1	33	NA	50.2719926280042	0	0.3	0.73	1	31.0063194610048	31.4622973870064	"3"	37233.018343019	37199.114386522	1.5	0.1
0.01	1	0.28414216600504	1	33	NA	50.2719926280042	0	0.3	0.73	1	31.6907874710014	31.9749296370064	"3"	37233.018343019	37199.114386522	1.5	0.1
0.01	1	0.334873630999937	1	33	NA	50.2719926280042	0	0.3	0.73	1	32.2083331780013	32.5432068090013	"3"	37233.018343019	37199.114386522	1.5	0.1
0.01	1	0.294546491997608	1	33	NA	50.2719926280042	0	0.3	0.73	1	32.7759979910043	33.0705444830019	"3"	37233.018343019	37199.114386522	1.5	0.1
0.01	1	0.329344164005306	1	33	NA	50.2719926280042	0	0.3	0.73	1	33.2934494410001	33.6227936050054	"3"	37233.018343019	37199.114386522	1.5	0.1
0.01	1	0.386199442997167	1	33	NA	50.2719926280042	0	0.3	0.73	1	33.8611263210041	34.2473257640013	"3"	37233.018343019	37199.114386522	1.5	0.1
0.01	1	0.31198576099996	1	33	NA	50.2719926280042	0	0.3	0.73	1	34.4788348080037	34.7908205690037	"3"	37233.018343019	37199.114386522	1.5	0.1
0.01	1	0.353323180002917	1	33	NA	50.2719926280042	0	0.3	0.73	1	35.0130805060035	35.3664036860064	"3"	37233.018343019	37199.114386522	1.5	0.1
0.01	1	0.361886400001822	1	33	NA	50.2719926280042	0	0.3	0.73	1	35.5973611310037	35.9592475310055	"3"	37233.018343019	37199.114386522	1.5	0.1
0.01	1	0.368832252999709	1	33	NA	50.2719926280042	0	0.3	0.73	1	36.1816414960049	36.5504737490046	"3"	37233.018343019	37199.114386522	1.5	0.1
0.01	1	0.415041214000667	1	33	NA	50.2719926280042	0	0.3	0.73	1	36.782636916003	37.1976781300036	"3"	37233.018343019	37199.114386522	1.5	0.1
0.01	1	0.381127405002189	1	33	NA	50.2719926280042	0	0.3	0.73	1	37.4336973110039	37.8148247160061	"3"	37233.018343019	37199.114386522	1.5	0.1
0.01	1	0.386780583001382	1	33	NA	50.2719926280042	0	0.3	0.73	1	38.0514447280002	38.4382253110016	"3"	37233.018343019	37199.114386522	1.5	0.1
0.01	1	0.378033025997865	1	33	NA	50.2719926280042	0	0.3	0.73	1	38.669281418006	39.0473144440039	"3"	37233.018343019	37199.114386522	1.5	0.1
0.01	1	0.408956138002395	1	33	NA	50.2719926280042	0	0.3	0.73	1	39.2701488660023	39.6791050040047	"3"	37233.018343019	37199.114386522	1.5	0.1
0.01	1	0.436890844001027	1	33	NA	50.2719926280042	0	0.3	0.73	1	39.9046883680057	40.3415792120068	"3"	37233.018343019	37199.114386522	1.5	0.1
0.01	1	0.442470654001227	1	33	NA	50.2719926280042	0	0.3	0.73	1	40.572426716004	41.0148973700052	"3"	37233.018343019	37199.114386522	1.5	0.1
0.01	1	0.398847848002333	1	33	NA	50.2719926280042	0	0.3	0.73	1	41.2402111210031	41.6390589690054	"3"	37233.018343019	37199.114386522	1.5	0.1
0.01	1	0.779836360001354	1	33	NA	50.2719926280042	0	0.3	0.73	1	41.8745328380028	42.6543691980041	"3"	37233.018343019	37199.114386522	1.5	0.1
0.01	1	0.505699174995243	1	33	NA	50.2719926280042	0	0.3	0.73	1	42.8929600410047	43.3986592159999	"3"	37233.018343019	37199.114386522	1.5	0.1
0.01	1	0.4678920189981	1	33	NA	50.2719926280042	0	0.3	0.73	1	43.6275567710036	44.0954487900017	"3"	37233.018343019	37199.114386522	1.5	0.1
0.01	1	0.470469949999824	1	33	NA	50.2719926280042	0	0.3	0.73	1	44.3287381310001	44.799208081	"3"	37233.018343019	37199.114386522	1.5	0.1
0.01	1	0.464600417995825	1	33	NA	50.2719926280042	0	0.3	0.73	1	45.0299006710047	45.4945010890006	"3"	37233.018343019	37199.114386522	1.5	0.1
0.01	1	0.466899093000393	1	33	NA	50.2719926280042	0	0.3	0.73	1	45.7309982080042	46.1978973010046	"3"	37233.018343019	37199.114386522	1.5	0.1
0.01	1	0.518345598000451	1	33	NA	50.2719926280042	0	0.3	0.73	1	46.4322544660026	46.9506000640031	"3"	37233.018343019	37199.114386522	1.5	0.1
0.01	1	0.446793702001742	1	33	NA	50.2719926280042	0	0.3	0.73	1	47.1836205580039	47.6304142600056	"3"	37233.018343019	37199.114386522	1.5	0.1
0.01	1	0.474938672996359	1	33	NA	50.2719926280042	0	0.3	0.73	1	47.8679665760064	48.3429052490028	"3"	37233.018343019	37199.114386522	1.5	0.1
0.01	1	0.437160317000234	1	33	NA	50.2719926280042	0	0.3	0.73	1	48.5691880459999	49.0063483630001	"3"	37233.018343019	37199.114386522	1.5	0.1
0.01	1	0.392619183003262	1	33	NA	50.2719926280042	0	0.3	0.73	1	49.2369785260016	49.6295977090049	"3"	37233.018343019	37199.114386522	1.5	0.1
0.01	1	0.415540991998569	2	33	NA	50.2719926280042	0	0.3	0.73	1	49.8547488380063	50.2702898300049	"3"	37233.018343019	37199.114386522	1.5	0.1
0.01	1	0.00358908899943344	1	105	NA	70.4394712970025	0	0.3	1.03	1	52.3254772260043	52.3290663150037	"4"	37233.018343019	37199.114386522	1.5	0.1
0.01	1	0.238821774000826	1	105	NA	70.4394712970025	0	0.3	1.03	1	52.5591870210046	52.7980087950054	"4"	37233.018343019	37199.114386522	1.5	0.1
0.01	1	0.340014253000845	1	105	NA	70.4394712970025	0	0.3	1.03	1	53.0266880960044	53.3667023490052	"4"	37233.018343019	37199.114386522	1.5	0.1
0.01	1	0.316619757002627	1	105	NA	70.4394712970025	0	0.3	1.03	1	53.5942687860006	53.9108885430032	"4"	37233.018343019	37199.114386522	1.5	0.1
0.01	1	0.325922873002128	1	105	NA	70.4394712970025	0	0.3	1.03	1	54.1452369960025	54.4711598690046	"4"	37233.018343019	37199.114386522	1.5	0.1
0.01	1	0.317696965001232	1	105	NA	70.4394712970025	0	0.3	1.03	1	54.6961488110028	55.013845776004	"4"	37233.018343019	37199.114386522	1.5	0.1
0.01	1	0.303918523000902	1	105	NA	70.4394712970025	0	0.3	1.03	1	55.2471060030002	55.5510245260011	"4"	37233.018343019	37199.114386522	1.5	0.1
0.01	1	0.474032988997351	1	105	NA	70.4394712970025	0	0.3	1.03	1	55.7813075310041	56.2553405200015	"4"	37233.018343019	37199.114386522	1.5	0.1
0.01	1	0.3562268329988	1	105	NA	70.4394712970025	0	0.3	1.03	1	56.4824967110035	56.8387235440023	"4"	37233.018343019	37199.114386522	1.5	0.1
0.01	1	0.411599414997909	1	105	NA	70.4394712970025	0	0.3	1.03	1	57.0667678410027	57.4783672560006	"4"	37233.018343019	37199.114386522	1.5	0.1
0.01	1	0.368874455001787	1	105	NA	70.4394712970025	0	0.3	1.03	1	57.7179104509996	58.0867849060014	"4"	37233.018343019	37199.114386522	1.5	0.1
0.01	1	0.350670788000571	1	105	NA	70.4394712970025	0	0.3	1.03	1	58.3190024930009	58.6696732810015	"4"	37233.018343019	37199.114386522	1.5	0.1
0.01	1	0.350556072000472	1	105	NA	70.4394712970025	0	0.3	1.03	1	58.9033089510049	59.2538650230053	"4"	37233.018343019	37199.114386522	1.5	0.1
0.01	1	0.375294468001812	1	105	NA	70.4394712970025	0	0.3	1.03	1	59.4876102230046	59.8629046910064	"4"	37233.018343019	37199.114386522	1.5	0.1
0.01	1	0.390342769002018	1	105	NA	70.4394712970025	0	0.3	1.03	1	60.0885530860032	60.4788958550052	"4"	37233.018343019	37199.114386522	1.5	0.1
0.01	1	0.348461175999546	1	105	NA	70.4394712970025	0	0.3	1.03	1	60.7062522560009	61.0547134320004	"4"	37233.018343019	37199.114386522	1.5	0.1
0.01	1	0.37957631899917	1	105	NA	70.4394712970025	0	0.3	1.03	1	61.2906726960064	61.6702490150055	"4"	37233.018343019	37199.114386522	1.5	0.1
0.01	1	0.346847409004113	1	105	NA	70.4394712970025	0	0.3	1.03	1	61.9082777860021	62.2551251950063	"4"	37233.018343019	37199.114386522	1.5	0.1
0.01	1	0.32900774400332	1	105	NA	70.4394712970025	0	0.3	1.03	1	62.4925303280033	62.8215380720067	"4"	37233.018343019	37199.114386522	1.5	0.1
0.01	1	0.418156136001926	1	105	NA	70.4394712970025	0	0.3	1.03	1	63.0435274370029	63.4616835730048	"4"	37233.018343019	37199.114386522	1.5	0.1
0.01	1	0.390887319001195	1	105	NA	70.4394712970025	0	0.3	1.03	1	63.6945821870031	64.0854695060043	"4"	37233.018343019	37199.114386522	1.5	0.1
0.01	1	0.42178825699375	1	105	NA	70.4394712970025	0	0.3	1.03	1	64.3123425760059	64.7341308329997	"4"	37233.018343019	37199.114386522	1.5	0.1
0.01	1	0.419210305000888	1	105	NA	70.4394712970025	0	0.3	1.03	1	64.963445636	65.3826559410008	"4"	37233.018343019	37199.114386522	1.5	0.1
0.01	1	0.400093602998822	1	105	NA	70.4394712970025	0	0.3	1.03	1	65.6145811660026	66.0146747690014	"4"	37233.018343019	37199.114386522	1.5	0.1
0.01	1	0.405375374997675	1	105	NA	70.4394712970025	0	0.3	1.03	1	66.2488378980051	66.6542132730028	"4"	37233.018343019	37199.114386522	1.5	0.1
0.01	1	0.411890950002999	1	105	NA	70.4394712970025	0	0.3	1.03	1	66.8833785910028	67.2952695410058	"4"	37233.018343019	37199.114386522	1.5	0.1
0.01	1	0.400214383997081	1	105	NA	70.4394712970025	0	0.3	1.03	1	67.5177258480035	67.9179402320005	"4"	37233.018343019	37199.114386522	1.5	0.1
0.01	1	0.406120768995606	1	105	NA	70.4394712970025	0	0.3	1.03	1	68.1521811680068	68.5583019370024	"4"	37233.018343019	37199.114386522	1.5	0.1
0.01	1	0.403483100999438	1	105	NA	70.4394712970025	0	0.3	1.03	1	68.786485141005	69.1899682420044	"4"	37233.018343019	37199.114386522	1.5	0.1
0.01	1	0.506186648002767	1	105	NA	70.4394712970025	0	0.3	1.03	1	69.4209522279998	69.9271388760026	"4"	37233.018343019	37199.114386522	1.5	0.1
0.01	1	0.282371297005739	2	105	NA	70.4394712970025	0	0.3	1.03	1	70.155525563001	70.4378968600067	"4"	37233.018343019	37199.114386522	1.5	0.1
0.01	1	2.67830998799764	1	73	NA	94.8849590259997	0	0.3	1.33	1	72.4927344110038	75.1710443990014	"5"	37233.018343019	37199.114386522	1.5	0.1
0.01	1	0.364956985999015	1	73	NA	94.8849590259997	0	0.3	1.33	1	75.3976674530059	75.7626244390049	"5"	37233.018343019	37199.114386522	1.5	0.1
0.01	1	0.315899814995646	1	73	NA	94.8849590259997	0	0.3	1.33	1	75.9987395780045	76.3146393930001	"5"	37233.018343019	37199.114386522	1.5	0.1
0.01	1	0.349989513997571	1	73	NA	94.8849590259997	0	0.3	1.33	1	76.549601413004	76.8995909270016	"5"	37233.018343019	37199.114386522	1.5	0.1
0.01	1	0.333337345000473	1	73	NA	94.8849590259997	0	0.3	1.33	1	77.1339130660053	77.4672504110058	"5"	37233.018343019	37199.114386522	1.5	0.1
0.01	1	0.34186711700022	1	73	NA	94.8849590259997	0	0.3	1.33	1	77.7014843130019	78.0433514300021	"5"	37233.018343019	37199.114386522	1.5	0.1
0.01	1	0.334024563002458	1	73	NA	94.8849590259997	0	0.3	1.33	1	78.2691674160014	78.6031919790039	"5"	37233.018343019	37199.114386522	1.5	0.1
0.01	1	0.374608956000884	1	73	NA	94.8849590259997	0	0.3	1.33	1	78.8368169280002	79.2114258840011	"5"	37233.018343019	37199.114386522	1.5	0.1
0.01	1	0.365231510004378	1	73	NA	94.8849590259997	0	0.3	1.33	1	79.4377068530011	79.8029383630055	"5"	37233.018343019	37199.114386522	1.5	0.1
0.01	1	0.396976541996992	1	73	NA	94.8849590259997	0	0.3	1.33	1	80.0388573860037	80.4358339280006	"5"	37233.018343019	37199.114386522	1.5	0.1
0.01	1	0.386581230995944	1	73	NA	94.8849590259997	0	0.3	1.33	1	80.673181021004	81.0597622519999	"5"	37233.018343019	37199.114386522	1.5	0.1
0.01	1	0.432182172000466	1	73	NA	94.8849590259997	0	0.3	1.33	1	81.2909398160045	81.723121988005	"5"	37233.018343019	37199.114386522	1.5	0.1
0.01	1	0.405712685002072	1	73	NA	94.8849590259997	0	0.3	1.33	1	81.9586859810006	82.3643986660027	"5"	37233.018343019	37199.114386522	1.5	0.1
0.01	1	0.474006092001218	1	73	NA	94.8849590259997	0	0.3	1.33	1	82.593092436	83.0670985280012	"5"	37233.018343019	37199.114386522	1.5	0.1
0.01	1	0.501129463002144	1	73	NA	94.8849590259997	0	0.3	1.33	1	83.2942732660013	83.7954027290034	"5"	37233.018343019	37199.114386522	1.5	0.1
0.01	1	0.463227412001288	1	73	NA	94.8849590259997	0	0.3	1.33	1	84.0287540400022	84.4919814520035	"5"	37233.018343019	37199.114386522	1.5	0.1
0.01	1	0.410095114995784	1	73	NA	94.8849590259997	0	0.3	1.33	1	84.7300298160044	85.1401249310002	"5"	37233.018343019	37199.114386522	1.5	0.1
0.01	1	0.382354417997703	1	73	NA	94.8849590259997	0	0.3	1.33	1	85.3810089910039	85.7633634090016	"5"	37233.018343019	37199.114386522	1.5	0.1
0.01	1	0.436486607002735	1	73	NA	94.8849590259997	0	0.3	1.33	1	85.9988412360035	86.4353278430062	"5"	37233.018343019	37199.114386522	1.5	0.1
0.01	1	0.34474628699536	1	73	NA	94.8849590259997	0	0.3	1.33	1	86.6666119510046	87.011358238	"5"	37233.018343019	37199.114386522	1.5	0.1
0.01	1	0.353638845997921	1	73	NA	94.8849590259997	0	0.3	1.33	1	87.2341952210045	87.5878340670024	"5"	37233.018343019	37199.114386522	1.5	0.1
0.01	1	0.384474468999542	1	73	NA	94.8849590259997	0	0.3	1.33	1	87.8185387060003	88.2030131749998	"5"	37233.018343019	37199.114386522	1.5	0.1
0.01	1	0.335973970999476	1	73	NA	94.8849590259997	0	0.3	1.33	1	88.4362038280015	88.7721777990009	"5"	37233.018343019	37199.114386522	1.5	0.1
0.01	1	0.37514719000319	1	73	NA	94.8849590259997	0	0.3	1.33	1	89.0039123710012	89.3790595610044	"5"	37233.018343019	37199.114386522	1.5	0.1
0.01	1	0.454391619998205	1	73	NA	94.8849590259997	0	0.3	1.33	1	89.6048076780062	90.0591992980044	"5"	37233.018343019	37199.114386522	1.5	0.1
0.01	1	0.345867372998327	1	73	NA	94.8849590259997	0	0.3	1.33	1	90.2894926460067	90.635360019005	"5"	37233.018343019	37199.114386522	1.5	0.1
0.01	1	0.384946398000466	1	73	NA	94.8849590259997	0	0.3	1.33	1	90.8737069859999	91.2586533840004	"5"	37233.018343019	37199.114386522	1.5	0.1
0.01	1	0.399885711995012	1	73	NA	94.8849590259997	0	0.3	1.33	1	91.4914040460062	91.8912897580012	"5"	37233.018343019	37199.114386522	1.5	0.1
0.01	1	0.422136548004346	1	73	NA	94.8849590259997	0	0.3	1.33	1	92.1259008810011	92.5480374290055	"5"	37233.018343019	37199.114386522	1.5	0.1
0.01	1	0.475278622005135	1	73	NA	94.8849590259997	0	0.3	1.33	1	92.7768477790014	93.2521264010065	"5"	37233.018343019	37199.114386522	1.5	0.1
0.01	1	1.40537400000176	2	73	NA	94.8849590259997	0	0.3	1.33	1	93.4780029360045	94.8833769360062	"5"	37233.018343019	37199.114386522	1.5	0.1
0.01	1	1.36611541199818	1	45	NA	116.749840238001	0	0.3	1.63	1	96.9338344330026	98.2999498450008	"6"	37233.018343019	37199.114386522	1.5	0.1
0.01	1	0.323288938001497	1	45	NA	116.749840238001	0	0.3	1.63	1	98.5365920010008	98.8598809390023	"6"	37233.018343019	37199.114386522	1.5	0.1
0.01	1	0.315941551998549	1	45	NA	116.749840238001	0	0.3	1.63	1	99.087547646006	99.4034891980045	"6"	37233.018343019	37199.114386522	1.5	0.1
0.01	1	0.317840155999875	1	45	NA	116.749840238001	0	0.3	1.63	1	99.638409048006	99.9562492040059	"6"	37233.018343019	37199.114386522	1.5	0.1
0.01	1	0.357836310002313	1	45	NA	116.749840238001	0	0.3	1.63	1	100.189329193003	100.547165503005	"6"	37233.018343019	37199.114386522	1.5	0.1
0.01	1	0.366103138003382	1	45	NA	116.749840238001	0	0.3	1.63	1	100.773581916001	101.139685054004	"6"	37233.018343019	37199.114386522	1.5	0.1
0.01	1	0.333658054994885	1	45	NA	116.749840238001	0	0.3	1.63	1	101.374690136006	101.708348191001	"6"	37233.018343019	37199.114386522	1.5	0.1
0.01	1	0.332276656998147	1	45	NA	116.749840238001	0	0.3	1.63	1	101.942217323005	102.274493980003	"6"	37233.018343019	37199.114386522	1.5	0.1
0.01	1	0.334577214998717	1	45	NA	116.749840238001	0	0.3	1.63	1	102.509883901002	102.844461116001	"6"	37233.018343019	37199.114386522	1.5	0.1
0.01	1	0.374243273006869	1	45	NA	116.749840238001	0	0.3	1.63	1	103.077577466	103.451820739007	"6"	37233.018343019	37199.114386522	1.5	0.1
0.01	1	0.429157913000381	1	45	NA	116.749840238001	0	0.3	1.63	1	103.678460763003	104.107618676004	"6"	37233.018343019	37199.114386522	1.5	0.1
0.01	1	0.402116040997498	1	45	NA	116.749840238001	0	0.3	1.63	1	104.346341676006	104.748457717003	"6"	37233.018343019	37199.114386522	1.5	0.1
0.01	1	0.398102687999199	1	45	NA	116.749840238001	0	0.3	1.63	1	104.980681296001	105.378783984001	"6"	37233.018343019	37199.114386522	1.5	0.1
0.01	1	0.333364515994617	1	45	NA	116.749840238001	0	0.3	1.63	1	105.615084788005	105.948449304	"6"	37233.018343019	37199.114386522	1.5	0.1
0.01	1	0.37342381599592	1	45	NA	116.749840238001	0	0.3	1.63	1	106.182818256006	106.556242072002	"6"	37233.018343019	37199.114386522	1.5	0.1
0.01	1	0.371533454002929	1	45	NA	116.749840238001	0	0.3	1.63	1	106.783675446	107.155208900003	"6"	37233.018343019	37199.114386522	1.5	0.1
0.01	1	0.426057231001323	1	45	NA	116.749840238001	0	0.3	1.63	1	107.384774278005	107.810831509007	"6"	37233.018343019	37199.114386522	1.5	0.1
0.01	1	0.479726809004205	1	45	NA	116.749840238001	0	0.3	1.63	1	108.035871061002	108.515597870006	"6"	37233.018343019	37199.114386522	1.5	0.1
0.01	1	0.321026236997568	1	45	NA	116.749840238001	0	0.3	1.63	1	108.753779156003	109.074805393	"6"	37233.018343019	37199.114386522	1.5	0.1
0.01	1	0.426412136999716	1	45	NA	116.749840238001	0	0.3	1.63	1	109.304731526005	109.731143663004	"6"	37233.018343019	37199.114386522	1.5	0.1
0.01	1	0.351923518996045	1	45	NA	116.749840238001	0	0.3	1.63	1	109.955806611004	110.30773013	"6"	37233.018343019	37199.114386522	1.5	0.1
0.01	1	0.342792224997538	1	45	NA	116.749840238001	0	0.3	1.63	1	110.540049916002	110.882842141	"6"	37233.018343019	37199.114386522	1.5	0.1
0.01	1	0.400456625000515	1	45	NA	116.749840238001	0	0.3	1.63	1	111.107684741	111.508141366001	"6"	37233.018343019	37199.114386522	1.5	0.1
0.01	1	0.421530024003005	1	45	NA	116.749840238001	0	0.3	1.63	1	111.742094071	112.163624095003	"6"	37233.018343019	37199.114386522	1.5	0.1
0.01	1	0.473935169997276	1	45	NA	116.749840238001	0	0.3	1.63	1	112.393203960004	112.867139130001	"6"	37233.018343019	37199.114386522	1.5	0.1
0.01	1	0.421917780004151	1	45	NA	116.749840238001	0	0.3	1.63	1	113.094443761001	113.516361541006	"6"	37233.018343019	37199.114386522	1.5	0.1
0.01	1	0.385468204003701	1	45	NA	116.749840238001	0	0.3	1.63	1	113.745568967002	114.131037171006	"6"	37233.018343019	37199.114386522	1.5	0.1
0.01	1	0.432865431997925	1	45	NA	116.749840238001	0	0.3	1.63	1	114.363180776003	114.796046208001	"6"	37233.018343019	37199.114386522	1.5	0.1
0.01	1	0.397118858003523	1	45	NA	116.749840238001	0	0.3	1.63	1	115.030930351	115.428049209004	"6"	37233.018343019	37199.114386522	1.5	0.1
0.01	1	0.450249631998304	1	45	NA	116.749840238001	0	0.3	1.63	1	115.665387281006	116.115636913004	"6"	37233.018343019	37199.114386522	1.5	0.1
0.01	1	0.398456274997443	2	45	NA	116.749840238001	0	0.3	1.63	1	116.349848896003	116.748305171001	"6"	37233.018343019	37199.114386522	1.5	0.1
0.01	1	3.03464382099628	1	10	127.253986448006	NA	1	0	1.63	1	118.803937118006	121.838580939002	"7"	37233.018343019	37199.114386522	1.5	0.1
0.01	1	0.339918025005318	1	10	127.253986448006	NA	1	0	1.63	1	122.076131048001	122.416049073006	"7"	37233.018343019	37199.114386522	1.5	0.1
0.01	1	0.315034346000175	1	10	127.253986448006	NA	1	0	1.63	1	122.643748018003	122.958782364003	"7"	37233.018343019	37199.114386522	1.5	0.1
0.01	1	0.356243647998781	1	10	127.253986448006	NA	1	0	1.63	1	123.194735281002	123.550978929001	"7"	37233.018343019	37199.114386522	1.5	0.1
0.01	1	0.380470724005136	1	10	127.253986448006	NA	1	0	1.63	1	123.779080221	124.159550945005	"7"	37233.018343019	37199.114386522	1.5	0.1
0.01	1	0.337103441001091	1	10	127.253986448006	NA	1	0	1.63	1	124.396683466002	124.733786907003	"7"	37233.018343019	37199.114386522	1.5	0.1
0.01	1	0.369649902000674	1	10	127.253986448006	NA	1	0	1.63	1	124.964327567002	125.333977469003	"7"	37233.018343019	37199.114386522	1.5	0.1
0.01	1	0.378122515001451	1	10	127.253986448006	NA	1	0	1.63	1	125.565264498	125.943387013001	"7"	37233.018343019	37199.114386522	1.5	0.1
0.01	1	0.344579222997709	1	10	127.253986448006	NA	1	0	1.63	1	126.166415088002	126.510994311	"7"	37233.018343019	37199.114386522	1.5	0.1
0.01	1	0.407852750002348	1	10	127.253986448006	NA	1	0	1.63	1	126.733986476	127.141839226002	"7"	37233.018343019	37199.114386522	1.5	0.1
0.01	1	0.70131291099824	1	37	NA	149.447383655002	0	0.3	1.93	1	129.304949816004	130.006262727002	"8"	37233.018343019	37199.114386522	1.5	0.1
0.01	1	0.406098323001061	1	37	NA	149.447383655002	0	0.3	1.93	1	130.239848261001	130.645946584002	"8"	37233.018343019	37199.114386522	1.5	0.1
0.01	1	0.467519306999748	1	37	NA	149.447383655002	0	0.3	1.93	1	130.874300428004	131.341819735004	"8"	37233.018343019	37199.114386522	1.5	0.1
0.01	1	0.383059309002419	1	37	NA	149.447383655002	0	0.3	1.93	1	131.575517821002	131.958577130004	"8"	37233.018343019	37199.114386522	1.5	0.1
0.01	1	0.373105261001911	1	37	NA	149.447383655002	0	0.3	1.93	1	132.193067451	132.566172712002	"8"	37233.018343019	37199.114386522	1.5	0.1
0.01	1	0.404491870001948	1	37	NA	149.447383655002	0	0.3	1.93	1	132.794081221	133.198573091002	"8"	37233.018343019	37199.114386522	1.5	0.1
0.01	1	0.402719229001377	1	37	NA	149.447383655002	0	0.3	1.93	1	133.428525880001	133.831245109002	"8"	37233.018343019	37199.114386522	1.5	0.1
0.01	1	0.374666419993446	1	37	NA	149.447383655002	0	0.3	1.93	1	134.062981566007	134.437647986	"8"	37233.018343019	37199.114386522	1.5	0.1
0.01	1	0.391380991000915	1	37	NA	149.447383655002	0	0.3	1.93	1	134.663911651005	135.055292642006	"8"	37233.018343019	37199.114386522	1.5	0.1
0.01	1	0.405702012001711	1	37	NA	149.447383655002	0	0.3	1.93	1	135.281734531003	135.687436543005	"8"	37233.018343019	37199.114386522	1.5	0.1
0.01	1	0.394326061003085	1	37	NA	149.447383655002	0	0.3	1.93	1	135.916270476002	136.310596537005	"8"	37233.018343019	37199.114386522	1.5	0.1
0.01	1	0.352309198002331	1	37	NA	149.447383655002	0	0.3	1.93	1	136.550440418003	136.902749616005	"8"	37233.018343019	37199.114386522	1.5	0.1
0.01	1	0.375104865997855	1	37	NA	149.447383655002	0	0.3	1.93	1	137.134863516003	137.509968382001	"8"	37233.018343019	37199.114386522	1.5	0.1
0.01	1	0.438777018993278	1	37	NA	149.447383655002	0	0.3	1.93	1	137.735937856007	138.174714875	"8"	37233.018343019	37199.114386522	1.5	0.1
0.01	1	0.386255674005952	1	37	NA	149.447383655002	0	0.3	1.93	1	138.403628656	138.789884330006	"8"	37233.018343019	37199.114386522	1.5	0.1
0.01	1	0.409869447001256	1	37	NA	149.447383655002	0	0.3	1.93	1	139.021298796004	139.431168243005	"8"	37233.018343019	37199.114386522	1.5	0.1
0.01	1	0.375385136001569	1	37	NA	149.447383655002	0	0.3	1.93	1	139.655776273001	140.031161409002	"8"	37233.018343019	37199.114386522	1.5	0.1
0.01	1	0.390481710004678	1	37	NA	149.447383655002	0	0.3	1.93	1	140.256766956001	140.647248666006	"8"	37233.018343019	37199.114386522	1.5	0.1
0.01	1	0.371522924993769	1	37	NA	149.447383655002	0	0.3	1.93	1	140.874365671007	141.245888596	"8"	37233.018343019	37199.114386522	1.5	0.1
0.01	1	0.362628226997913	1	37	NA	149.447383655002	0	0.3	1.93	1	141.475522806002	141.838151033	"8"	37233.018343019	37199.114386522	1.5	0.1
0.01	1	0.362612656994315	1	37	NA	149.447383655002	0	0.3	1.93	1	142.076537078006	142.439149735001	"8"	37233.018343019	37199.114386522	1.5	0.1
0.01	1	0.393412710000121	1	37	NA	149.447383655002	0	0.3	1.93	1	142.677467187001	143.070879897001	"8"	37233.018343019	37199.114386522	1.5	0.1
0.01	1	0.375046296998335	1	37	NA	149.447383655002	0	0.3	1.93	1	143.295170168007	143.670216465005	"8"	37233.018343019	37199.114386522	1.5	0.1
0.01	1	0.422179852001136	1	37	NA	149.447383655002	0	0.3	1.93	1	143.896190586005	144.318370438006	"8"	37233.018343019	37199.114386522	1.5	0.1
0.01	1	0.490724776005663	1	37	NA	149.447383655002	0	0.3	1.93	1	144.547210186	145.037934962005	"8"	37233.018343019	37199.114386522	1.5	0.1
0.01	1	0.461929072997009	1	37	NA	149.447383655002	0	0.3	1.93	1	145.265058328005	145.726987401002	"8"	37233.018343019	37199.114386522	1.5	0.1
0.01	1	0.423633488993801	1	37	NA	149.447383655002	0	0.3	1.93	1	145.966314651007	146.38994814	"8"	37233.018343019	37199.114386522	1.5	0.1
0.01	1	0.45314967000013	1	37	NA	149.447383655002	0	0.3	1.93	1	146.617383571	147.070533241	"8"	37233.018343019	37199.114386522	1.5	0.1
0.01	1	0.512217421994137	1	37	NA	149.447383655002	0	0.3	1.93	1	147.301990201006	147.814207623	"8"	37233.018343019	37199.114386522	1.5	0.1
0.01	1	0.483161214993743	1	37	NA	149.447383655002	0	0.3	1.93	1	148.036435461006	148.519596676	"8"	37233.018343019	37199.114386522	1.5	0.1
0.01	1	0.691437604000384	2	37	NA	149.447383655002	0	0.3	1.93	1	148.754378671001	149.445816275002	"8"	37233.018343019	37199.114386522	1.5	0.1
0.01	1	0.234231356997043	1	108	NA	170.792455281	0	0.3	2.23	1	151.492339366006	151.726570723004	"9"	37233.018343019	37199.114386522	1.5	0.1
0.01	1	0.334013422994758	1	108	NA	170.792455281	0	0.3	2.23	1	151.959706746005	152.293720169	"9"	37233.018343019	37199.114386522	1.5	0.1
0.01	1	0.352085829996213	1	108	NA	170.792455281	0	0.3	2.23	1	152.527324503004	152.879410333	"9"	37233.018343019	37199.114386522	1.5	0.1
0.01	1	0.358173027001612	1	108	NA	170.792455281	0	0.3	2.23	1	153.111682496005	153.469855523006	"9"	37233.018343019	37199.114386522	1.5	0.1
0.01	1	0.342018720999476	1	108	NA	170.792455281	0	0.3	2.23	1	153.696101671005	154.038120392004	"9"	37233.018343019	37199.114386522	1.5	0.1
0.01	1	0.398551352001959	1	108	NA	170.792455281	0	0.3	2.23	1	154.263639711004	154.662191063006	"9"	37233.018343019	37199.114386522	1.5	0.1
0.01	1	0.373505383002339	1	108	NA	170.792455281	0	0.3	2.23	1	154.897983030001	155.271488413004	"9"	37233.018343019	37199.114386522	1.5	0.1
0.01	1	0.340473214004305	1	108	NA	170.792455281	0	0.3	2.23	1	155.499239101002	155.839712315006	"9"	37233.018343019	37199.114386522	1.5	0.1
0.01	1	0.379050552997796	1	108	NA	170.792455281	0	0.3	2.23	1	156.066673446003	156.445723999001	"9"	37233.018343019	37199.114386522	1.5	0.1
0.01	1	0.419509450999612	1	108	NA	170.792455281	0	0.3	2.23	1	156.667611616002	157.087121067001	"9"	37233.018343019	37199.114386522	1.5	0.1
0.01	1	0.376523068996903	1	108	NA	170.792455281	0	0.3	2.23	1	157.318654038005	157.695177107002	"9"	37233.018343019	37199.114386522	1.5	0.1
0.01	1	0.398497941998357	1	108	NA	170.792455281	0	0.3	2.23	1	157.936543676005	158.335041618004	"9"	37233.018343019	37199.114386522	1.5	0.1
0.01	1	0.420388094004011	1	108	NA	170.792455281	0	0.3	2.23	1	158.570892121003	158.991280215007	"9"	37233.018343019	37199.114386522	1.5	0.1
0.01	1	0.409596255005454	1	108	NA	170.792455281	0	0.3	2.23	1	159.221987443001	159.631583698007	"9"	37233.018343019	37199.114386522	1.5	0.1
0.01	1	0.405392242995731	1	108	NA	170.792455281	0	0.3	2.23	1	159.856388033004	160.261780276	"9"	37233.018343019	37199.114386522	1.5	0.1
0.01	1	0.371720160997938	1	108	NA	170.792455281	0	0.3	2.23	1	160.490818508006	160.862538669004	"9"	37233.018343019	37199.114386522	1.5	0.1
0.01	1	0.411809512996115	1	108	NA	170.792455281	0	0.3	2.23	1	161.091742166005	161.503551679001	"9"	37233.018343019	37199.114386522	1.5	0.1
0.01	1	0.408852859996841	1	108	NA	170.792455281	0	0.3	2.23	1	161.742902786005	162.151755646002	"9"	37233.018343019	37199.114386522	1.5	0.1
0.01	1	0.438177801996062	1	108	NA	170.792455281	0	0.3	2.23	1	162.377264901006	162.815442703002	"9"	37233.018343019	37199.114386522	1.5	0.1
0.01	1	0.408775998999772	1	108	NA	170.792455281	0	0.3	2.23	1	163.045081951001	163.45385795	"9"	37233.018343019	37199.114386522	1.5	0.1
0.01	1	0.431344938995608	1	108	NA	170.792455281	0	0.3	2.23	1	163.679428874006	164.110773813001	"9"	37233.018343019	37199.114386522	1.5	0.1
0.01	1	0.403108738995797	1	108	NA	170.792455281	0	0.3	2.23	1	164.347216188005	164.750324927001	"9"	37233.018343019	37199.114386522	1.5	0.1
0.01	1	0.400189801002853	1	108	NA	170.792455281	0	0.3	2.23	1	164.981597131002	165.381786932005	"9"	37233.018343019	37199.114386522	1.5	0.1
0.01	1	0.41529420200095	1	108	NA	170.792455281	0	0.3	2.23	1	165.616085911002	166.031380113003	"9"	37233.018343019	37199.114386522	1.5	0.1
0.01	1	0.395755921003001	1	108	NA	170.792455281	0	0.3	2.23	1	166.267128883002	166.662884804005	"9"	37233.018343019	37199.114386522	1.5	0.1
0.01	1	0.434436786999868	1	108	NA	170.792455281	0	0.3	2.23	1	166.884889161003	167.319325948003	"9"	37233.018343019	37199.114386522	1.5	0.1
0.01	1	0.414223172003403	1	108	NA	170.792455281	0	0.3	2.23	1	167.552574264002	167.966797436005	"9"	37233.018343019	37199.114386522	1.5	0.1
0.01	1	0.394424489000812	1	108	NA	170.792455281	0	0.3	2.23	1	168.203730341003	168.598154830004	"9"	37233.018343019	37199.114386522	1.5	0.1
0.01	1	0.449607891001506	1	108	NA	170.792455281	0	0.3	2.23	1	168.821447078	169.271054969002	"9"	37233.018343019	37199.114386522	1.5	0.1
0.01	1	0.533500427998661	1	108	NA	170.792455281	0	0.3	2.23	1	169.505876738003	170.039377166002	"9"	37233.018343019	37199.114386522	1.5	0.1
0.01	1	0.51688982899941	2	108	NA	170.792455281	0	0.3	2.23	1	170.273952501004	170.790842330003	"9"	37233.018343019	37199.114386522	1.5	0.1
0.01	1	0.233428346997243	1	18	183.299666266001	NA	1	0	2.23	1	172.844885301005	173.078313648002	"10"	37233.018343019	37199.114386522	1.5	0.1
0.01	1	0.326262358001259	1	18	183.299666266001	NA	1	0	2.23	1	173.312316483003	173.638578841004	"10"	37233.018343019	37199.114386522	1.5	0.1
0.01	1	0.351180620004016	1	18	183.299666266001	NA	1	0	2.23	1	173.863339793003	174.214520413007	"10"	37233.018343019	37199.114386522	1.5	0.1
0.01	1	0.342560037002841	1	18	183.299666266001	NA	1	0	2.23	1	174.447534441002	174.790094478005	"10"	37233.018343019	37199.114386522	1.5	0.1
0.01	1	0.335220257999026	1	18	183.299666266001	NA	1	0	2.23	1	175.015134126006	175.350354384005	"10"	37233.018343019	37199.114386522	1.5	0.1
0.01	1	0.36718131499947	1	18	183.299666266001	NA	1	0	2.23	1	175.582753023002	175.949934338001	"10"	37233.018343019	37199.114386522	1.5	0.1
0.01	1	0.351875947999361	1	18	183.299666266001	NA	1	0	2.23	1	176.183709978002	176.535585926002	"10"	37233.018343019	37199.114386522	1.5	0.1
0.01	1	0.359163152003021	1	18	183.299666266001	NA	1	0	2.23	1	176.768111883001	177.127275035004	"10"	37233.018343019	37199.114386522	1.5	0.1
0.01	1	0.366730593996181	1	18	183.299666266001	NA	1	0	2.23	1	177.352450358005	177.719180952001	"10"	37233.018343019	37199.114386522	1.5	0.1
0.01	1	0.420774558006087	1	18	183.299666266001	NA	1	0	2.23	1	177.953461318	178.374235876006	"10"	37233.018343019	37199.114386522	1.5	0.1
0.01	1	0.345234395004809	1	18	183.299666266001	NA	1	0	2.23	1	178.604674568	178.949908963004	"10"	37233.018343019	37199.114386522	1.5	0.1
0.01	1	0.386019160003343	1	18	183.299666266001	NA	1	0	2.23	1	179.188888821001	179.574907981005	"10"	37233.018343019	37199.114386522	1.5	0.1
0.01	1	0.407288372996845	1	18	183.299666266001	NA	1	0	2.23	1	179.806613498004	180.213901871	"10"	37233.018343019	37199.114386522	1.5	0.1
0.01	1	0.374112797006092	1	18	183.299666266001	NA	1	0	2.23	1	180.441048426001	180.815161223007	"10"	37233.018343019	37199.114386522	1.5	0.1
0.01	1	0.372628447003081	1	18	183.299666266001	NA	1	0	2.23	1	181.041976736	181.414605183003	"10"	37233.018343019	37199.114386522	1.5	0.1
0.01	1	0.387063641996065	1	18	183.299666266001	NA	1	0	2.23	1	181.643043298005	182.030106940001	"10"	37233.018343019	37199.114386522	1.5	0.1
0.01	1	0.338795181996829	1	18	183.299666266001	NA	1	0	2.23	1	182.260707156005	182.599502338002	"10"	37233.018343019	37199.114386522	1.5	0.1
0.01	1	0.353887755001779	1	18	183.299666266001	NA	1	0	2.23	1	182.828315813	183.182203568002	"10"	37233.018343019	37199.114386522	1.5	0.1
0.01	1	0.00949009900068631	1	2	186.087573581004	NA	1	0	2.23	1	185.349199941003	185.358690040004	"11"	37233.018343019	37199.114386522	1.5	0.1
0.01	1	0.374641695001628	1	2	186.087573581004	NA	1	0	2.23	1	185.599673996003	185.974315691004	"11"	37233.018343019	37199.114386522	1.5	0.1
0.01	1	0.199258385000576	1	107	NA	206.817173289004	0	0.3	2.53	1	188.120488808003	188.319747193003	"12"	37233.018343019	37199.114386522	1.5	0.1
0.01	1	0.315591170001426	1	107	NA	206.817173289004	0	0.3	2.53	1	188.554629028004	188.870220198005	"12"	37233.018343019	37199.114386522	1.5	0.1
0.01	1	0.357629411999369	1	107	NA	206.817173289004	0	0.3	2.53	1	189.105568646002	189.463198058002	"12"	37233.018343019	37199.114386522	1.5	0.1
0.01	1	0.332793087000027	1	107	NA	206.817173289004	0	0.3	2.53	1	189.689931486006	190.022724573006	"12"	37233.018343019	37199.114386522	1.5	0.1
0.01	1	0.372864835000655	1	107	NA	206.817173289004	0	0.3	2.53	1	190.257550443006	190.630415278007	"12"	37233.018343019	37199.114386522	1.5	0.1
0.01	1	0.363954116000968	1	107	NA	206.817173289004	0	0.3	2.53	1	190.858567566	191.222521682001	"12"	37233.018343019	37199.114386522	1.5	0.1
0.01	1	0.354619617995922	1	107	NA	206.817173289004	0	0.3	2.53	1	191.459460223006	191.814079841002	"12"	37233.018343019	37199.114386522	1.5	0.1
0.01	1	0.386060851997172	1	107	NA	206.817173289004	0	0.3	2.53	1	192.043780798005	192.429841650002	"12"	37233.018343019	37199.114386522	1.5	0.1
0.01	1	0.368383050001285	1	107	NA	206.817173289004	0	0.3	2.53	1	192.661556231003	193.029939281005	"12"	37233.018343019	37199.114386522	1.5	0.1
0.01	1	0.368623729998944	1	107	NA	206.817173289004	0	0.3	2.53	1	193.262560651005	193.631184381004	"12"	37233.018343019	37199.114386522	1.5	0.1
0.01	1	0.351767237996683	1	107	NA	206.817173289004	0	0.3	2.53	1	193.863568566005	194.215335804001	"12"	37233.018343019	37199.114386522	1.5	0.1
0.01	1	0.359737093000149	1	107	NA	206.817173289004	0	0.3	2.53	1	194.447916843004	194.807653936004	"12"	37233.018343019	37199.114386522	1.5	0.1
0.01	1	0.381548956000188	1	107	NA	206.817173289004	0	0.3	2.53	1	195.032259516003	195.413808472003	"12"	37233.018343019	37199.114386522	1.5	0.1
0.01	1	0.404290167003637	1	107	NA	206.817173289004	0	0.3	2.53	1	195.649858826	196.054148993004	"12"	37233.018343019	37199.114386522	1.5	0.1
0.01	1	0.377598412000225	1	107	NA	206.817173289004	0	0.3	2.53	1	196.284304983004	196.661903395005	"12"	37233.018343019	37199.114386522	1.5	0.1
0.01	1	0.4016595879948	1	107	NA	206.817173289004	0	0.3	2.53	1	196.885308476005	197.286968064	"12"	37233.018343019	37199.114386522	1.5	0.1
0.01	1	0.397958893998293	1	107	NA	206.817173289004	0	0.3	2.53	1	197.519711461005	197.917670355004	"12"	37233.018343019	37199.114386522	1.5	0.1
0.01	1	0.357288621999032	1	107	NA	206.817173289004	0	0.3	2.53	1	198.154156953002	198.511445575001	"12"	37233.018343019	37199.114386522	1.5	0.1
0.01	1	0.372568913000578	1	107	NA	206.817173289004	0	0.3	2.53	1	198.738374106004	199.110943019004	"12"	37233.018343019	37199.114386522	1.5	0.1
0.01	1	0.459122856998874	1	107	NA	206.817173289004	0	0.3	2.53	1	199.339438826006	199.798561683005	"12"	37233.018343019	37199.114386522	1.5	0.1
0.01	1	0.446776042001147	1	107	NA	206.817173289004	0	0.3	2.53	1	200.023954623	200.470730665002	"12"	37233.018343019	37199.114386522	1.5	0.1
0.01	1	0.378977722997661	1	107	NA	206.817173289004	0	0.3	2.53	1	200.708409958002	201.087387681	"12"	37233.018343019	37199.114386522	1.5	0.1
0.01	1	0.361079089998384	1	107	NA	206.817173289004	0	0.3	2.53	1	201.309402351006	201.670481441004	"12"	37233.018343019	37199.114386522	1.5	0.1
0.01	1	0.400076056997932	1	107	NA	206.817173289004	0	0.3	2.53	1	201.893691226003	202.293767283001	"12"	37233.018343019	37199.114386522	1.5	0.1
0.01	1	0.389801851000811	1	107	NA	206.817173289004	0	0.3	2.53	1	202.528097128001	202.917898979002	"12"	37233.018343019	37199.114386522	1.5	0.1
0.01	1	0.396165708996705	1	107	NA	206.817173289004	0	0.3	2.53	1	203.145823629005	203.541989338002	"12"	37233.018343019	37199.114386522	1.5	0.1
0.01	1	0.394262681002147	1	107	NA	206.817173289004	0	0.3	2.53	1	203.780318928002	204.174581609004	"12"	37233.018343019	37199.114386522	1.5	0.1
0.01	1	0.360570603996166	1	107	NA	206.817173289004	0	0.3	2.53	1	204.397854651004	204.758425255	"12"	37233.018343019	37199.114386522	1.5	0.1
0.01	1	0.415717285002756	1	107	NA	206.817173289004	0	0.3	2.53	1	204.982248241002	205.397965526005	"12"	37233.018343019	37199.114386522	1.5	0.1
0.01	1	0.332465829997091	1	107	NA	206.817173289004	0	0.3	2.53	1	205.633407543006	205.965873373003	"12"	37233.018343019	37199.114386522	1.5	0.1
0.01	1	0.614641152998956	2	107	NA	206.817173289004	0	0.3	2.53	1	206.200954183005	206.815595336004	"12"	37233.018343019	37199.114386522	1.5	0.1
0.01	1	0.351038248001714	1	119	NA	232.000468329003	0	0.35	2.88	1	208.872145711	209.223183959002	"13"	37233.018343019	37199.114386522	1.5	0.1
0.01	1	0.382601836005051	1	119	NA	232.000468329003	0	0.35	2.88	1	209.456410956001	209.839012792007	"13"	37233.018343019	37199.114386522	1.5	0.1
0.01	1	0.260567350997007	1	119	NA	232.000468329003	0	0.35	2.88	1	210.074218028007	210.334785379004	"13"	37233.018343019	37199.114386522	1.5	0.1
0.01	1	0.575817769997229	1	119	NA	232.000468329003	0	0.35	2.88	1	210.558278736004	211.134096506001	"13"	37233.018343019	37199.114386522	1.5	0.1
0.01	1	0.447460388000763	1	119	NA	232.000468329003	0	0.35	2.88	1	211.359662151001	211.807122539001	"13"	37233.018343019	37199.114386522	1.5	0.1
0.01	1	0.417969458001608	1	119	NA	232.000468329003	0	0.35	2.88	1	212.044140311002	212.462109769003	"13"	37233.018343019	37199.114386522	1.5	0.1
0.01	1	0.438819276998402	1	119	NA	232.000468329003	0	0.35	2.88	1	212.695246118004	213.134065395003	"13"	37233.018343019	37199.114386522	1.5	0.1
0.01	1	0.379859120002948	1	119	NA	232.000468329003	0	0.35	2.88	1	213.363005523002	213.742864643005	"13"	37233.018343019	37199.114386522	1.5	0.1
0.01	1	0.385517637994781	1	119	NA	232.000468329003	0	0.35	2.88	1	213.980805866006	214.366323504	"13"	37233.018343019	37199.114386522	1.5	0.1
0.01	1	0.392326009998214	1	119	NA	232.000468329003	0	0.35	2.88	1	214.598404948003	214.990730958001	"13"	37233.018343019	37199.114386522	1.5	0.1
0.01	1	0.390947899999446	1	119	NA	232.000468329003	0	0.35	2.88	1	215.216138338001	215.607086238	"13"	37233.018343019	37199.114386522	1.5	0.1
0.01	1	0.387836292000429	1	119	NA	232.000468329003	0	0.35	2.88	1	215.833892791001	216.221729083001	"13"	37233.018343019	37199.114386522	1.5	0.1
0.01	1	0.410205382002459	1	119	NA	232.000468329003	0	0.35	2.88	1	216.451600861001	216.861806243003	"13"	37233.018343019	37199.114386522	1.5	0.1
0.01	1	0.360607700000401	1	119	NA	232.000468329003	0	0.35	2.88	1	217.085869508002	217.446477208003	"13"	37233.018343019	37199.114386522	1.5	0.1
0.01	1	0.408227537001949	1	119	NA	232.000468329003	0	0.35	2.88	1	217.670275861004	218.078503398006	"13"	37233.018343019	37199.114386522	1.5	0.1
0.01	1	0.422813981000218	1	119	NA	232.000468329003	0	0.35	2.88	1	218.304657904002	218.727471885002	"13"	37233.018343019	37199.114386522	1.5	0.1
0.01	1	0.370057498999813	1	119	NA	232.000468329003	0	0.35	2.88	1	218.955821851006	219.325879350006	"13"	37233.018343019	37199.114386522	1.5	0.1
0.01	1	0.432855756997014	1	119	NA	232.000468329003	0	0.35	2.88	1	219.556786721005	219.989642478002	"13"	37233.018343019	37199.114386522	1.5	0.1
0.01	1	0.374373486993136	1	119	NA	232.000468329003	0	0.35	2.88	1	220.224591371007	220.598964858	"13"	37233.018343019	37199.114386522	1.5	0.1
0.01	1	0.933090016995266	1	119	NA	232.000468329003	0	0.35	2.88	1	220.825515546006	221.758605563002	"13"	37233.018343019	37199.114386522	1.5	0.1
0.01	1	0.347739343997091	1	119	NA	232.000468329003	0	0.35	2.88	1	221.994235383005	222.341974727002	"13"	37233.018343019	37199.114386522	1.5	0.1
0.01	1	0.403438257999369	1	119	NA	232.000468329003	0	0.35	2.88	1	222.578584691	222.982022949	"13"	37233.018343019	37199.114386522	1.5	0.1
0.01	1	0.465274809997936	1	119	NA	232.000468329003	0	0.35	2.88	1	223.212849973002	223.678124783	"13"	37233.018343019	37199.114386522	1.5	0.1
0.01	1	0.396159376003197	1	119	NA	232.000468329003	0	0.35	2.88	1	223.914113461004	224.310272837007	"13"	37233.018343019	37199.114386522	1.5	0.1
0.01	1	0.369608950000838	1	119	NA	232.000468329003	0	0.35	2.88	1	224.548440723003	224.918049673004	"13"	37233.018343019	37199.114386522	1.5	0.1
0.01	1	0.368757412004925	1	119	NA	232.000468329003	0	0.35	2.88	1	225.149490971002	225.518248383007	"13"	37233.018343019	37199.114386522	1.5	0.1
0.01	1	0.376020489995426	1	119	NA	232.000468329003	0	0.35	2.88	1	225.750470743005	226.126491233001	"13"	37233.018343019	37199.114386522	1.5	0.1
0.01	1	0.344118660003005	1	119	NA	232.000468329003	0	0.35	2.88	1	226.351507468004	226.695626128007	"13"	37233.018343019	37199.114386522	1.5	0.1
0.01	1	0.390677669995057	1	119	NA	232.000468329003	0	0.35	2.88	1	226.919164668005	227.309842338	"13"	37233.018343019	37199.114386522	1.5	0.1
0.01	1	0.406075261998922	1	119	NA	232.000468329003	0	0.35	2.88	1	227.536847651005	227.942922913004	"13"	37233.018343019	37199.114386522	1.5	0.1
0.01	1	0.38651871500042	1	119	NA	232.000468329003	0	0.35	2.88	1	228.171161931001	228.557680646001	"13"	37233.018343019	37199.114386522	1.5	0.1
0.01	1	0.354623721003009	1	119	NA	232.000468329003	0	0.35	2.88	1	228.788869386	229.143493107003	"13"	37233.018343019	37199.114386522	1.5	0.1
0.01	1	0.441319034005573	1	119	NA	232.000468329003	0	0.35	2.88	1	229.373277161001	229.814596195007	"13"	37233.018343019	37199.114386522	1.5	0.1
0.01	1	0.56587986699742	1	119	NA	232.000468329003	0	0.35	2.88	1	230.041060851006	230.606940718004	"13"	37233.018343019	37199.114386522	1.5	0.1
0.01	1	0.387784635000571	1	119	NA	232.000468329003	0	0.35	2.88	1	230.842408254	231.230192889001	"13"	37233.018343019	37199.114386522	1.5	0.1
0.01	1	0.538798139998107	2	119	NA	232.000468329003	0	0.35	2.88	1	231.460071936002	231.998870076	"13"	37233.018343019	37199.114386522	1.5	0.1
0.01	1	0.477948258994729	1	71	NA	256.256162234	0	0.35	3.23	1	234.047763277005	234.525711536	"14"	37233.018343019	37199.114386522	1.5	0.1
0.01	1	0.296709025999007	1	71	NA	256.256162234	0	0.35	3.23	1	234.765625743006	235.062334769005	"14"	37233.018343019	37199.114386522	1.5	0.1
0.01	1	0.314340074000938	1	71	NA	256.256162234	0	0.35	3.23	1	235.299918238001	235.614258312002	"14"	37233.018343019	37199.114386522	1.5	0.1
0.01	1	0.260404563996417	1	71	NA	256.256162234	0	0.35	3.23	1	235.850836456004	236.11124102	"14"	37233.018343019	37199.114386522	1.5	0.1
0.01	1	0.320184711003094	1	71	NA	256.256162234	0	0.35	3.23	1	236.335058766002	236.655243477006	"14"	37233.018343019	37199.114386522	1.5	0.1
0.01	1	0.400601166002161	1	71	NA	256.256162234	0	0.35	3.23	1	236.885859546004	237.286460712006	"14"	37233.018343019	37199.114386522	1.5	0.1
0.01	1	0.518332437997742	1	71	NA	256.256162234	0	0.35	3.23	1	237.520284151004	238.038616589001	"14"	37233.018343019	37199.114386522	1.5	0.1
0.01	1	0.320142167998711	1	71	NA	256.256162234	0	0.35	3.23	1	238.271626703005	238.591768871003	"14"	37233.018343019	37199.114386522	1.5	0.1
0.01	1	0.344090159000189	1	71	NA	256.256162234	0	0.35	3.23	1	238.822435966002	239.166526125002	"14"	37233.018343019	37199.114386522	1.5	0.1
0.01	1	0.375661678997858	1	71	NA	256.256162234	0	0.35	3.23	1	239.390137651004	239.765799330002	"14"	37233.018343019	37199.114386522	1.5	0.1
0.01	1	0.328645235997101	1	71	NA	256.256162234	0	0.35	3.23	1	239.991053290003	240.319698526	"14"	37233.018343019	37199.114386522	1.5	0.1
0.01	1	0.353712732001441	1	71	NA	256.256162234	0	0.35	3.23	1	240.542059778003	240.895772510004	"14"	37233.018343019	37199.114386522	1.5	0.1
0.01	1	0.367553203002899	1	71	NA	256.256162234	0	0.35	3.23	1	241.126470821	241.494024024003	"14"	37233.018343019	37199.114386522	1.5	0.1
0.01	1	0.358788566998555	1	71	NA	256.256162234	0	0.35	3.23	1	241.727369223001	242.08615779	"14"	37233.018343019	37199.114386522	1.5	0.1
0.01	1	0.343263513001148	1	71	NA	256.256162234	0	0.35	3.23	1	242.311754136004	242.655017649005	"14"	37233.018343019	37199.114386522	1.5	0.1
0.01	1	0.358718641000451	1	71	NA	256.256162234	0	0.35	3.23	1	242.879318408006	243.238037049006	"14"	37233.018343019	37199.114386522	1.5	0.1
0.01	1	0.326209530001506	1	71	NA	256.256162234	0	0.35	3.23	1	243.463777798002	243.789987328004	"14"	37233.018343019	37199.114386522	1.5	0.1
0.01	1	0.399706885000342	1	71	NA	256.256162234	0	0.35	3.23	1	244.014498961005	244.414205846006	"14"	37233.018343019	37199.114386522	1.5	0.1
0.01	1	0.32657120499789	1	71	NA	256.256162234	0	0.35	3.23	1	244.648928603005	244.975499808002	"14"	37233.018343019	37199.114386522	1.5	0.1
0.01	1	0.351459337005508	1	71	NA	256.256162234	0	0.35	3.23	1	245.199903198001	245.551362535007	"14"	37233.018343019	37199.114386522	1.5	0.1
0.01	1	0.366984872998728	1	71	NA	256.256162234	0	0.35	3.23	1	245.784260833003	246.151245706002	"14"	37233.018343019	37199.114386522	1.5	0.1
0.01	1	0.38117480299843	1	71	NA	256.256162234	0	0.35	3.23	1	246.385160838006	246.766335641005	"14"	37233.018343019	37199.114386522	1.5	0.1
0.01	1	0.340459802995611	1	71	NA	256.256162234	0	0.35	3.23	1	247.003019136006	247.343478939001	"14"	37233.018343019	37199.114386522	1.5	0.1
0.01	1	0.387891060003312	1	71	NA	256.256162234	0	0.35	3.23	1	247.570619061	247.958510121003	"14"	37233.018343019	37199.114386522	1.5	0.1
0.01	1	0.377907962996687	1	71	NA	256.256162234	0	0.35	3.23	1	248.188217091003	248.566125054	"14"	37233.018343019	37199.114386522	1.5	0.1
0.01	1	0.394443213001068	1	71	NA	256.256162234	0	0.35	3.23	1	248.789197136	249.183640349002	"14"	37233.018343019	37199.114386522	1.5	0.1
0.01	1	0.384157972999674	1	71	NA	256.256162234	0	0.35	3.23	1	249.406996576006	249.791154549006	"14"	37233.018343019	37199.114386522	1.5	0.1
0.01	1	0.391888564998226	1	71	NA	256.256162234	0	0.35	3.23	1	250.024712321007	250.416600886005	"14"	37233.018343019	37199.114386522	1.5	0.1
0.01	1	0.395861775999947	1	71	NA	256.256162234	0	0.35	3.23	1	250.642379931	251.038241707	"14"	37233.018343019	37199.114386522	1.5	0.1
0.01	1	0.841308397997636	1	71	NA	256.256162234	0	0.35	3.23	1	251.276812241005	252.118120639003	"14"	37233.018343019	37199.114386522	1.5	0.1
0.01	1	0.372749032998399	1	71	NA	256.256162234	0	0.35	3.23	1	252.345245256001	252.717994289	"14"	37233.018343019	37199.114386522	1.5	0.1
0.01	1	0.469103696006641	1	71	NA	256.256162234	0	0.35	3.23	1	252.946197701	253.415301397006	"14"	37233.018343019	37199.114386522	1.5	0.1
0.01	1	0.591152653003519	1	71	NA	256.256162234	0	0.35	3.23	1	253.647462396002	254.238615049006	"14"	37233.018343019	37199.114386522	1.5	0.1
0.01	1	0.516489415000251	1	71	NA	256.256162234	0	0.35	3.23	1	254.465551966001	254.982041381001	"14"	37233.018343019	37199.114386522	1.5	0.1
0.01	1	0.479093570000259	1	71	NA	256.256162234	0	0.35	3.23	1	255.216649606002	255.695743176002	"14"	37233.018343019	37199.114386522	1.5	0.1
0.01	1	0.336653061996913	2	71	NA	256.256162234	0	0.35	3.23	1	255.917919629006	256.254572691003	"14"	37233.018343019	37199.114386522	1.5	0.1
0.01	1	1.3092336960035	1	32	278.475168766003	NA	1	0	3.23	1	258.288502750001	259.597736446005	"15"	37233.018343019	37199.114386522	1.5	0.1
0.01	1	0.382598773998325	1	32	278.475168766003	NA	1	0	3.23	1	259.824483581004	260.207082355002	"15"	37233.018343019	37199.114386522	1.5	0.1
0.01	1	0.332052628000383	1	32	278.475168766003	NA	1	0	3.23	1	260.442208627006	260.774261255006	"15"	37233.018343019	37199.114386522	1.5	0.1
0.01	1	0.285419604995695	1	32	278.475168766003	NA	1	0	3.23	1	261.009802096007	261.295221701002	"15"	37233.018343019	37199.114386522	1.5	0.1
0.01	1	0.343134427996119	1	32	278.475168766003	NA	1	0	3.23	1	261.527306767006	261.870441195002	"15"	37233.018343019	37199.114386522	1.5	0.1
0.01	1	0.296568085999752	1	32	278.475168766003	NA	1	0	3.23	1	262.094949621001	262.391517707001	"15"	37233.018343019	37199.114386522	1.5	0.1
0.01	1	0.305960685000173	1	32	278.475168766003	NA	1	0	3.23	1	262.629149411005	262.935110096005	"15"	37233.018343019	37199.114386522	1.5	0.1
0.01	1	0.355308378995687	1	32	278.475168766003	NA	1	0	3.23	1	263.163428096006	263.518736475002	"15"	37233.018343019	37199.114386522	1.5	0.1
0.01	1	0.331498438004928	1	32	278.475168766003	NA	1	0	3.23	1	263.747751871	264.079250309005	"15"	37233.018343019	37199.114386522	1.5	0.1
0.01	1	0.323548770000343	1	32	278.475168766003	NA	1	0	3.23	1	264.315448081004	264.638996851005	"15"	37233.018343019	37199.114386522	1.5	0.1
0.01	1	0.324029755000083	1	32	278.475168766003	NA	1	0	3.23	1	264.866201983001	265.190231738001	"15"	37233.018343019	37199.114386522	1.5	0.1
0.01	1	0.381279305001954	1	32	278.475168766003	NA	1	0	3.23	1	265.417231508	265.798510813001	"15"	37233.018343019	37199.114386522	1.5	0.1
0.01	1	0.348372354004823	1	32	278.475168766003	NA	1	0	3.23	1	266.034975556002	266.383347910007	"15"	37233.018343019	37199.114386522	1.5	0.1
0.01	1	0.379671886999859	1	32	278.475168766003	NA	1	0	3.23	1	266.619167481003	266.998839368003	"15"	37233.018343019	37199.114386522	1.5	0.1
0.01	1	0.394353445997695	1	32	278.475168766003	NA	1	0	3.23	1	267.236959206006	267.631312652004	"15"	37233.018343019	37199.114386522	1.5	0.1
0.01	1	0.440163008002855	1	32	278.475168766003	NA	1	0	3.23	1	267.854670366003	268.294833374006	"15"	37233.018343019	37199.114386522	1.5	0.1
0.01	1	0.39687374800269	1	32	278.475168766003	NA	1	0	3.23	1	268.522500231004	268.919373979006	"15"	37233.018343019	37199.114386522	1.5	0.1
0.01	1	0.434257843997329	1	32	278.475168766003	NA	1	0	3.23	1	269.156948111005	269.591205955003	"15"	37233.018343019	37199.114386522	1.5	0.1
0.01	1	0.382933731001685	1	32	278.475168766003	NA	1	0	3.23	1	269.824614998004	270.207548729006	"15"	37233.018343019	37199.114386522	1.5	0.1
0.01	1	0.389513822003209	1	32	278.475168766003	NA	1	0	3.23	1	270.442241511002	270.831755333005	"15"	37233.018343019	37199.114386522	1.5	0.1
0.01	1	0.402106178000395	1	32	278.475168766003	NA	1	0	3.23	1	271.060011846006	271.462118024006	"15"	37233.018343019	37199.114386522	1.5	0.1
0.01	1	0.359941681002965	1	32	278.475168766003	NA	1	0	3.23	1	271.694480757003	272.054422438006	"15"	37233.018343019	37199.114386522	1.5	0.1
0.01	1	0.352422660005686	1	32	278.475168766003	NA	1	0	3.23	1	272.278679641	272.631102301006	"15"	37233.018343019	37199.114386522	1.5	0.1
0.01	1	0.431988741998794	1	32	278.475168766003	NA	1	0	3.23	1	272.863093367007	273.295082109005	"15"	37233.018343019	37199.114386522	1.5	0.1
0.01	1	0.380362203999539	1	32	278.475168766003	NA	1	0	3.23	1	273.530827131006	273.911189335005	"15"	37233.018343019	37199.114386522	1.5	0.1
0.01	1	0.394088583998382	1	32	278.475168766003	NA	1	0	3.23	1	274.148595811006	274.542684395004	"15"	37233.018343019	37199.114386522	1.5	0.1
0.01	1	0.40772918699804	1	32	278.475168766003	NA	1	0	3.23	1	274.766203736006	275.173932923004	"15"	37233.018343019	37199.114386522	1.5	0.1
0.01	1	0.407067159001599	1	32	278.475168766003	NA	1	0	3.23	1	275.400679216	275.807746375001	"15"	37233.018343019	37199.114386522	1.5	0.1
0.01	1	0.364409987996623	1	32	278.475168766003	NA	1	0	3.23	1	276.035127198003	276.399537186	"15"	37233.018343019	37199.114386522	1.5	0.1
0.01	1	0.434491856001841	1	32	278.475168766003	NA	1	0	3.23	1	276.636104341	277.070596197002	"15"	37233.018343019	37199.114386522	1.5	0.1
0.01	1	0.398315293998166	1	32	278.475168766003	NA	1	0	3.23	1	277.303787298006	277.702102592004	"15"	37233.018343019	37199.114386522	1.5	0.1
0.01	1	0.419493624001916	1	32	278.475168766003	NA	1	0	3.23	1	277.938224386002	278.357718010004	"15"	37233.018343019	37199.114386522	1.5	0.1
0.01	1	0.305469818995334	1	7	283.483915731005	NA	1	0	3.23	1	280.525944486006	280.831414305001	"16"	37233.018343019	37199.114386522	1.5	0.1
0.01	1	0.298545966004895	1	7	283.483915731005	NA	1	0	3.23	1	281.060154881001	281.358700847006	"16"	37233.018343019	37199.114386522	1.5	0.1
0.01	1	0.236251966001873	1	7	283.483915731005	NA	1	0	3.23	1	281.594475726	281.830727692002	"16"	37233.018343019	37199.114386522	1.5	0.1
0.01	1	0.241927032999229	1	7	283.483915731005	NA	1	0	3.23	1	282.061881891001	282.303808924	"16"	37233.018343019	37199.114386522	1.5	0.1
0.01	1	0.141280515003018	1	7	283.483915731005	NA	1	0	3.23	1	282.529310521	282.670591036003	"16"	37233.018343019	37199.114386522	1.5	0.1
0.01	1	0.151277385004505	1	7	283.483915731005	NA	1	0	3.23	1	282.896550603	283.047827988004	"16"	37233.018343019	37199.114386522	1.5	0.1
0.01	1	0.086881502000324	1	7	283.483915731005	NA	1	0	3.23	1	283.280607911001	283.367489413002	"16"	37233.018343019	37199.114386522	1.5	0.1
0.01	1	0.457308726996416	1	49	NA	296.576801989002	0	0.24	3.47	1	285.534367343003	285.99167607	"17"	37233.018343019	37199.114386522	1.5	0.1
0.01	1	0.00382298499607714	1	49	NA	296.576801989002	0	0.24	3.47	1	286.218833276005	286.222656261001	"17"	37233.018343019	37199.114386522	1.5	0.1
0.01	1	0.0590590159990825	1	49	NA	296.576801989002	0	0.24	3.47	1	286.452592528003	286.511651544002	"17"	37233.018343019	37199.114386522	1.5	0.1
0.01	1	0.230117459999747	1	49	NA	296.576801989002	0	0.24	3.47	1	286.736295563001	286.966413023001	"17"	37233.018343019	37199.114386522	1.5	0.1
0.01	1	0.00253460299427388	1	49	NA	296.576801989002	0	0.24	3.47	1	287.203861017006	287.20639562	"17"	37233.018343019	37199.114386522	1.5	0.1
0.01	1	0.00306121399626136	1	49	NA	296.576801989002	0	0.24	3.47	1	287.437520233005	287.440581447001	"17"	37233.018343019	37199.114386522	1.5	0.1
0.01	1	0.00207583799783606	1	49	NA	296.576801989002	0	0.24	3.47	1	287.671371899007	287.673447737005	"17"	37233.018343019	37199.114386522	1.5	0.1
0.01	1	0.164640884002438	1	49	NA	296.576801989002	0	0.24	3.47	1	287.905096408002	288.069737292004	"17"	37233.018343019	37199.114386522	1.5	0.1
0.01	1	0.0127462910022587	1	49	NA	296.576801989002	0	0.24	3.47	1	288.305773859	288.318520150002	"17"	37233.018343019	37199.114386522	1.5	0.1
0.01	1	0.129713226000604	1	49	NA	296.576801989002	0	0.24	3.47	1	288.556153358004	288.685866584005	"17"	37233.018343019	37199.114386522	1.5	0.1
0.01	1	0.122768947003351	1	49	NA	296.576801989002	0	0.24	3.47	1	288.923385756003	289.046154703006	"17"	37233.018343019	37199.114386522	1.5	0.1
0.01	1	0.41981122699508	1	49	NA	296.576801989002	0	0.24	3.47	1	289.273979036006	289.693790263002	"17"	37233.018343019	37199.114386522	1.5	0.1
0.01	1	0.290275232997374	1	49	NA	296.576801989002	0	0.24	3.47	1	289.925114123005	290.215389356003	"17"	37233.018343019	37199.114386522	1.5	0.1
0.01	1	0.204453623999143	1	49	NA	296.576801989002	0	0.24	3.47	1	290.442624581003	290.647078205002	"17"	37233.018343019	37199.114386522	1.5	0.1
0.01	1	0.273666730005061	1	49	NA	296.576801989002	0	0.24	3.47	1	290.876672036	291.150338766005	"17"	37233.018343019	37199.114386522	1.5	0.1
0.01	1	0.204490439995425	1	49	NA	296.576801989002	0	0.24	3.47	1	291.377454511006	291.581944951002	"17"	37233.018343019	37199.114386522	1.5	0.1
0.01	1	0.314296122996893	1	49	NA	296.576801989002	0	0.24	3.47	1	291.811424721003	292.125720844	"17"	37233.018343019	37199.114386522	1.5	0.1
0.01	1	0.299358843003574	1	49	NA	296.576801989002	0	0.24	3.47	1	292.362446626001	292.661805469004	"17"	37233.018343019	37199.114386522	1.5	0.1
0.01	1	0.229882712999824	1	49	NA	296.576801989002	0	0.24	3.47	1	292.896844338	293.126727051	"17"	37233.018343019	37199.114386522	1.5	0.1
0.01	1	0.281767814994964	1	49	NA	296.576801989002	0	0.24	3.47	1	293.364222801007	293.645990616002	"17"	37233.018343019	37199.114386522	1.5	0.1
0.01	1	0.309962960003759	1	49	NA	296.576801989002	0	0.24	3.47	1	293.881666636	294.191629596004	"17"	37233.018343019	37199.114386522	1.5	0.1
0.01	1	0.319514645998424	1	49	NA	296.576801989002	0	0.24	3.47	1	294.415999158002	294.735513804	"17"	37233.018343019	37199.114386522	1.5	0.1
0.01	1	0.319609459002095	1	49	NA	296.576801989002	0	0.24	3.47	1	294.966900956002	295.286510415004	"17"	37233.018343019	37199.114386522	1.5	0.1
0.01	1	0.481613382005889	1	49	NA	296.576801989002	0	0.24	3.47	1	295.517893056	295.999506438005	"17"	37233.018343019	37199.114386522	1.5	0.1
0.01	1	0.339478911999322	2	49	NA	296.576801989002	0	0.24	3.47	1	296.235737558003	296.575216470002	"17"	37233.018343019	37199.114386522	1.5	0.1
0.01	1	1.040708722001	1	17	308.108502701005	NA	1	0	3.47	1	298.606317276004	299.647025998005	"18"	37233.018343019	37199.114386522	1.5	0.1
0.01	1	0.378797387995292	1	17	308.108502701005	NA	1	0	3.47	1	299.875086907006	300.253884295002	"18"	37233.018343019	37199.114386522	1.5	0.1
0.01	1	0.337307080000755	1	17	308.108502701005	NA	1	0	3.47	1	300.49296779	300.830274870001	"18"	37233.018343019	37199.114386522	1.5	0.1
0.01	1	0.322009773997706	1	17	308.108502701005	NA	1	0	3.47	1	301.060421236005	301.382431010003	"18"	37233.018343019	37199.114386522	1.5	0.1
0.01	1	0.298343843001931	1	17	308.108502701005	NA	1	0	3.47	1	301.611340616	301.909684459002	"18"	37233.018343019	37199.114386522	1.5	0.1
0.01	1	0.317359781001869	1	17	308.108502701005	NA	1	0	3.47	1	302.145751131	302.463110912002	"18"	37233.018343019	37199.114386522	1.5	0.1
0.01	1	0.287092625003424	1	17	308.108502701005	NA	1	0	3.47	1	302.696547043	302.983639668004	"18"	37233.018343019	37199.114386522	1.5	0.1
0.01	1	0.297575866999978	1	17	308.108502701005	NA	1	0	3.47	1	303.214117951	303.511693818	"18"	37233.018343019	37199.114386522	1.5	0.1
0.01	1	0.273754214002111	1	17	308.108502701005	NA	1	0	3.47	1	303.748289616	304.022043830002	"18"	37233.018343019	37199.114386522	1.5	0.1
0.01	1	0.254541618000076	1	17	308.108502701005	NA	1	0	3.47	1	304.249155483005	304.503697101005	"18"	37233.018343019	37199.114386522	1.5	0.1
0.01	1	0.290414575996692	1	17	308.108502701005	NA	1	0	3.47	1	304.733344860004	305.023759436001	"18"	37233.018343019	37199.114386522	1.5	0.1
0.01	1	0.284845124995627	1	17	308.108502701005	NA	1	0	3.47	1	305.250813941006	305.535659066001	"18"	37233.018343019	37199.114386522	1.5	0.1
0.01	1	0.254910044997814	1	17	308.108502701005	NA	1	0	3.47	1	305.768322968004	306.023233013002	"18"	37233.018343019	37199.114386522	1.5	0.1
0.01	1	0.273399507997965	1	17	308.108502701005	NA	1	0	3.47	1	306.252532901002	306.525932409	"18"	37233.018343019	37199.114386522	1.5	0.1
0.01	1	0.285462528001517	1	17	308.108502701005	NA	1	0	3.47	1	306.753401601003	307.038864129005	"18"	37233.018343019	37199.114386522	1.5	0.1
0.01	1	0.239062572996772	1	17	308.108502701005	NA	1	0	3.47	1	307.270918186005	307.509980759001	"18"	37233.018343019	37199.114386522	1.5	0.1
0.01	1	0.25223564299813	1	17	308.108502701005	NA	1	0	3.47	1	307.738288986002	307.990524629	"18"	37233.018343019	37199.114386522	1.5	0.1
0.01	1	0.392776556000172	1	20	320.312024058003	NA	1	0	3.47	1	310.142622151005	310.535398707005	"19"	37233.018343019	37199.114386522	1.5	0.1
0.01	1	0.181345037999563	1	20	320.312024058003	NA	1	0	3.47	1	310.776851721006	310.958196759006	"19"	37233.018343019	37199.114386522	1.5	0.1
0.01	1	0.229083286998502	1	20	320.312024058003	NA	1	0	3.47	1	311.194189646005	311.423272933003	"19"	37233.018343019	37199.114386522	1.5	0.1
0.01	1	0.273482193995733	1	20	320.312024058003	NA	1	0	3.47	1	311.661614676006	311.935096870002	"19"	37233.018343019	37199.114386522	1.5	0.1
0.01	1	0.243801390002773	1	20	320.312024058003	NA	1	0	3.47	1	312.162424888003	312.406226278006	"19"	37233.018343019	37199.114386522	1.5	0.1
0.01	1	0.313636393002525	1	20	320.312024058003	NA	1	0	3.47	1	312.629988200002	312.943624593005	"19"	37233.018343019	37199.114386522	1.5	0.1
0.01	1	0.232876747002592	1	20	320.312024058003	NA	1	0	3.47	1	313.180866431001	313.413743178004	"19"	37233.018343019	37199.114386522	1.5	0.1
0.01	1	0.262731857998006	1	20	320.312024058003	NA	1	0	3.47	1	313.648357101003	313.911088959001	"19"	37233.018343019	37199.114386522	1.5	0.1
0.01	1	0.2258809499981	1	20	320.312024058003	NA	1	0	3.47	1	314.149120983006	314.375001933004	"19"	37233.018343019	37199.114386522	1.5	0.1
0.01	1	0.231285205998574	1	20	320.312024058003	NA	1	0	3.47	1	314.600020506005	314.831305712003	"19"	37233.018343019	37199.114386522	1.5	0.1
0.01	1	0.28323071700288	1	20	320.312024058003	NA	1	0	3.47	1	315.067379656	315.350610373003	"19"	37233.018343019	37199.114386522	1.5	0.1
0.01	1	0.230182282000897	1	20	320.312024058003	NA	1	0	3.47	1	315.584961166001	315.815143448002	"19"	37233.018343019	37199.114386522	1.5	0.1
0.01	1	0.337480909998703	1	20	320.312024058003	NA	1	0	3.47	1	316.052339266003	316.389820176002	"19"	37233.018343019	37199.114386522	1.5	0.1
0.01	1	0.266521122000995	1	20	320.312024058003	NA	1	0	3.47	1	316.619868106005	316.886389228006	"19"	37233.018343019	37199.114386522	1.5	0.1
0.01	1	0.254345832996478	1	20	320.312024058003	NA	1	0	3.47	1	317.120845913007	317.375191746003	"19"	37233.018343019	37199.114386522	1.5	0.1
0.01	1	0.273714208000456	1	20	320.312024058003	NA	1	0	3.47	1	317.604961107005	317.878675315005	"19"	37233.018343019	37199.114386522	1.5	0.1
0.01	1	0.459908204997191	1	20	320.312024058003	NA	1	0	3.47	1	318.105746051006	318.565654256003	"19"	37233.018343019	37199.114386522	1.5	0.1
0.01	1	0.303344943997217	1	20	320.312024058003	NA	1	0	3.47	1	318.790379661004	319.093724605002	"19"	37233.018343019	37199.114386522	1.5	0.1
0.01	1	0.332531866995851	1	20	320.312024058003	NA	1	0	3.47	1	319.324463881007	319.656995748002	"19"	37233.018343019	37199.114386522	1.5	0.1
0.01	1	0.307369344998733	1	20	320.312024058003	NA	1	0	3.47	1	319.892189681006	320.199559026005	"19"	37233.018343019	37199.114386522	1.5	0.1
0.01	1	0.555861410000944	1	21	NA	330.023746125	0	0.15	3.62	1	322.346243846005	322.902105256006	"20"	37233.018343019	37199.114386522	1.5	0.1
0.01	1	0.188457192001806	1	21	NA	330.023746125	0	0.15	3.62	1	323.130861176003	323.319318368005	"20"	37233.018343019	37199.114386522	1.5	0.1
0.01	1	0.0984364210016793	1	21	NA	330.023746125	0	0.15	3.62	1	323.548239383003	323.646675804004	"20"	37233.018343019	37199.114386522	1.5	0.1
0.01	1	0.0523414780036546	1	21	NA	330.023746125	0	0.15	3.62	1	323.882177801002	323.934519279006	"20"	37233.018343019	37199.114386522	1.5	0.1
0.01	1	0.0244738239998696	1	21	NA	330.023746125	0	0.15	3.62	1	324.166021256002	324.190495080002	"20"	37233.018343019	37199.114386522	1.5	0.1
0.01	1	0.0469405479962006	1	21	NA	330.023746125	0	0.15	3.62	1	324.416451168006	324.463391716003	"20"	37233.018343019	37199.114386522	1.5	0.1
0.01	1	0.146987631000229	1	21	NA	330.023746125	0	0.15	3.62	1	324.700253756004	324.847241387004	"20"	37233.018343019	37199.114386522	1.5	0.1
0.01	1	0.771609730996715	1	21	NA	330.023746125	0	0.15	3.62	1	325.084113968005	325.855723699002	"20"	37233.018343019	37199.114386522	1.5	0.1
0.01	1	0.312792331002129	1	21	NA	330.023746125	0	0.15	3.62	1	326.085873538002	326.398665869005	"20"	37233.018343019	37199.114386522	1.5	0.1
0.01	1	0.290035942998657	1	21	NA	330.023746125	0	0.15	3.62	1	326.636754573003	326.926790516001	"20"	37233.018343019	37199.114386522	1.5	0.1
0.01	1	0.292147072999796	1	21	NA	330.023746125	0	0.15	3.62	1	327.154325476004	327.446472549003	"20"	37233.018343019	37199.114386522	1.5	0.1
0.01	1	0.206067514001916	1	21	NA	330.023746125	0	0.15	3.62	1	327.671854496002	327.877922010004	"20"	37233.018343019	37199.114386522	1.5	0.1
0.01	1	0.244339400000172	1	21	NA	330.023746125	0	0.15	3.62	1	328.106073198003	328.350412598003	"20"	37233.018343019	37199.114386522	1.5	0.1
0.01	1	0.497456762997899	1	21	NA	330.023746125	0	0.15	3.62	1	328.590148721007	329.087605484005	"20"	37233.018343019	37199.114386522	1.5	0.1
0.01	1	0.0989742200035835	1	21	NA	330.023746125	0	0.15	3.62	1	329.324673563002	329.423647783005	"20"	37233.018343019	37199.114386522	1.5	0.1
0.01	1	0.363643951000995	2	21	NA	330.023746125	0	0.15	3.62	1	329.658545956001	330.022189907002	"20"	37233.018343019	37199.114386522	1.5	0.1
0.01	1	0.00201003899564967	1	26	NA	341.641023517004	0	0.19	3.81	1	332.079289646004	332.081299685	"21"	37233.018343019	37199.114386522	1.5	0.1
0.01	1	0.261094460001914	1	26	NA	341.641023517004	0	0.19	3.81	1	332.312944646001	332.574039106003	"21"	37233.018343019	37199.114386522	1.5	0.1
0.01	1	0.241433535004035	1	26	NA	341.641023517004	0	0.19	3.81	1	332.797062051002	333.038495586006	"21"	37233.018343019	37199.114386522	1.5	0.1
0.01	1	0.230988443996466	1	26	NA	341.641023517004	0	0.19	3.81	1	333.264683083005	333.495671527002	"21"	37233.018343019	37199.114386522	1.5	0.1
0.01	1	0.186687412999163	1	26	NA	341.641023517004	0	0.19	3.81	1	333.732190296003	333.918877709002	"21"	37233.018343019	37199.114386522	1.5	0.1
0.01	1	0.194092650002858	1	26	NA	341.641023517004	0	0.19	3.81	1	334.149349931002	334.343442581005	"21"	37233.018343019	37199.114386522	1.5	0.1
0.01	1	0.207463271995948	1	26	NA	341.641023517004	0	0.19	3.81	1	334.566902688006	334.774365960002	"21"	37233.018343019	37199.114386522	1.5	0.1
0.01	1	0.205871525002294	1	26	NA	341.641023517004	0	0.19	3.81	1	335.000873158002	335.206744683004	"21"	37233.018343019	37199.114386522	1.5	0.1
0.01	1	0.179660670997691	1	26	NA	341.641023517004	0	0.19	3.81	1	335.434933818004	335.614594489001	"21"	37233.018343019	37199.114386522	1.5	0.1
0.01	1	0.16268968499935	1	26	NA	341.641023517004	0	0.19	3.81	1	335.852246808005	336.014936493004	"21"	37233.018343019	37199.114386522	1.5	0.1
0.01	1	0.152965700995992	1	26	NA	341.641023517004	0	0.19	3.81	1	336.252946803004	336.405912504	"21"	37233.018343019	37199.114386522	1.5	0.1
0.01	1	0.161614090000512	1	26	NA	341.641023517004	0	0.19	3.81	1	336.637001406001	336.798615496002	"21"	37233.018343019	37199.114386522	1.5	0.1
0.01	1	0.32903110600455	1	26	NA	341.641023517004	0	0.19	3.81	1	337.020897843002	337.349928949006	"21"	37233.018343019	37199.114386522	1.5	0.1
0.01	1	0.683599957999832	1	26	NA	341.641023517004	0	0.19	3.81	1	337.571830326	338.255430284	"21"	37233.018343019	37199.114386522	1.5	0.1
0.01	1	0.357311725005275	1	26	NA	341.641023517004	0	0.19	3.81	1	338.490162511	338.847474236005	"21"	37233.018343019	37199.114386522	1.5	0.1
0.01	1	0.324452414999541	1	26	NA	341.641023517004	0	0.19	3.81	1	339.074446118	339.398898533	"21"	37233.018343019	37199.114386522	1.5	0.1
0.01	1	0.414426802002708	1	26	NA	341.641023517004	0	0.19	3.81	1	339.625392116002	340.039818918005	"21"	37233.018343019	37199.114386522	1.5	0.1
0.01	1	0.378737753999303	1	26	NA	341.641023517004	0	0.19	3.81	1	340.276517141006	340.655254895006	"21"	37233.018343019	37199.114386522	1.5	0.1
0.01	1	0.321891090003191	1	26	NA	341.641023517004	0	0.19	3.81	1	340.877466528	341.199357618003	"21"	37233.018343019	37199.114386522	1.5	0.1
0.01	1	0.211078863998409	2	26	NA	341.641023517004	0	0.19	3.81	1	341.428381996004	341.639460860002	"21"	37233.018343019	37199.114386522	1.5	0.1
0.01	1	0.00210856900230283	1	97	NA	357.263844049005	0	0.25	4.06	1	343.682153676004	343.684262245006	"22"	37233.018343019	37199.114386522	1.5	0.1
0.01	1	0.338401419998263	1	97	NA	357.263844049005	0	0.25	4.06	1	343.915871383004	344.254272803002	"22"	37233.018343019	37199.114386522	1.5	0.1
0.01	1	0.227486144001887	1	97	NA	357.263844049005	0	0.25	4.06	1	344.483454223002	344.710940367004	"22"	37233.018343019	37199.114386522	1.5	0.1
0.01	1	0.217462162996526	1	97	NA	357.263844049005	0	0.25	4.06	1	344.934216336005	345.151678499002	"22"	37233.018343019	37199.114386522	1.5	0.1
0.01	1	0.198633964995679	1	97	NA	357.263844049005	0	0.25	4.06	1	345.384980036004	345.583614001	"22"	37233.018343019	37199.114386522	1.5	0.1
0.01	1	0.171239903997048	1	97	NA	357.263844049005	0	0.25	4.06	1	345.819092761005	345.990332665002	"22"	37233.018343019	37199.114386522	1.5	0.1
0.01	1	0.177998380000645	1	97	NA	357.263844049005	0	0.25	4.06	1	346.219772281001	346.397770661002	"22"	37233.018343019	37199.114386522	1.5	0.1
0.01	1	0.209702838998055	1	97	NA	357.263844049005	0	0.25	4.06	1	346.620345047006	346.830047886004	"22"	37233.018343019	37199.114386522	1.5	0.1
0.01	1	0.183610526000848	1	97	NA	357.263844049005	0	0.25	4.06	1	347.071136801002	347.254747327002	"22"	37233.018343019	37199.114386522	1.5	0.1
0.01	1	0.181491856004868	1	97	NA	357.263844049005	0	0.25	4.06	1	347.488631941	347.670123797005	"22"	37233.018343019	37199.114386522	1.5	0.1
0.01	1	0.197244572002091	1	97	NA	357.263844049005	0	0.25	4.06	1	347.905897518001	348.103142090004	"22"	37233.018343019	37199.114386522	1.5	0.1
0.01	1	0.22658728499664	1	97	NA	357.263844049005	0	0.25	4.06	1	348.339920176004	348.566507461001	"22"	37233.018343019	37199.114386522	1.5	0.1
0.01	1	0.23118258100294	1	97	NA	357.263844049005	0	0.25	4.06	1	348.790835651002	349.022018232004	"22"	37233.018343019	37199.114386522	1.5	0.1
0.01	1	0.221309352993558	1	97	NA	357.263844049005	0	0.25	4.06	1	349.258251663006	349.479561016	"22"	37233.018343019	37199.114386522	1.5	0.1
0.01	1	0.33745650399942	1	97	NA	357.263844049005	0	0.25	4.06	1	349.708890596004	350.046347100004	"22"	37233.018343019	37199.114386522	1.5	0.1
0.01	1	0.289390613004798	1	97	NA	357.263844049005	0	0.25	4.06	1	350.276549686001	350.565940299006	"22"	37233.018343019	37199.114386522	1.5	0.1
0.01	1	0.333543769003882	1	97	NA	357.263844049005	0	0.25	4.06	1	350.794008750003	351.127552519007	"22"	37233.018343019	37199.114386522	1.5	0.1
0.01	1	0.237338309998449	1	97	NA	357.263844049005	0	0.25	4.06	1	351.361670511003	351.599008821002	"22"	37233.018343019	37199.114386522	1.5	0.1
0.01	1	0.362594051002816	1	97	NA	357.263844049005	0	0.25	4.06	1	351.829250328003	352.191844379005	"22"	37233.018343019	37199.114386522	1.5	0.1
0.01	1	0.39987185800419	1	97	NA	357.263844049005	0	0.25	4.06	1	352.430229466001	352.830101324005	"22"	37233.018343019	37199.114386522	1.5	0.1
0.01	1	0.422761387002538	1	97	NA	357.263844049005	0	0.25	4.06	1	353.064557821002	353.487319208005	"22"	37233.018343019	37199.114386522	1.5	0.1
0.01	1	0.618599077999534	1	97	NA	357.263844049005	0	0.25	4.06	1	353.715627469006	354.334226547006	"22"	37233.018343019	37199.114386522	1.5	0.1
0.01	1	0.495632185004069	1	97	NA	357.263844049005	0	0.25	4.06	1	354.567141956002	355.062774141006	"22"	37233.018343019	37199.114386522	1.5	0.1
0.01	1	0.4184993509989	1	97	NA	357.263844049005	0	0.25	4.06	1	355.284981856006	355.703481207005	"22"	37233.018343019	37199.114386522	1.5	0.1
0.01	1	0.630272137997963	1	97	NA	357.263844049005	0	0.25	4.06	1	355.936157086006	356.566429224004	"22"	37233.018343019	37199.114386522	1.5	0.1
0.01	1	0.457986540997808	2	97	NA	357.263844049005	0	0.25	4.06	1	356.804248263004	357.262234804002	"22"	37233.018343019	37199.114386522	1.5	0.1
0.01	1	0.866868608994992	1	118	NA	373.512098109	0	0.25	4.31	1	359.308355748006	360.175224357001	"23"	37233.018343019	37199.114386522	1.5	0.1
0.01	1	0.284926284999528	1	118	NA	373.512098109	0	0.25	4.31	1	360.410272316003	360.695198601003	"23"	37233.018343019	37199.114386522	1.5	0.1
0.01	1	0.215654318999441	1	118	NA	373.512098109	0	0.25	4.31	1	360.927772637006	361.143426956005	"23"	37233.018343019	37199.114386522	1.5	0.1
0.01	1	0.203260141002829	1	118	NA	373.512098109	0	0.25	4.31	1	361.378629343002	361.581889484005	"23"	37233.018343019	37199.114386522	1.5	0.1
0.01	1	0.226172600996506	1	118	NA	373.512098109	0	0.25	4.31	1	361.812702366005	362.038874967002	"23"	37233.018343019	37199.114386522	1.5	0.1
0.01	1	0.216164252000453	1	118	NA	373.512098109	0	0.25	4.31	1	362.263378383002	362.479542635003	"23"	37233.018343019	37199.114386522	1.5	0.1
0.01	1	0.212236715997278	1	118	NA	373.512098109	0	0.25	4.31	1	362.714137471005	362.926374187002	"23"	37233.018343019	37199.114386522	1.5	0.1
0.01	1	0.209677324994118	1	118	NA	373.512098109	0	0.25	4.31	1	363.164830281006	363.374507606	"23"	37233.018343019	37199.114386522	1.5	0.1
0.01	1	0.206808933005959	1	118	NA	373.512098109	0	0.25	4.31	1	363.598981331001	363.805790264007	"23"	37233.018343019	37199.114386522	1.5	0.1
0.01	1	0.229482994000136	1	118	NA	373.512098109	0	0.25	4.31	1	364.033002411001	364.262485405001	"23"	37233.018343019	37199.114386522	1.5	0.1
0.01	1	0.210437134999665	1	118	NA	373.512098109	0	0.25	4.31	1	364.500432871006	364.710870006005	"23"	37233.018343019	37199.114386522	1.5	0.1
0.01	1	0.248048778004886	1	118	NA	373.512098109	0	0.25	4.31	1	364.934584003	365.182632781005	"23"	37233.018343019	37199.114386522	1.5	0.1
0.01	1	0.228242107994447	1	118	NA	373.512098109	0	0.25	4.31	1	365.418716023007	365.646958131001	"23"	37233.018343019	37199.114386522	1.5	0.1
0.01	1	0.26503681900067	1	118	NA	373.512098109	0	0.25	4.31	1	365.869387936	366.134424755001	"23"	37233.018343019	37199.114386522	1.5	0.1
0.01	1	0.212887317997229	1	118	NA	373.512098109	0	0.25	4.31	1	366.370331281003	366.583218599	"23"	37233.018343019	37199.114386522	1.5	0.1
0.01	1	0.249559916999715	1	118	NA	373.512098109	0	0.25	4.31	1	366.820988723004	367.070548640004	"23"	37233.018343019	37199.114386522	1.5	0.1
0.01	1	0.229238995001651	1	118	NA	373.512098109	0	0.25	4.31	1	367.305295086	367.534534081002	"23"	37233.018343019	37199.114386522	1.5	0.1
0.01	1	0.386574846997974	1	118	NA	373.512098109	0	0.25	4.31	1	367.772692121005	368.159266968003	"23"	37233.018343019	37199.114386522	1.5	0.1
0.01	1	0.385171394998906	1	118	NA	373.512098109	0	0.25	4.31	1	368.390326403001	368.775497798	"23"	37233.018343019	37199.114386522	1.5	0.1
0.01	1	0.342134995000379	1	118	NA	373.512098109	0	0.25	4.31	1	369.008153298004	369.350288293004	"23"	37233.018343019	37199.114386522	1.5	0.1
0.01	1	0.974669629998971	1	118	NA	373.512098109	0	0.25	4.31	1	369.575628091006	370.550297721005	"23"	37233.018343019	37199.114386522	1.5	0.1
0.01	1	0.285610825994809	1	118	NA	373.512098109	0	0.25	4.31	1	370.777739093006	371.063349919001	"23"	37233.018343019	37199.114386522	1.5	0.1
0.01	1	0.311995133000892	1	118	NA	373.512098109	0	0.25	4.31	1	371.295215126003	371.607210259004	"23"	37233.018343019	37199.114386522	1.5	0.1
0.01	1	0.304801897000289	1	118	NA	373.512098109	0	0.25	4.31	1	371.829502346001	372.134304243002	"23"	37233.018343019	37199.114386522	1.5	0.1
0.01	1	0.419685318003758	1	118	NA	373.512098109	0	0.25	4.31	1	372.363627348001	372.783312666004	"23"	37233.018343019	37199.114386522	1.5	0.1
0.01	1	0.495717018995492	2	118	NA	373.512098109	0	0.25	4.31	1	373.014794181006	373.510511200002	"23"	37233.018343019	37199.114386522	1.5	0.1
0.01	1	0.799430225000833	1	100	NA	390.231776791006	0	0.26	4.57	1	375.552361328002	376.351791553003	"24"	37233.018343019	37199.114386522	1.5	0.1
0.01	1	0.194416485006514	1	100	NA	390.231776791006	0	0.26	4.57	1	376.587468938	376.781885423006	"24"	37233.018343019	37199.114386522	1.5	0.1
0.01	1	0.274552630995458	1	100	NA	390.231776791006	0	0.26	4.57	1	377.004851121004	377.279403752	"24"	37233.018343019	37199.114386522	1.5	0.1
0.01	1	0.165663457002665	1	100	NA	390.231776791006	0	0.26	4.57	1	377.505659998002	377.671323455004	"24"	37233.018343019	37199.114386522	1.5	0.1
0.01	1	0.20379140300065	1	100	NA	390.231776791006	0	0.26	4.57	1	377.906438816004	378.110230219005	"24"	37233.018343019	37199.114386522	1.5	0.1
0.01	1	0.154103218999808	1	100	NA	390.231776791006	0	0.26	4.57	1	378.340455811005	378.494559030005	"24"	37233.018343019	37199.114386522	1.5	0.1
0.01	1	0.201557688997127	1	100	NA	390.231776791006	0	0.26	4.57	1	378.724493721005	378.926051410002	"24"	37233.018343019	37199.114386522	1.5	0.1
0.01	1	0.192760842001007	1	100	NA	390.231776791006	0	0.26	4.57	1	379.158476328004	379.351237170005	"24"	37233.018343019	37199.114386522	1.5	0.1
0.01	1	0.165646920002473	1	100	NA	390.231776791006	0	0.26	4.57	1	379.592498888	379.758145808002	"24"	37233.018343019	37199.114386522	1.5	0.1
0.01	1	0.222031657998741	1	100	NA	390.231776791006	0	0.26	4.57	1	379.993272971005	380.215304629004	"24"	37233.018343019	37199.114386522	1.5	0.1
0.01	1	0.242177990003256	1	100	NA	390.231776791006	0	0.26	4.57	1	380.443977178002	380.686155168005	"24"	37233.018343019	37199.114386522	1.5	0.1
0.01	1	0.304347258999769	1	100	NA	390.231776791006	0	0.26	4.57	1	380.911432907	381.215780166	"24"	37233.018343019	37199.114386522	1.5	0.1
0.01	1	0.240340191994619	1	100	NA	390.231776791006	0	0.26	4.57	1	381.445664066006	381.686004258001	"24"	37233.018343019	37199.114386522	1.5	0.1
0.01	1	0.245937891006179	1	100	NA	390.231776791006	0	0.26	4.57	1	381.913078758	382.159016649006	"24"	37233.018343019	37199.114386522	1.5	0.1
0.01	1	0.257405477001157	1	100	NA	390.231776791006	0	0.26	4.57	1	382.397216796002	382.654622273003	"24"	37233.018343019	37199.114386522	1.5	0.1
0.01	1	0.237410695001017	1	100	NA	390.231776791006	0	0.26	4.57	1	382.881353126002	383.118763821003	"24"	37233.018343019	37199.114386522	1.5	0.1
0.01	1	0.257049756997731	1	100	NA	390.231776791006	0	0.26	4.57	1	383.348912536007	383.605962293004	"24"	37233.018343019	37199.114386522	1.5	0.1
0.01	1	0.246351591995335	1	100	NA	390.231776791006	0	0.26	4.57	1	383.832956731007	384.079308323002	"24"	37233.018343019	37199.114386522	1.5	0.1
0.01	1	0.272639700000582	1	100	NA	390.231776791006	0	0.26	4.57	1	384.317153916003	384.589793616004	"24"	37233.018343019	37199.114386522	1.5	0.1
0.01	1	0.260166416999709	1	100	NA	390.231776791006	0	0.26	4.57	1	384.817990483003	385.078156900003	"24"	37233.018343019	37199.114386522	1.5	0.1
0.01	1	0.328399088997685	1	100	NA	390.231776791006	0	0.26	4.57	1	385.318869786002	385.647268875	"24"	37233.018343019	37199.114386522	1.5	0.1
0.01	1	0.361323708995769	1	100	NA	390.231776791006	0	0.26	4.57	1	385.869743963005	386.231067672001	"24"	37233.018343019	37199.114386522	1.5	0.1
0.01	1	0.561339455001871	1	100	NA	390.231776791006	0	0.26	4.57	1	386.454009581001	387.015349036003	"24"	37233.018343019	37199.114386522	1.5	0.1
0.01	1	0.432642018000479	1	100	NA	390.231776791006	0	0.26	4.57	1	387.238714648003	387.671356666004	"24"	37233.018343019	37199.114386522	1.5	0.1
0.01	1	0.451545781994355	1	100	NA	390.231776791006	0	0.26	4.57	1	387.906482501006	388.358028283001	"24"	37233.018343019	37199.114386522	1.5	0.1
0.01	1	0.864626722999674	1	100	NA	390.231776791006	0	0.26	4.57	1	388.591092021001	389.455718744	"24"	37233.018343019	37199.114386522	1.5	0.1
0.01	1	0.537398692998977	2	100	NA	390.231776791006	0	0.26	4.57	1	389.692786001004	390.230184694003	"24"	37233.018343019	37199.114386522	1.5	0.1
0.01	1	1.22137452100287	1	46	NA	411.110179113006	0	0.3	4.87	1	392.280456038003	393.501830559006	"25"	37233.018343019	37199.114386522	1.5	0.1
0.01	1	0.338591097999597	1	46	NA	411.110179113006	0	0.3	4.87	1	393.733032626005	394.071623724005	"25"	37233.018343019	37199.114386522	1.5	0.1
0.01	1	0.28206000100181	1	46	NA	411.110179113006	0	0.3	4.87	1	394.300625691001	394.582685692003	"25"	37233.018343019	37199.114386522	1.5	0.1
0.01	1	0.284248662996106	1	46	NA	411.110179113006	0	0.3	4.87	1	394.818133361005	395.102382024001	"25"	37233.018343019	37199.114386522	1.5	0.1
0.01	1	0.286981145000027	1	46	NA	411.110179113006	0	0.3	4.87	1	395.335661446006	395.622642591006	"25"	37233.018343019	37199.114386522	1.5	0.1
0.01	1	0.28908689400123	1	46	NA	411.110179113006	0	0.3	4.87	1	395.853234266004	396.142321160005	"25"	37233.018343019	37199.114386522	1.5	0.1
0.01	1	0.275496107999061	1	46	NA	411.110179113006	0	0.3	4.87	1	396.370800623001	396.646296731	"25"	37233.018343019	37199.114386522	1.5	0.1
0.01	1	0.318515832004778	1	46	NA	411.110179113006	0	0.3	4.87	1	396.871629718	397.190145550005	"25"	37233.018343019	37199.114386522	1.5	0.1
0.01	1	0.335794737999095	1	46	NA	411.110179113006	0	0.3	4.87	1	397.422543848006	397.758338586005	"25"	37233.018343019	37199.114386522	1.5	0.1
0.01	1	0.304541658995731	1	46	NA	411.110179113006	0	0.3	4.87	1	397.990133128005	398.294674787001	"25"	37233.018343019	37199.114386522	1.5	0.1
0.01	1	0.337995973000943	1	46	NA	411.110179113006	0	0.3	4.87	1	398.524390543003	398.862386516004	"25"	37233.018343019	37199.114386522	1.5	0.1
0.01	1	0.29802358699817	1	46	NA	411.110179113006	0	0.3	4.87	1	399.091957886005	399.389981473003	"25"	37233.018343019	37199.114386522	1.5	0.1
0.01	1	0.30885874699743	1	46	NA	411.110179113006	0	0.3	4.87	1	399.626187517002	399.935046264	"25"	37233.018343019	37199.114386522	1.5	0.1
0.01	1	0.302768638000998	1	46	NA	411.110179113006	0	0.3	4.87	1	400.160406211005	400.463174849006	"25"	37233.018343019	37199.114386522	1.5	0.1
0.01	1	0.311520525996457	1	46	NA	411.110179113006	0	0.3	4.87	1	400.694591766005	401.006112292001	"25"	37233.018343019	37199.114386522	1.5	0.1
0.01	1	0.31370514700393	1	46	NA	411.110179113006	0	0.3	4.87	1	401.228990001	401.542695148004	"25"	37233.018343019	37199.114386522	1.5	0.1
0.01	1	0.330608584001311	1	46	NA	411.110179113006	0	0.3	4.87	1	401.779787526	402.110396110002	"25"	37233.018343019	37199.114386522	1.5	0.1
0.01	1	0.331422040006146	1	46	NA	411.110179113006	0	0.3	4.87	1	402.347499901	402.678921941006	"25"	37233.018343019	37199.114386522	1.5	0.1
0.01	1	0.292811838000489	1	46	NA	411.110179113006	0	0.3	4.87	1	402.915107408	403.207919246001	"25"	37233.018343019	37199.114386522	1.5	0.1
0.01	1	0.358210507001786	1	46	NA	411.110179113006	0	0.3	4.87	1	403.432603628004	403.790814135005	"25"	37233.018343019	37199.114386522	1.5	0.1
0.01	1	0.375191323000763	1	46	NA	411.110179113006	0	0.3	4.87	1	404.016884828001	404.392076151002	"25"	37233.018343019	37199.114386522	1.5	0.1
0.01	1	0.364961200000835	1	46	NA	411.110179113006	0	0.3	4.87	1	404.617892611001	404.982853811001	"25"	37233.018343019	37199.114386522	1.5	0.1
0.01	1	0.340664912000648	1	46	NA	411.110179113006	0	0.3	4.87	1	405.218961924002	405.559626836002	"25"	37233.018343019	37199.114386522	1.5	0.1
0.01	1	0.307528852994437	1	46	NA	411.110179113006	0	0.3	4.87	1	405.786655168005	406.094184021	"25"	37233.018343019	37199.114386522	1.5	0.1
0.01	1	0.373575067002093	1	46	NA	411.110179113006	0	0.3	4.87	1	406.320777621004	406.694352688006	"25"	37233.018343019	37199.114386522	1.5	0.1
0.01	1	0.316249149000214	1	46	NA	411.110179113006	0	0.3	4.87	1	406.921882876006	407.238132025006	"25"	37233.018343019	37199.114386522	1.5	0.1
0.01	1	0.366315357998246	1	46	NA	411.110179113006	0	0.3	4.87	1	407.472733008006	407.839048366004	"25"	37233.018343019	37199.114386522	1.5	0.1
0.01	1	0.340441619002377	1	46	NA	411.110179113006	0	0.3	4.87	1	408.073848749002	408.414290368004	"25"	37233.018343019	37199.114386522	1.5	0.1
0.01	1	0.325640820999979	1	46	NA	411.110179113006	0	0.3	4.87	1	408.641375766005	408.967016587005	"25"	37233.018343019	37199.114386522	1.5	0.1
0.01	1	0.358182168994972	1	46	NA	411.110179113006	0	0.3	4.87	1	409.192310301005	409.55049247	"25"	37233.018343019	37199.114386522	1.5	0.1
0.01	1	1.33200740900065	2	46	NA	411.110179113006	0	0.3	4.87	1	409.776606583	411.108613992001	"25"	37233.018343019	37199.114386522	1.5	0.1
0.01	1	2.22569609899801	1	102	NA	427.992975020003	0	0.24	5.11	1	413.165591748002	415.391287847	"26"	37233.018343019	37199.114386522	1.5	0.1
0.01	1	0.0916500999956043	1	102	NA	427.992975020003	0	0.24	5.11	1	415.619806876006	415.711456976002	"26"	37233.018343019	37199.114386522	1.5	0.1
0.01	1	0.11854680399847	1	102	NA	427.992975020003	0	0.24	5.11	1	415.936980833001	416.055527637	"26"	37233.018343019	37199.114386522	1.5	0.1
0.01	1	0.136366392005584	1	102	NA	427.992975020003	0	0.24	5.11	1	416.287484253	416.423850645006	"26"	37233.018343019	37199.114386522	1.5	0.1
0.01	1	0.200190682000539	1	102	NA	427.992975020003	0	0.24	5.11	1	416.654896741005	416.855087423006	"26"	37233.018343019	37199.114386522	1.5	0.1
0.01	1	0.205647768001654	1	102	NA	427.992975020003	0	0.24	5.11	1	417.088864848003	417.294512616005	"26"	37233.018343019	37199.114386522	1.5	0.1
0.01	1	0.219427194002492	1	102	NA	427.992975020003	0	0.24	5.11	1	417.522998854001	417.742426048004	"26"	37233.018343019	37199.114386522	1.5	0.1
0.01	1	0.145982952999475	1	102	NA	427.992975020003	0	0.24	5.11	1	417.973721171002	418.119704124001	"26"	37233.018343019	37199.114386522	1.5	0.1
0.01	1	0.200701298002969	1	102	NA	427.992975020003	0	0.24	5.11	1	418.357698906002	418.558400204005	"26"	37233.018343019	37199.114386522	1.5	0.1
0.01	1	0.088534675000119	1	102	NA	427.992975020003	0	0.24	5.11	1	418.791786606002	418.880321281002	"26"	37233.018343019	37199.114386522	1.5	0.1
0.01	1	0.187043343001278	1	102	NA	427.992975020003	0	0.24	5.11	1	419.108959973004	419.296003316005	"26"	37233.018343019	37199.114386522	1.5	0.1
0.01	1	0.12094057899958	1	102	NA	427.992975020003	0	0.24	5.11	1	419.526376211004	419.647316790004	"26"	37233.018343019	37199.114386522	1.5	0.1
0.01	1	0.386628640000708	1	102	NA	427.992975020003	0	0.24	5.11	1	419.876933846004	420.263562486005	"26"	37233.018343019	37199.114386522	1.5	0.1
0.01	1	1.78552398600004	1	102	NA	427.992975020003	0	0.24	5.11	1	420.494630653004	422.280154639004	"26"	37233.018343019	37199.114386522	1.5	0.1
0.01	1	0.188338185005705	1	102	NA	427.992975020003	0	0.24	5.11	1	422.514721476	422.703059661006	"26"	37233.018343019	37199.114386522	1.5	0.1
0.01	1	0.226726419998158	1	102	NA	427.992975020003	0	0.24	5.11	1	422.932115651005	423.158842071003	"26"	37233.018343019	37199.114386522	1.5	0.1
0.01	1	0.112429536995478	1	102	NA	427.992975020003	0	0.24	5.11	1	423.382764261005	423.495193798	"26"	37233.018343019	37199.114386522	1.5	0.1
0.01	1	0.217351660001441	1	102	NA	427.992975020003	0	0.24	5.11	1	423.733438401003	423.950790061004	"26"	37233.018343019	37199.114386522	1.5	0.1
0.01	1	0.319216958996549	1	102	NA	427.992975020003	0	0.24	5.11	1	424.184194616006	424.503411575002	"26"	37233.018343019	37199.114386522	1.5	0.1
0.01	1	0.384674661996542	1	102	NA	427.992975020003	0	0.24	5.11	1	424.735149456006	425.119824118003	"26"	37233.018343019	37199.114386522	1.5	0.1
0.01	1	0.294295120998868	1	102	NA	427.992975020003	0	0.24	5.11	1	425.352779943001	425.647075064	"26"	37233.018343019	37199.114386522	1.5	0.1
0.01	1	0.297566916997312	1	102	NA	427.992975020003	0	0.24	5.11	1	425.870324401003	426.167891318	"26"	37233.018343019	37199.114386522	1.5	0.1
0.01	1	0.275813195003138	1	102	NA	427.992975020003	0	0.24	5.11	1	426.404607691002	426.680420886005	"26"	37233.018343019	37199.114386522	1.5	0.1
0.01	1	0.42976918000204	1	102	NA	427.992975020003	0	0.24	5.11	1	426.905368016	427.335137196002	"26"	37233.018343019	37199.114386522	1.5	0.1
0.01	1	0.418216345999099	2	102	NA	427.992975020003	0	0.24	5.11	1	427.573195298006	427.991411644005	"26"	37233.018343019	37199.114386522	1.5	0.1
0.01	1	1.17333799500193	1	120	NA	449.479974905	0	0.35	5.46	1	430.044002988005	431.217340983007	"27"	37233.018343019	37199.114386522	1.5	0.1
0.01	1	0.320611917006318	1	120	NA	449.479974905	0	0.35	5.46	1	431.446422481	431.767034398006	"27"	37233.018343019	37199.114386522	1.5	0.1
0.01	1	0.290166857994336	1	120	NA	449.479974905	0	0.35	5.46	1	431.997276598006	432.287443456	"27"	37233.018343019	37199.114386522	1.5	0.1
0.01	1	0.292864444993029	1	120	NA	449.479974905	0	0.35	5.46	1	432.514743278007	432.807607723	"27"	37233.018343019	37199.114386522	1.5	0.1
0.01	1	0.240085122000892	1	120	NA	449.479974905	0	0.35	5.46	1	433.032327358	433.272412480001	"27"	37233.018343019	37199.114386522	1.5	0.1
0.01	1	0.28478357399581	1	120	NA	449.479974905	0	0.35	5.46	1	433.499804221006	433.784587795002	"27"	37233.018343019	37199.114386522	1.5	0.1
0.01	1	0.262271227002202	1	120	NA	449.479974905	0	0.35	5.46	1	434.017291003001	434.279562230004	"27"	37233.018343019	37199.114386522	1.5	0.1
0.01	1	0.265825074005988	1	120	NA	449.479974905	0	0.35	5.46	1	434.501431261	434.767256335006	"27"	37233.018343019	37199.114386522	1.5	0.1
0.01	1	0.252853824997146	1	120	NA	449.479974905	0	0.35	5.46	1	435.002333091004	435.255186916002	"27"	37233.018343019	37199.114386522	1.5	0.1
0.01	1	0.28053084500425	1	120	NA	449.479974905	0	0.35	5.46	1	435.486439294	435.766970139004	"27"	37233.018343019	37199.114386522	1.5	0.1
0.01	1	0.338414983998518	1	120	NA	449.479974905	0	0.35	5.46	1	436.004041903005	436.342456887003	"27"	37233.018343019	37199.114386522	1.5	0.1
0.01	1	0.276531292001891	1	120	NA	449.479974905	0	0.35	5.46	1	436.571599761002	436.848131053004	"27"	37233.018343019	37199.114386522	1.5	0.1
0.01	1	0.286450195002544	1	120	NA	449.479974905	0	0.35	5.46	1	437.072416723	437.358866918003	"27"	37233.018343019	37199.114386522	1.5	0.1
0.01	1	0.258211307002057	1	120	NA	449.479974905	0	0.35	5.46	1	437.590005651	437.848216958002	"27"	37233.018343019	37199.114386522	1.5	0.1
0.01	1	0.260400768005638	1	120	NA	449.479974905	0	0.35	5.46	1	438.074173941	438.334574709006	"27"	37233.018343019	37199.114386522	1.5	0.1
0.01	1	0.223492547003843	1	120	NA	449.479974905	0	0.35	5.46	1	438.575075556	438.798568103004	"27"	37233.018343019	37199.114386522	1.5	0.1
0.01	1	0.269709929998498	1	120	NA	449.479974905	0	0.35	5.46	1	439.025743488004	439.295453418003	"27"	37233.018343019	37199.114386522	1.5	0.1
0.01	1	0.296213509995141	1	120	NA	449.479974905	0	0.35	5.46	1	439.526619931006	439.822833441001	"27"	37233.018343019	37199.114386522	1.5	0.1
0.01	1	0.298986745001457	1	120	NA	449.479974905	0	0.35	5.46	1	440.060838866004	440.359825611005	"27"	37233.018343019	37199.114386522	1.5	0.1
0.01	1	0.308059592003701	1	120	NA	449.479974905	0	0.35	5.46	1	440.595006158001	440.903065750004	"27"	37233.018343019	37199.114386522	1.5	0.1
0.01	1	0.238356811998528	1	120	NA	449.479974905	0	0.35	5.46	1	441.129307606003	441.367664418001	"27"	37233.018343019	37199.114386522	1.5	0.1
0.01	1	0.266473252995638	1	120	NA	449.479974905	0	0.35	5.46	1	441.596816856007	441.863290109002	"27"	37233.018343019	37199.114386522	1.5	0.1
0.01	1	0.294058305997169	1	120	NA	449.479974905	0	0.35	5.46	1	442.097564243006	442.391622549003	"27"	37233.018343019	37199.114386522	1.5	0.1
0.01	1	0.263587476001703	1	120	NA	449.479974905	0	0.35	5.46	1	442.615189396005	442.878776872007	"27"	37233.018343019	37199.114386522	1.5	0.1
0.01	1	0.258428347995505	1	120	NA	449.479974905	0	0.35	5.46	1	443.115992096005	443.374420444001	"27"	37233.018343019	37199.114386522	1.5	0.1
0.01	1	0.334623706003185	1	120	NA	449.479974905	0	0.35	5.46	1	443.600086181003	443.934709887006	"27"	37233.018343019	37199.114386522	1.5	0.1
0.01	1	0.280125803001283	1	120	NA	449.479974905	0	0.35	5.46	1	444.167822666001	444.447948469002	"27"	37233.018343019	37199.114386522	1.5	0.1
0.01	1	0.242178769003658	1	120	NA	449.479974905	0	0.35	5.46	1	444.685295941003	444.927474710006	"27"	37233.018343019	37199.114386522	1.5	0.1
0.01	1	0.302182681996783	1	120	NA	449.479974905	0	0.35	5.46	1	445.152842583004	445.455025265001	"27"	37233.018343019	37199.114386522	1.5	0.1
0.01	1	0.24871058199642	1	120	NA	449.479974905	0	0.35	5.46	1	445.686905428003	445.93561601	"27"	37233.018343019	37199.114386522	1.5	0.1
0.01	1	0.308408220000274	1	120	NA	449.479974905	0	0.35	5.46	1	446.171080166001	446.479488386001	"27"	37233.018343019	37199.114386522	1.5	0.1
0.01	1	0.293896547002078	1	120	NA	449.479974905	0	0.35	5.46	1	446.705406136003	446.999302683005	"27"	37233.018343019	37199.114386522	1.5	0.1
0.01	1	0.288839276996441	1	120	NA	449.479974905	0	0.35	5.46	1	447.222914016005	447.511753293002	"27"	37233.018343019	37199.114386522	1.5	0.1
0.01	1	0.346859445002337	1	120	NA	449.479974905	0	0.35	5.46	1	447.740483291003	448.087342736006	"27"	37233.018343019	37199.114386522	1.5	0.1
0.01	1	0.353753046001657	1	120	NA	449.479974905	0	0.35	5.46	1	448.324765201003	448.678518247005	"27"	37233.018343019	37199.114386522	1.5	0.1
0.01	1	0.569375821003632	2	120	NA	449.479974905	0	0.35	5.46	1	448.909043906002	449.478419727006	"27"	37233.018343019	37199.114386522	1.5	0.1
0.01	1	1.49479608600086	1	44	NA	465.257725853	0	0.25	5.71	1	451.513441686002	453.008237772003	"28"	37233.018343019	37199.114386522	1.5	0.1
0.01	1	0.246298979996936	1	44	NA	465.257725853	0	0.25	5.71	1	453.249743901004	453.496042881001	"28"	37233.018343019	37199.114386522	1.5	0.1
0.01	1	0.265362740996352	1	44	NA	465.257725853	0	0.25	5.71	1	453.733817898006	453.999180639003	"28"	37233.018343019	37199.114386522	1.5	0.1
0.01	1	0.252849923999747	1	44	NA	465.257725853	0	0.25	5.71	1	454.234819721001	454.487669645001	"28"	37233.018343019	37199.114386522	1.5	0.1
0.01	1	0.273166364000645	1	44	NA	465.257725853	0	0.25	5.71	1	454.718812896004	454.991979260005	"28"	37233.018343019	37199.114386522	1.5	0.1
0.01	1	0.227652011002647	1	44	NA	465.257725853	0	0.25	5.71	1	455.219695503001	455.447347514004	"28"	37233.018343019	37199.114386522	1.5	0.1
0.01	1	0.240826809000282	1	44	NA	465.257725853	0	0.25	5.71	1	455.670522463006	455.911349272006	"28"	37233.018343019	37199.114386522	1.5	0.1
0.01	1	0.25245523799822	1	44	NA	465.257725853	0	0.25	5.71	1	456.137962381006	456.390417619004	"28"	37233.018343019	37199.114386522	1.5	0.1
0.01	1	0.224930585005495	1	44	NA	465.257725853	0	0.25	5.71	1	456.622055811	456.846986396005	"28"	37233.018343019	37199.114386522	1.5	0.1
0.01	1	0.254251960999682	1	44	NA	465.257725853	0	0.25	5.71	1	457.072822288006	457.327074249006	"28"	37233.018343019	37199.114386522	1.5	0.1
0.01	1	0.2659654329982	1	44	NA	465.257725853	0	0.25	5.71	1	457.556962956005	457.822928389003	"28"	37233.018343019	37199.114386522	1.5	0.1
0.01	1	0.269981687000836	1	44	NA	465.257725853	0	0.25	5.71	1	458.057818196001	458.327799883002	"28"	37233.018343019	37199.114386522	1.5	0.1
0.01	1	0.336534639005549	1	44	NA	465.257725853	0	0.25	5.71	1	458.558618283001	458.895152922007	"28"	37233.018343019	37199.114386522	1.5	0.1
0.01	1	0.248379265001859	1	44	NA	465.257725853	0	0.25	5.71	1	459.126280641001	459.374659906003	"28"	37233.018343019	37199.114386522	1.5	0.1
0.01	1	0.253182008993463	1	44	NA	465.257725853	0	0.25	5.71	1	459.610488346007	459.863670355	"28"	37233.018343019	37199.114386522	1.5	0.1
0.01	1	0.265385647006042	1	44	NA	465.257725853	0	0.25	5.71	1	460.094507686001	460.359893333007	"28"	37233.018343019	37199.114386522	1.5	0.1
0.01	1	0.243175370000245	1	44	NA	465.257725853	0	0.25	5.71	1	460.595479469004	460.838654839004	"28"	37233.018343019	37199.114386522	1.5	0.1
0.01	1	0.280173130006006	1	44	NA	465.257725853	0	0.25	5.71	1	461.062788076	461.342961206006	"28"	37233.018343019	37199.114386522	1.5	0.1
0.01	1	0.1944159160048	1	44	NA	465.257725853	0	0.25	5.71	1	461.580346121002	461.774762037006	"28"	37233.018343019	37199.114386522	1.5	0.1
0.01	1	0.282236879000266	1	44	NA	465.257725853	0	0.25	5.71	1	461.997667026	462.279903905001	"28"	37233.018343019	37199.114386522	1.5	0.1
0.01	1	0.251387108997733	1	44	NA	465.257725853	0	0.25	5.71	1	462.515311941002	462.76669905	"28"	37233.018343019	37199.114386522	1.5	0.1
0.01	1	0.280082067998592	1	44	NA	465.257725853	0	0.25	5.71	1	462.999413201003	463.279495269002	"28"	37233.018343019	37199.114386522	1.5	0.1
0.01	1	0.251023813994834	1	44	NA	465.257725853	0	0.25	5.71	1	463.516976456005	463.76800027	"28"	37233.018343019	37199.114386522	1.5	0.1
0.01	1	0.24546671200369	1	44	NA	465.257725853	0	0.25	5.71	1	464.001130226003	464.246596938006	"28"	37233.018343019	37199.114386522	1.5	0.1
0.01	1	0.315175736999663	1	44	NA	465.257725853	0	0.25	5.71	1	464.468645278001	464.783821015	"28"	37233.018343019	37199.114386522	1.5	0.1
0.01	1	0.236722027999349	2	44	NA	465.257725853	0	0.25	5.71	1	465.019417540003	465.256139568002	"28"	37233.018343019	37199.114386522	1.5	0.1
0.01	1	1.14087302100234	1	75	NA	483.864288681005	0	0.3	6.01	1	467.306598198003	468.447471219006	"29"	37233.018343019	37199.114386522	1.5	0.1
0.01	1	0.268565310994745	1	75	NA	483.864288681005	0	0.3	6.01	1	468.675647826007	468.944213137001	"29"	37233.018343019	37199.114386522	1.5	0.1
0.01	1	0.157934784001554	1	75	NA	483.864288681005	0	0.3	6.01	1	469.176587426002	469.334522210003	"29"	37233.018343019	37199.114386522	1.5	0.1
0.01	1	0.240025512001012	1	75	NA	483.864288681005	0	0.3	6.01	1	469.560540483006	469.800565995007	"29"	37233.018343019	37199.114386522	1.5	0.1
0.01	1	0.235935174998303	1	75	NA	483.864288681005	0	0.3	6.01	1	470.027907180003	470.263842355002	"29"	37233.018343019	37199.114386522	1.5	0.1
0.01	1	0.232959034001397	1	75	NA	483.864288681005	0	0.3	6.01	1	470.495345021001	470.728304055003	"29"	37233.018343019	37199.114386522	1.5	0.1
0.01	1	0.267594892000488	1	75	NA	483.864288681005	0	0.3	6.01	1	470.962831006	471.230425898	"29"	37233.018343019	37199.114386522	1.5	0.1
0.01	1	0.248117612005444	1	75	NA	483.864288681005	0	0.3	6.01	1	471.463665648	471.711783260005	"29"	37233.018343019	37199.114386522	1.5	0.1
0.01	1	0.331876244999876	1	75	NA	483.864288681005	0	0.3	6.01	1	471.947851578007	472.279727823006	"29"	37233.018343019	37199.114386522	1.5	0.1
0.01	1	0.26038326699927	1	75	NA	483.864288681005	0	0.3	6.01	1	472.515438243005	472.775821510004	"29"	37233.018343019	37199.114386522	1.5	0.1
0.01	1	0.288168465995113	1	75	NA	483.864288681005	0	0.3	6.01	1	472.999581703007	473.287750169002	"29"	37233.018343019	37199.114386522	1.5	0.1
