"payoff.level"	"balloon"	"rt"	"resp"	"explode.trial"	"explode.time"	"finish.time"	"exploded"	"trial.total"	"cumulative.total"	"finished"	"trial.start"	"trial.end"	"trial.num"	"secs"	"start.time"	"iti"	"isi"
0.01	1	1.9149166419993	1	64	NA	35.0166953160006	0	0.27	0.27	1	0.0207202900019183	1.93563693200122	"1"	17443.988201686	17441.951034161	1.5	0.1
0.01	1	1.38974051499827	1	64	NA	35.0166953160006	0	0.27	0.27	1	2.64170066700171	4.03144118199998	"1"	17443.988201686	17441.951034161	1.5	0.1
0.01	1	0.689134309999645	1	64	NA	35.0166953160006	0	0.27	0.27	1	4.26117421000163	4.95030852000127	"1"	17443.988201686	17441.951034161	1.5	0.1
0.01	1	0.452692253998976	1	64	NA	35.0166953160006	0	0.27	0.27	1	5.17938622000293	5.6320784740019	"1"	17443.988201686	17441.951034161	1.5	0.1
0.01	1	0.607311837997258	1	64	NA	35.0166953160006	0	0.27	0.27	1	5.86382285200307	6.47113469000033	"1"	17443.988201686	17441.951034161	1.5	0.1
0.01	1	0.284286862999579	1	64	NA	35.0166953160006	0	0.27	0.27	1	6.69864251000035	6.98292937299993	"1"	17443.988201686	17441.951034161	1.5	0.1
0.01	1	0.00375645099848043	1	64	NA	35.0166953160006	0	0.27	0.27	1	7.21622418000334	7.21998063100182	"1"	17443.988201686	17441.951034161	1.5	0.1
0.01	1	0.397068238002248	1	64	NA	35.0166953160006	0	0.27	0.27	1	7.44982866200007	7.84689690000232	"1"	17443.988201686	17441.951034161	1.5	0.1
0.01	1	0.699002297998959	1	64	NA	35.0166953160006	0	0.27	0.27	1	8.08428855200327	8.78329085000223	"1"	17443.988201686	17441.951034161	1.5	0.1
0.01	1	1.06758533099855	1	64	NA	35.0166953160006	0	0.27	0.27	1	9.01909571200304	10.0866810430016	"1"	17443.988201686	17441.951034161	1.5	0.1
0.01	1	0.669830918999651	1	64	NA	35.0166953160006	0	0.27	0.27	1	10.3214495450011	10.9912804640007	"1"	17443.988201686	17441.951034161	1.5	0.1
0.01	1	0.943785708001087	1	64	NA	35.0166953160006	0	0.27	0.27	1	11.2229846520022	12.1667703600033	"1"	17443.988201686	17441.951034161	1.5	0.1
0.01	1	0.735074511001585	1	64	NA	35.0166953160006	0	0.27	0.27	1	12.3915025599999	13.1265770710015	"1"	17443.988201686	17441.951034161	1.5	0.1
0.01	1	0.50423673700061	1	64	NA	35.0166953160006	0	0.27	0.27	1	13.3598188450014	13.864055582002	"1"	17443.988201686	17441.951034161	1.5	0.1
0.01	1	1.56837855000049	1	64	NA	35.0166953160006	0	0.27	0.27	1	14.0943995050002	15.6627780550007	"1"	17443.988201686	17441.951034161	1.5	0.1
0.01	1	0.00394976799725555	1	64	NA	35.0166953160006	0	0.27	0.27	1	15.8974094470032	15.9013592150004	"1"	17443.988201686	17441.951034161	1.5	0.1
0.01	1	0.444513738999376	1	64	NA	35.0166953160006	0	0.27	0.27	1	16.1311379520012	16.5756516910005	"1"	17443.988201686	17441.951034161	1.5	0.1
0.01	1	0.00463558200135594	1	64	NA	35.0166953160006	0	0.27	0.27	1	16.8156021380019	16.8202377200032	"1"	17443.988201686	17441.951034161	1.5	0.1
0.01	1	0.0708202659989183	1	64	NA	35.0166953160006	0	0.27	0.27	1	17.0493405570014	17.1201608230003	"1"	17443.988201686	17441.951034161	1.5	0.1
0.01	1	0.00399091500003124	1	64	NA	35.0166953160006	0	0.27	0.27	1	17.3497525300008	17.3537434450009	"1"	17443.988201686	17441.951034161	1.5	0.1
0.01	1	0.456394807999459	1	64	NA	35.0166953160006	0	0.27	0.27	1	17.5835829550015	18.0399777630009	"1"	17443.988201686	17441.951034161	1.5	0.1
0.01	1	0.506849331999547	1	64	NA	35.0166953160006	0	0.27	0.27	1	18.2680458270006	18.7748951590002	"1"	17443.988201686	17441.951034161	1.5	0.1
0.01	1	0.572124726000766	1	64	NA	35.0166953160006	0	0.27	0.27	1	19.002593915	19.5747186410008	"1"	17443.988201686	17441.951034161	1.5	0.1
0.01	1	0.410421891003352	1	64	NA	35.0166953160006	0	0.27	0.27	1	19.804047005	20.2144688960034	"1"	17443.988201686	17441.951034161	1.5	0.1
0.01	1	0.399157965999621	1	64	NA	35.0166953160006	0	0.27	0.27	1	20.4551376800009	20.8542956460005	"1"	17443.988201686	17441.951034161	1.5	0.1
0.01	1	0.341542225000012	1	64	NA	35.0166953160006	0	0.27	0.27	1	21.0894277250009	21.4309699500009	"1"	17443.988201686	17441.951034161	1.5	0.1
0.01	1	9.80538546800017	1	64	NA	35.0166953160006	0	0.27	0.27	1	21.6570247920026	31.4624102600028	"1"	17443.988201686	17441.951034161	1.5	0.1
0.01	1	3.32440980499814	2	64	NA	35.0166953160006	0	0.27	0.27	1	31.6905900250022	35.0149998300003	"1"	17443.988201686	17441.951034161	1.5	0.1
0.01	1	4.38187378499788	1	68	NA	90.5360389350026	0	0.38	0.65	1	37.0663419940029	41.4482157790007	"2"	17443.988201686	17441.951034161	1.5	0.1
0.01	1	0.597662661999493	1	68	NA	90.5360389350026	0	0.38	0.65	1	41.6742275900033	42.2718902520028	"2"	17443.988201686	17441.951034161	1.5	0.1
0.01	1	0.00475381700016442	1	68	NA	90.5360389350026	0	0.38	0.65	1	42.508882150003	42.5136359670032	"2"	17443.988201686	17441.951034161	1.5	0.1
0.01	1	1.17732688299657	1	68	NA	90.5360389350026	0	0.38	0.65	1	42.7426094400034	43.919936323	"2"	17443.988201686	17441.951034161	1.5	0.1
0.01	1	0.413973619000899	1	68	NA	90.5360389350026	0	0.38	0.65	1	44.1449466820013	44.5589203010022	"2"	17443.988201686	17441.951034161	1.5	0.1
0.01	1	2.52397615999871	1	68	NA	90.5360389350026	0	0.38	0.65	1	44.7959411600023	47.319917320001	"2"	17443.988201686	17441.951034161	1.5	0.1
0.01	1	0.271508956000616	1	68	NA	90.5360389350026	0	0.38	0.65	1	47.5507185070019	47.8222274630025	"2"	17443.988201686	17441.951034161	1.5	0.1
0.01	1	0.0996103129982657	1	68	NA	90.5360389350026	0	0.38	0.65	1	48.0514984300025	48.1511087430008	"2"	17443.988201686	17441.951034161	1.5	0.1
0.01	1	0.542243307998433	1	68	NA	90.5360389350026	0	0.38	0.65	1	48.3854170350023	48.9276603430008	"2"	17443.988201686	17441.951034161	1.5	0.1
0.01	1	0.00409470800150302	1	68	NA	90.5360389350026	0	0.38	0.65	1	49.1533313450018	49.1574260530033	"2"	17443.988201686	17441.951034161	1.5	0.1
0.01	1	0.548931256002106	1	68	NA	90.5360389350026	0	0.38	0.65	1	49.3870485650004	49.9359798210025	"2"	17443.988201686	17441.951034161	1.5	0.1
0.01	1	0.500126426999486	1	68	NA	90.5360389350026	0	0.38	0.65	1	50.1717253250026	50.6718517520021	"2"	17443.988201686	17441.951034161	1.5	0.1
0.01	1	0.300744379997923	1	68	NA	90.5360389350026	0	0.38	0.65	1	50.9061821250034	51.2069265050013	"2"	17443.988201686	17441.951034161	1.5	0.1
0.01	1	25.4311073280005	1	68	NA	90.5360389350026	0	0.38	0.65	1	51.4404843650009	76.8715916930014	"2"	17443.988201686	17441.951034161	1.5	0.1
0.01	1	0.434227260000625	1	68	NA	90.5360389350026	0	0.38	0.65	1	77.1003263230014	77.534553583002	"2"	17443.988201686	17441.951034161	1.5	0.1
0.01	1	0.0158374980019289	1	68	NA	90.5360389350026	0	0.38	0.65	1	77.7681825250002	77.7840200230021	"2"	17443.988201686	17441.951034161	1.5	0.1
0.01	1	0.00383390800197958	1	68	NA	90.5360389350026	0	0.38	0.65	1	78.0185502450004	78.0223841530023	"2"	17443.988201686	17441.951034161	1.5	0.1
0.01	1	1.23534270399978	1	68	NA	90.5360389350026	0	0.38	0.65	1	78.2523328370007	79.4876755410005	"2"	17443.988201686	17441.951034161	1.5	0.1
0.01	1	0.749215992997051	1	68	NA	90.5360389350026	0	0.38	0.65	1	79.7213811070033	80.4705971000003	"2"	17443.988201686	17441.951034161	1.5	0.1
0.01	1	1.21983422500125	1	68	NA	90.5360389350026	0	0.38	0.65	1	80.7064713250002	81.9263055500014	"2"	17443.988201686	17441.951034161	1.5	0.1
0.01	1	0.0039793579999241	1	68	NA	90.5360389350026	0	0.38	0.65	1	82.1588485870016	82.1628279450015	"2"	17443.988201686	17441.951034161	1.5	0.1
0.01	1	0.0547404600001755	1	68	NA	90.5360389350026	0	0.38	0.65	1	82.3926478650028	82.447388325003	"2"	17443.988201686	17441.951034161	1.5	0.1
0.01	1	0.00473331499961205	1	68	NA	90.5360389350026	0	0.38	0.65	1	82.6763553950004	82.68108871	"2"	17443.988201686	17441.951034161	1.5	0.1
0.01	1	0.272519789999933	1	68	NA	90.5360389350026	0	0.38	0.65	1	82.910222403003	83.1827421930029	"2"	17443.988201686	17441.951034161	1.5	0.1
0.01	1	0.00400180500218994	1	68	NA	90.5360389350026	0	0.38	0.65	1	83.4110029500007	83.4150047550029	"2"	17443.988201686	17441.951034161	1.5	0.1
0.01	1	0.481875593999575	1	68	NA	90.5360389350026	0	0.38	0.65	1	83.6446349530015	84.1265105470011	"2"	17443.988201686	17441.951034161	1.5	0.1
0.01	1	0.00400799199996982	1	68	NA	90.5360389350026	0	0.38	0.65	1	84.3625953450028	84.3666033370027	"2"	17443.988201686	17441.951034161	1.5	0.1
0.01	1	0.0836333339975681	1	68	NA	90.5360389350026	0	0.38	0.65	1	84.5963252800029	84.6799586140005	"2"	17443.988201686	17441.951034161	1.5	0.1
0.01	1	0.00450232300136122	1	68	NA	90.5360389350026	0	0.38	0.65	1	84.9135497770003	84.9180521000017	"2"	17443.988201686	17441.951034161	1.5	0.1
0.01	1	0.348550962000445	1	68	NA	90.5360389350026	0	0.38	0.65	1	85.1472799520016	85.495830914002	"2"	17443.988201686	17441.951034161	1.5	0.1
0.01	1	0.00396235299922409	1	68	NA	90.5360389350026	0	0.38	0.65	1	85.7314929600034	85.7354553130026	"2"	17443.988201686	17441.951034161	1.5	0.1
0.01	1	0.0665517870002077	1	68	NA	90.5360389350026	0	0.38	0.65	1	85.9652141350016	86.0317659220018	"2"	17443.988201686	17441.951034161	1.5	0.1
0.01	1	0.0039549060020363	1	68	NA	90.5360389350026	0	0.38	0.65	1	86.2658338350011	86.2697887410031	"2"	17443.988201686	17441.951034161	1.5	0.1
0.01	1	0.355505734001781	1	68	NA	90.5360389350026	0	0.38	0.65	1	86.4995227600011	86.8550284940029	"2"	17443.988201686	17441.951034161	1.5	0.1
0.01	1	0.00401806400259375	1	68	NA	90.5360389350026	0	0.38	0.65	1	87.0838482750005	87.0878663390031	"2"	17443.988201686	17441.951034161	1.5	0.1
0.01	1	0.0824360570004501	1	68	NA	90.5360389350026	0	0.38	0.65	1	87.3175102450004	87.3999463020009	"2"	17443.988201686	17441.951034161	1.5	0.1
0.01	1	0.00471662700147135	1	68	NA	90.5360389350026	0	0.38	0.65	1	87.6347037000014	87.6394203270029	"2"	17443.988201686	17441.951034161	1.5	0.1
0.01	1	1.69978686800096	1	68	NA	90.5360389350026	0	0.38	0.65	1	87.8684292620019	89.5682161300028	"2"	17443.988201686	17441.951034161	1.5	0.1
0.01	1	0.729279433999181	2	68	NA	90.5360389350026	0	0.38	0.65	1	89.8050637400011	90.5343431740002	"2"	17443.988201686	17441.951034161	1.5	0.1
0.01	1	0.71841224900345	1	33	101.661405520001	NA	1	0	0.65	1	92.593065342	93.3114775910035	"3"	17443.988201686	17441.951034161	1.5	0.1
0.01	1	0.00341822400150704	1	33	101.661405520001	NA	1	0	0.65	1	93.5446881370008	93.5481063610023	"3"	17443.988201686	17441.951034161	1.5	0.1
0.01	1	0.076505711000209	1	33	101.661405520001	NA	1	0	0.65	1	93.7783718999999	93.8548776110001	"3"	17443.988201686	17441.951034161	1.5	0.1
0.01	1	0.00400685999920825	1	33	101.661405520001	NA	1	0	0.65	1	94.078920785003	94.0829276450022	"3"	17443.988201686	17441.951034161	1.5	0.1
0.01	1	0.103131605999806	1	33	101.661405520001	NA	1	0	0.65	1	94.3126175350008	94.4157491410006	"3"	17443.988201686	17441.951034161	1.5	0.1
0.01	1	0.00452637499984121	1	33	101.661405520001	NA	1	0	0.65	1	94.6465083950025	94.6510347700023	"3"	17443.988201686	17441.951034161	1.5	0.1
0.01	1	0.087052050002967	1	33	101.661405520001	NA	1	0	0.65	1	94.8801536600004	94.9672057100033	"3"	17443.988201686	17441.951034161	1.5	0.1
0.01	1	0.00333539200073574	1	33	101.661405520001	NA	1	0	0.65	1	95.1974626430019	95.2007980350027	"3"	17443.988201686	17441.951034161	1.5	0.1
0.01	1	0.00213722400076222	1	33	101.661405520001	NA	1	0	0.65	1	95.4311542050018	95.4332914290026	"3"	17443.988201686	17441.951034161	1.5	0.1
0.01	1	0.00460622500031604	1	33	101.661405520001	NA	1	0	0.65	1	95.6648327200019	95.6694389450022	"3"	17443.988201686	17441.951034161	1.5	0.1
0.01	1	0.0844487980029953	1	33	101.661405520001	NA	1	0	0.65	1	95.8985834949999	95.9830322930029	"3"	17443.988201686	17441.951034161	1.5	0.1
0.01	1	0.00226455099982559	1	33	101.661405520001	NA	1	0	0.65	1	96.2158352050028	96.2180997560026	"3"	17443.988201686	17441.951034161	1.5	0.1
0.01	1	0.00219688400102314	1	33	101.661405520001	NA	1	0	0.65	1	96.4495106950017	96.4517075790027	"3"	17443.988201686	17441.951034161	1.5	0.1
0.01	1	0.100923930000135	1	33	101.661405520001	NA	1	0	0.65	1	96.6831952430002	96.7841191730004	"3"	17443.988201686	17441.951034161	1.5	0.1
0.01	1	0.00205799700052012	1	33	101.661405520001	NA	1	0	0.65	1	97.0171905230018	97.0192485200023	"3"	17443.988201686	17441.951034161	1.5	0.1
0.01	1	0.00420383299933746	1	33	101.661405520001	NA	1	0	0.65	1	97.2509020800026	97.2551059130019	"3"	17443.988201686	17441.951034161	1.5	0.1
0.01	1	0.122091422002995	1	33	101.661405520001	NA	1	0	0.65	1	97.4845950050003	97.6066864270033	"3"	17443.988201686	17441.951034161	1.5	0.1
0.01	1	0.00215868500163197	1	33	101.661405520001	NA	1	0	0.65	1	97.8352876850004	97.837446370002	"3"	17443.988201686	17441.951034161	1.5	0.1
0.01	1	0.00342363999880035	1	33	101.661405520001	NA	1	0	0.65	1	98.0688773950023	98.0723010350011	"3"	17443.988201686	17441.951034161	1.5	0.1
0.01	1	0.00466486699951929	1	33	101.661405520001	NA	1	0	0.65	1	98.3026400400013	98.3073049070008	"3"	17443.988201686	17441.951034161	1.5	0.1
0.01	1	0.0858084880019305	1	33	101.661405520001	NA	1	0	0.65	1	98.5364830170001	98.6222915050021	"3"	17443.988201686	17441.951034161	1.5	0.1
0.01	1	0.00967673000195646	1	33	101.661405520001	NA	1	0	0.65	1	98.8535017200011	98.863178450003	"3"	17443.988201686	17441.951034161	1.5	0.1
0.01	1	0.0236884240002837	1	33	101.661405520001	NA	1	0	0.65	1	99.0872706050031	99.1109590290034	"3"	17443.988201686	17441.951034161	1.5	0.1
0.01	1	0.00347894999868004	1	33	101.661405520001	NA	1	0	0.65	1	99.3377247730023	99.3412037230009	"3"	17443.988201686	17441.951034161	1.5	0.1
0.01	1	0.00210705700010294	1	33	101.661405520001	NA	1	0	0.65	1	99.5714926740002	99.5735997310003	"3"	17443.988201686	17441.951034161	1.5	0.1
0.01	1	0.00205506700149272	1	33	101.661405520001	NA	1	0	0.65	1	99.8051666350002	99.8072217020017	"3"	17443.988201686	17441.951034161	1.5	0.1
0.01	1	0.00397784300002968	1	33	101.661405520001	NA	1	0	0.65	1	100.038912040003	100.042889883003	"3"	17443.988201686	17441.951034161	1.5	0.1
0.01	1	0.0047167749980872	1	33	101.661405520001	NA	1	0	0.65	1	100.272620220003	100.277336995001	"3"	17443.988201686	17441.951034161	1.5	0.1
0.01	1	0.101428286001465	1	33	101.661405520001	NA	1	0	0.65	1	100.506529745002	100.607958031003	"3"	17443.988201686	17441.951034161	1.5	0.1
0.01	1	0.00461837700277101	1	33	101.661405520001	NA	1	0	0.65	1	100.840398295	100.845016672003	"3"	17443.988201686	17441.951034161	1.5	0.1
0.01	1	0.00211860700073885	1	33	101.661405520001	NA	1	0	0.65	1	101.073959835001	101.076078442002	"3"	17443.988201686	17441.951034161	1.5	0.1
0.01	1	0.00208345799910603	1	33	101.661405520001	NA	1	0	0.65	1	101.307662810003	101.309746268002	"3"	17443.988201686	17441.951034161	1.5	0.1
0.01	1	0.00481589500122936	1	33	101.661405520001	NA	1	0	0.65	1	101.541536495002	101.546352390003	"3"	17443.988201686	17441.951034161	1.5	0.1
0.01	1	0.256773968001653	1	105	NA	123.255820363003	0	0.5	1.15	1	103.711694115002	103.968468083003	"4"	17443.988201686	17441.951034161	1.5	0.1
0.01	1	0.00214150900137611	1	105	NA	123.255820363003	0	0.5	1.15	1	104.196007941002	104.198149450003	"4"	17443.988201686	17441.951034161	1.5	0.1
0.01	1	0.00398619000043254	1	105	NA	123.255820363003	0	0.5	1.15	1	104.429527067001	104.433513257001	"4"	17443.988201686	17441.951034161	1.5	0.1
0.01	1	0.0807772480002313	1	105	NA	123.255820363003	0	0.5	1.15	1	104.663402782	104.74418003	"4"	17443.988201686	17441.951034161	1.5	0.1
0.01	1	0.00211744099942734	1	105	NA	123.255820363003	0	0.5	1.15	1	104.980552734003	104.982670175003	"4"	17443.988201686	17441.951034161	1.5	0.1
0.01	1	0.12096351999935	1	105	NA	123.255820363003	0	0.5	1.15	1	105.214242640002	105.335206160002	"4"	17443.988201686	17441.951034161	1.5	0.1
0.01	1	0.00225180199777242	1	105	NA	123.255820363003	0	0.5	1.15	1	105.564852219002	105.567104021	"4"	17443.988201686	17441.951034161	1.5	0.1
0.01	1	0.00209619800079963	1	105	NA	123.255820363003	0	0.5	1.15	1	105.798582632	105.800678830001	"4"	17443.988201686	17441.951034161	1.5	0.1
0.01	1	0.00388777500120341	1	105	NA	123.255820363003	0	0.5	1.15	1	106.032369	106.036256775002	"4"	17443.988201686	17441.951034161	1.5	0.1
0.01	1	0.100327725001989	1	105	NA	123.255820363003	0	0.5	1.15	1	106.266084782001	106.366412507003	"4"	17443.988201686	17441.951034161	1.5	0.1
0.01	1	0.00232084500021301	1	105	NA	123.255820363003	0	0.5	1.15	1	106.599924483002	106.602245328002	"4"	17443.988201686	17441.951034161	1.5	0.1
0.01	1	0.00443791699944995	1	105	NA	123.255820363003	0	0.5	1.15	1	106.833606550001	106.838044467	"4"	17443.988201686	17441.951034161	1.5	0.1
0.01	1	0.0992692129984789	1	105	NA	123.255820363003	0	0.5	1.15	1	107.067347432003	107.166616645001	"4"	17443.988201686	17441.951034161	1.5	0.1
0.01	1	0.00392289500086918	1	105	NA	123.255820363003	0	0.5	1.15	1	107.401214360001	107.405137255002	"4"	17443.988201686	17441.951034161	1.5	0.1
0.01	1	0.00206175499988603	1	105	NA	123.255820363003	0	0.5	1.15	1	107.635040425001	107.637102180001	"4"	17443.988201686	17441.951034161	1.5	0.1
0.01	1	0.00465658499888377	1	105	NA	123.255820363003	0	0.5	1.15	1	107.868826240003	107.873482825002	"4"	17443.988201686	17441.951034161	1.5	0.1
0.01	1	0.00404124499982572	1	105	NA	123.255820363003	0	0.5	1.15	1	108.102526240003	108.106567485003	"4"	17443.988201686	17441.951034161	1.5	0.1
0.01	1	0.00405457799934084	1	105	NA	123.255820363003	0	0.5	1.15	1	108.336250117001	108.340304695001	"4"	17443.988201686	17441.951034161	1.5	0.1
0.01	1	0.00392087399814045	1	105	NA	123.255820363003	0	0.5	1.15	1	108.569945705003	108.573866579001	"4"	17443.988201686	17441.951034161	1.5	0.1
0.01	1	0.13240722199771	1	105	NA	123.255820363003	0	0.5	1.15	1	108.803736927002	108.936144149	"4"	17443.988201686	17441.951034161	1.5	0.1
0.01	1	0.00217727500057663	1	105	NA	123.255820363003	0	0.5	1.15	1	109.170950922002	109.173128197002	"4"	17443.988201686	17441.951034161	1.5	0.1
0.01	1	0.00208560000100988	1	105	NA	123.255820363003	0	0.5	1.15	1	109.404669471001	109.406755071002	"4"	17443.988201686	17441.951034161	1.5	0.1
0.01	1	0.953599966000183	1	105	NA	123.255820363003	0	0.5	1.15	1	109.638367527001	110.591967493001	"4"	17443.988201686	17441.951034161	1.5	0.1
0.01	1	0.296667768001498	1	105	NA	123.255820363003	0	0.5	1.15	1	110.823695575	111.120363343001	"4"	17443.988201686	17441.951034161	1.5	0.1
0.01	1	0.00208443399969838	1	105	NA	123.255820363003	0	0.5	1.15	1	111.358028139002	111.360112573002	"4"	17443.988201686	17441.951034161	1.5	0.1
0.01	1	0.00233048099835287	1	105	NA	123.255820363003	0	0.5	1.15	1	111.591586195002	111.593916676	"4"	17443.988201686	17441.951034161	1.5	0.1
0.01	1	0.00769792899882304	1	105	NA	123.255820363003	0	0.5	1.15	1	111.825446824001	111.833144753	"4"	17443.988201686	17441.951034161	1.5	0.1
0.01	1	0.22775419500249	1	105	NA	123.255820363003	0	0.5	1.15	1	112.0591513	112.286905495002	"4"	17443.988201686	17441.951034161	1.5	0.1
0.01	1	0.945242112000415	1	105	NA	123.255820363003	0	0.5	1.15	1	112.509974132001	113.455216244001	"4"	17443.988201686	17441.951034161	1.5	0.1
0.01	1	0.0023136079980759	1	105	NA	123.255820363003	0	0.5	1.15	1	113.695114395003	113.697428003001	"4"	17443.988201686	17441.951034161	1.5	0.1
0.01	1	0.0380389350029873	1	105	NA	123.255820363003	0	0.5	1.15	1	113.928968287	113.967007222003	"4"	17443.988201686	17441.951034161	1.5	0.1
0.01	1	0.0751677750013187	1	105	NA	123.255820363003	0	0.5	1.15	1	114.196083725001	114.271251500002	"4"	17443.988201686	17441.951034161	1.5	0.1
0.01	1	0.11824608200186	1	105	NA	123.255820363003	0	0.5	1.15	1	114.496629500001	114.614875582003	"4"	17443.988201686	17441.951034161	1.5	0.1
0.01	1	0.191632506001042	1	105	NA	123.255820363003	0	0.5	1.15	1	114.847225870002	115.038858376003	"4"	17443.988201686	17441.951034161	1.5	0.1
0.01	1	0.166126046999125	1	105	NA	123.255820363003	0	0.5	1.15	1	115.264490887002	115.430616934002	"4"	17443.988201686	17441.951034161	1.5	0.1
0.01	1	0.309456250000949	1	105	NA	123.255820363003	0	0.5	1.15	1	115.665234532	115.974690782001	"4"	17443.988201686	17441.951034161	1.5	0.1
0.01	1	0.0651191199976893	1	105	NA	123.255820363003	0	0.5	1.15	1	116.199505333003	116.264624453001	"4"	17443.988201686	17441.951034161	1.5	0.1
0.01	1	0.00206520699794055	1	105	NA	123.255820363003	0	0.5	1.15	1	116.499885308003	116.501950515001	"4"	17443.988201686	17441.951034161	1.5	0.1
0.01	1	0.121465551001165	1	105	NA	123.255820363003	0	0.5	1.15	1	116.733652700001	116.855118251002	"4"	17443.988201686	17441.951034161	1.5	0.1
0.01	1	0.251349508998828	1	105	NA	123.255820363003	0	0.5	1.15	1	117.084284235003	117.335633744002	"4"	17443.988201686	17441.951034161	1.5	0.1
0.01	1	1.56641423100154	1	105	NA	123.255820363003	0	0.5	1.15	1	117.568344855001	119.134759086002	"4"	17443.988201686	17441.951034161	1.5	0.1
0.01	1	0.403341785000521	1	105	NA	123.255820363003	0	0.5	1.15	1	119.371538380001	119.774880165001	"4"	17443.988201686	17441.951034161	1.5	0.1
0.01	1	0.153566863999004	1	105	NA	123.255820363003	0	0.5	1.15	1	120.005831927003	120.159398791002	"4"	17443.988201686	17441.951034161	1.5	0.1
0.01	1	0.130283200000122	1	105	NA	123.255820363003	0	0.5	1.15	1	120.389749881	120.520033081	"4"	17443.988201686	17441.951034161	1.5	0.1
0.01	1	0.2903722129995	1	105	NA	123.255820363003	0	0.5	1.15	1	120.75710631	121.047478523	"4"	17443.988201686	17441.951034161	1.5	0.1
0.01	1	0.0040280269968207	1	105	NA	123.255820363003	0	0.5	1.15	1	121.274552362003	121.278580389	"4"	17443.988201686	17441.951034161	1.5	0.1
0.01	1	0.003850622997561	1	105	NA	123.255820363003	0	0.5	1.15	1	121.508303502003	121.512154125001	"4"	17443.988201686	17441.951034161	1.5	0.1
0.01	1	0.3124068060024	1	105	NA	123.255820363003	0	0.5	1.15	1	121.74207593	122.054482736003	"4"	17443.988201686	17441.951034161	1.5	0.1
0.01	1	0.00280107999788015	1	105	NA	123.255820363003	0	0.5	1.15	1	122.276256111003	122.279057191001	"4"	17443.988201686	17441.951034161	1.5	0.1
0.01	1	0.00261185400086106	1	105	NA	123.255820363003	0	0.5	1.15	1	122.510030689002	122.512642543003	"4"	17443.988201686	17441.951034161	1.5	0.1
0.01	1	0.510485961996892	2	105	NA	123.255820363003	0	0.5	1.15	1	122.743723115003	123.254209077	"4"	17443.988201686	17441.951034161	1.5	0.1
0.01	1	0.00224347299808869	1	73	147.254610825003	NA	1	0	1.15	1	125.314802997003	125.317046470002	"5"	17443.988201686	17441.951034161	1.5	0.1
0.01	1	0.00214071400114335	1	73	147.254610825003	NA	1	0	1.15	1	125.548468541001	125.550609255002	"5"	17443.988201686	17441.951034161	1.5	0.1
0.01	1	0.00406652499805205	1	73	147.254610825003	NA	1	0	1.15	1	125.782158100003	125.786224625001	"5"	17443.988201686	17441.951034161	1.5	0.1
0.01	1	0.0706200979984715	1	73	147.254610825003	NA	1	0	1.15	1	126.015921249003	126.086541347002	"5"	17443.988201686	17441.951034161	1.5	0.1
0.01	1	0.00212399099837057	1	73	147.254610825003	NA	1	0	1.15	1	126.316457251003	126.318581242002	"5"	17443.988201686	17441.951034161	1.5	0.1
0.01	1	0.00395754100100021	1	73	147.254610825003	NA	1	0	1.15	1	126.550118372001	126.554075913002	"5"	17443.988201686	17441.951034161	1.5	0.1
0.01	1	0.0874367370015534	1	73	147.254610825003	NA	1	0	1.15	1	126.783920049002	126.871356786003	"5"	17443.988201686	17441.951034161	1.5	0.1
0.01	1	0.00224469299791963	1	73	147.254610825003	NA	1	0	1.15	1	127.101143221003	127.103387914001	"5"	17443.988201686	17441.951034161	1.5	0.1
0.01	1	0.00476296000124421	1	73	147.254610825003	NA	1	0	1.15	1	127.334974540001	127.339737500002	"5"	17443.988201686	17441.951034161	1.5	0.1
0.01	1	0.119549785002164	1	73	147.254610825003	NA	1	0	1.15	1	127.568540715001	127.688090500003	"5"	17443.988201686	17441.951034161	1.5	0.1
0.01	1	0.00473025199971744	1	73	147.254610825003	NA	1	0	1.15	1	127.919158343	127.923888595	"5"	17443.988201686	17441.951034161	1.5	0.1
0.01	1	0.00406766000014613	1	73	147.254610825003	NA	1	0	1.15	1	128.152894345003	128.156962005003	"5"	17443.988201686	17441.951034161	1.5	0.1
0.01	1	0.0771885100002692	1	73	147.254610825003	NA	1	0	1.15	1	128.386675365	128.463863875	"5"	17443.988201686	17441.951034161	1.5	0.1
0.01	1	0.00466612200034433	1	73	147.254610825003	NA	1	0	1.15	1	128.703712845003	128.708378967003	"5"	17443.988201686	17441.951034161	1.5	0.1
0.01	1	0.00360039200313622	1	73	147.254610825003	NA	1	0	1.15	1	128.937476125	128.941076517003	"5"	17443.988201686	17441.951034161	1.5	0.1
0.01	1	0.0040865480004868	1	73	147.254610825003	NA	1	0	1.15	1	129.171256765003	129.175343313003	"5"	17443.988201686	17441.951034161	1.5	0.1
0.01	1	0.00455347700335551	1	73	147.254610825003	NA	1	0	1.15	1	129.405075568	129.409629045003	"5"	17443.988201686	17441.951034161	1.5	0.1
0.01	1	0.00406828500126721	1	73	147.254610825003	NA	1	0	1.15	1	129.638628402001	129.642696687002	"5"	17443.988201686	17441.951034161	1.5	0.1
0.01	1	0.0380155750026461	1	73	147.254610825003	NA	1	0	1.15	1	129.872433352	129.910448927003	"5"	17443.988201686	17441.951034161	1.5	0.1
0.01	1	0.00246019300175249	1	73	147.254610825003	NA	1	0	1.15	1	130.139585959001	130.142046152003	"5"	17443.988201686	17441.951034161	1.5	0.1
0.01	1	0.00208455399842933	1	73	147.254610825003	NA	1	0	1.15	1	130.373215259002	130.375299813	"5"	17443.988201686	17441.951034161	1.5	0.1
0.01	1	0.00214181800038205	1	73	147.254610825003	NA	1	0	1.15	1	130.607026642003	130.609168460003	"5"	17443.988201686	17441.951034161	1.5	0.1
0.01	1	0.00410123199981172	1	73	147.254610825003	NA	1	0	1.15	1	130.840704995	130.844806227	"5"	17443.988201686	17441.951034161	1.5	0.1
0.01	1	0.00403458000073442	1	73	147.254610825003	NA	1	0	1.15	1	131.074439095002	131.078473675003	"5"	17443.988201686	17441.951034161	1.5	0.1
0.01	1	0.00419047799732652	1	73	147.254610825003	NA	1	0	1.15	1	131.308097783003	131.312288261001	"5"	17443.988201686	17441.951034161	1.5	0.1
0.01	1	0.13818581400119	1	73	147.254610825003	NA	1	0	1.15	1	131.541997495002	131.680183309003	"5"	17443.988201686	17441.951034161	1.5	0.1
0.01	1	0.00430782400144381	1	73	147.254610825003	NA	1	0	1.15	1	131.909148441002	131.913456265003	"5"	17443.988201686	17441.951034161	1.5	0.1
0.01	1	0.00403078300223569	1	73	147.254610825003	NA	1	0	1.15	1	132.142821112	132.146851895002	"5"	17443.988201686	17441.951034161	1.5	0.1
0.01	1	0.00399744399692281	1	73	147.254610825003	NA	1	0	1.15	1	132.376594905003	132.380592349	"5"	17443.988201686	17441.951034161	1.5	0.1
0.01	1	0.0119716020017222	1	73	147.254610825003	NA	1	0	1.15	1	132.610283827002	132.622255429003	"5"	17443.988201686	17441.951034161	1.5	0.1
0.01	1	0.00409454900000128	1	73	147.254610825003	NA	1	0	1.15	1	132.860791370003	132.864885919003	"5"	17443.988201686	17441.951034161	1.5	0.1
0.01	1	0.00467189499977394	1	73	147.254610825003	NA	1	0	1.15	1	133.094504640001	133.099176535001	"5"	17443.988201686	17441.951034161	1.5	0.1
0.01	1	0.00705452300098841	1	73	147.254610825003	NA	1	0	1.15	1	133.328211762	133.335266285001	"5"	17443.988201686	17441.951034161	1.5	0.1
0.01	1	0.00217449299816508	1	73	147.254610825003	NA	1	0	1.15	1	133.561903272002	133.564077765001	"5"	17443.988201686	17441.951034161	1.5	0.1
0.01	1	0.0118357529972855	1	73	147.254610825003	NA	1	0	1.15	1	133.795646592003	133.807482345001	"5"	17443.988201686	17441.951034161	1.5	0.1
0.01	1	0.00409061999744154	1	73	147.254610825003	NA	1	0	1.15	1	134.029347385003	134.033438005001	"5"	17443.988201686	17441.951034161	1.5	0.1
0.01	1	0.00210134499866399	1	73	147.254610825003	NA	1	0	1.15	1	134.263115339003	134.265216684002	"5"	17443.988201686	17441.951034161	1.5	0.1
0.01	1	0.0134090459978324	1	73	147.254610825003	NA	1	0	1.15	1	134.496896285003	134.510305331001	"5"	17443.988201686	17441.951034161	1.5	0.1
0.01	1	0.00214318199869012	1	73	147.254610825003	NA	1	0	1.15	1	134.747226751002	134.749369933001	"5"	17443.988201686	17441.951034161	1.5	0.1
0.01	1	0.00212183800249477	1	73	147.254610825003	NA	1	0	1.15	1	134.980988952	134.983110790003	"5"	17443.988201686	17441.951034161	1.5	0.1
0.01	1	0.00254676500117057	1	73	147.254610825003	NA	1	0	1.15	1	135.214647785	135.217194550001	"5"	17443.988201686	17441.951034161	1.5	0.1
0.01	1	0.0158382310000889	1	73	147.254610825003	NA	1	0	1.15	1	135.448576242001	135.464414473001	"5"	17443.988201686	17441.951034161	1.5	0.1
0.01	1	0.00223207100134459	1	73	147.254610825003	NA	1	0	1.15	1	135.698934250002	135.701166321003	"5"	17443.988201686	17441.951034161	1.5	0.1
0.01	1	0.00212180699963938	1	73	147.254610825003	NA	1	0	1.15	1	135.932675814001	135.934797621001	"5"	17443.988201686	17441.951034161	1.5	0.1
0.01	1	0.00265091900291736	1	73	147.254610825003	NA	1	0	1.15	1	136.166269727	136.168920646003	"5"	17443.988201686	17441.951034161	1.5	0.1
0.01	1	0.00731229200027883	1	73	147.254610825003	NA	1	0	1.15	1	136.400011105001	136.407323397001	"5"	17443.988201686	17441.951034161	1.5	0.1
0.01	1	0.141270659998554	1	73	147.254610825003	NA	1	0	1.15	1	136.633835455003	136.775106115001	"5"	17443.988201686	17441.951034161	1.5	0.1
0.01	1	0.0697813860024326	1	73	147.254610825003	NA	1	0	1.15	1	137.001097345001	137.070878731003	"5"	17443.988201686	17441.951034161	1.5	0.1
0.01	1	0.0978265779995127	1	73	147.254610825003	NA	1	0	1.15	1	137.301617270001	137.399443848	"5"	17443.988201686	17441.951034161	1.5	0.1
0.01	1	0.0596106029988732	1	73	147.254610825003	NA	1	0	1.15	1	137.635459340003	137.695069943002	"5"	17443.988201686	17441.951034161	1.5	0.1
0.01	1	0.104458511999837	1	73	147.254610825003	NA	1	0	1.15	1	137.919347247003	138.023805759003	"5"	17443.988201686	17441.951034161	1.5	0.1
0.01	1	0.0813702980012749	1	73	147.254610825003	NA	1	0	1.15	1	138.253256225002	138.334626523003	"5"	17443.988201686	17441.951034161	1.5	0.1
0.01	1	0.0776080620016728	1	73	147.254610825003	NA	1	0	1.15	1	138.570491400002	138.648099462003	"5"	17443.988201686	17441.951034161	1.5	0.1
0.01	1	0.0894604149980296	1	73	147.254610825003	NA	1	0	1.15	1	138.870919750003	138.960380165001	"5"	17443.988201686	17441.951034161	1.5	0.1
0.01	1	0.0903470789999119	1	73	147.254610825003	NA	1	0	1.15	1	139.188045480001	139.278392559001	"5"	17443.988201686	17441.951034161	1.5	0.1
0.01	1	0.101875068001391	1	73	147.254610825003	NA	1	0	1.15	1	139.505254804	139.607129872002	"5"	17443.988201686	17441.951034161	1.5	0.1
0.01	1	0.0874721180007327	1	73	147.254610825003	NA	1	0	1.15	1	139.839217335	139.926689453001	"5"	17443.988201686	17441.951034161	1.5	0.1
0.01	1	0.0747502409976732	1	73	147.254610825003	NA	1	0	1.15	1	140.156378252002	140.231128493	"5"	17443.988201686	17441.951034161	1.5	0.1
0.01	1	0.133687751000252	1	73	147.254610825003	NA	1	0	1.15	1	140.456859324	140.590547075	"5"	17443.988201686	17441.951034161	1.5	0.1
0.01	1	0.0224127199981012	1	73	147.254610825003	NA	1	0	1.15	1	140.824181579002	140.846594299001	"5"	17443.988201686	17441.951034161	1.5	0.1
0.01	1	0.109437150000304	1	73	147.254610825003	NA	1	0	1.15	1	141.074575532002	141.184012682003	"5"	17443.988201686	17441.951034161	1.5	0.1
0.01	1	0.133906513001421	1	73	147.254610825003	NA	1	0	1.15	1	141.40858549	141.542492003002	"5"	17443.988201686	17441.951034161	1.5	0.1
0.01	1	0.0725367939994612	1	73	147.254610825003	NA	1	0	1.15	1	141.775764235001	141.848301029	"5"	17443.988201686	17441.951034161	1.5	0.1
0.01	1	0.988056160000269	1	73	147.254610825003	NA	1	0	1.15	1	142.076219703002	143.064275863002	"5"	17443.988201686	17441.951034161	1.5	0.1
0.01	1	0.487355925000884	1	73	147.254610825003	NA	1	0	1.15	1	143.295090185002	143.782446110003	"5"	17443.988201686	17441.951034161	1.5	0.1
0.01	1	0.0657995719993778	1	73	147.254610825003	NA	1	0	1.15	1	144.012869485003	144.078669057002	"5"	17443.988201686	17441.951034161	1.5	0.1
0.01	1	0.0143385660012427	1	73	147.254610825003	NA	1	0	1.15	1	144.31334891	144.327687476001	"5"	17443.988201686	17441.951034161	1.5	0.1
0.01	1	0.0430115680028393	1	73	147.254610825003	NA	1	0	1.15	1	144.563830511001	144.606842079003	"5"	17443.988201686	17441.951034161	1.5	0.1
0.01	1	1.31966976399781	1	73	147.254610825003	NA	1	0	1.15	1	144.847552875002	146.167222639	"5"	17443.988201686	17441.951034161	1.5	0.1
0.01	1	0.0304524310013221	1	73	147.254610825003	NA	1	0	1.15	1	146.400286225002	146.430738656003	"5"	17443.988201686	17441.951034161	1.5	0.1
0.01	1	0.00211374400169007	1	73	147.254610825003	NA	1	0	1.15	1	146.667289475001	146.669403219003	"5"	17443.988201686	17441.951034161	1.5	0.1
0.01	1	0.0020360439993965	1	73	147.254610825003	NA	1	0	1.15	1	146.900995528002	146.903031572001	"5"	17443.988201686	17441.951034161	1.5	0.1
0.01	1	0.00273265900250408	1	73	147.254610825003	NA	1	0	1.15	1	147.134839431001	147.137572090003	"5"	17443.988201686	17441.951034161	1.5	0.1
0.01	1	0.423188017000939	1	45	163.06524349	NA	1	0	1.15	1	149.305049415001	149.728237432002	"6"	17443.988201686	17441.951034161	1.5	0.1
0.01	1	0.378242498998588	1	45	163.06524349	NA	1	0	1.15	1	149.956106782003	150.334349281002	"6"	17443.988201686	17441.951034161	1.5	0.1
0.01	1	0.416701587997522	1	45	163.06524349	NA	1	0	1.15	1	150.573928462003	150.990630050001	"6"	17443.988201686	17441.951034161	1.5	0.1
0.01	1	0.00460756800021045	1	45	163.06524349	NA	1	0	1.15	1	151.224965027002	151.229572595003	"6"	17443.988201686	17441.951034161	1.5	0.1
0.01	1	0.108380297002441	1	45	163.06524349	NA	1	0	1.15	1	151.4587431	151.567123397002	"6"	17443.988201686	17441.951034161	1.5	0.1
0.01	1	0.0780368330015335	1	45	163.06524349	NA	1	0	1.15	1	151.792566052001	151.870602885003	"6"	17443.988201686	17441.951034161	1.5	0.1
0.01	1	0.00426709100065636	1	45	163.06524349	NA	1	0	1.15	1	152.093039784002	152.097306875003	"6"	17443.988201686	17441.951034161	1.5	0.1
0.01	1	0.00255627799924696	1	45	163.06524349	NA	1	0	1.15	1	152.326762347002	152.329318625001	"6"	17443.988201686	17441.951034161	1.5	0.1
0.01	1	0.0041321290009364	1	45	163.06524349	NA	1	0	1.15	1	152.560623002002	152.564755131003	"6"	17443.988201686	17441.951034161	1.5	0.1
0.01	1	0.00468271000136156	1	45	163.06524349	NA	1	0	1.15	1	152.794227315	152.798910025002	"6"	17443.988201686	17441.951034161	1.5	0.1
0.01	1	0.178191964998405	1	45	163.06524349	NA	1	0	1.15	1	153.028113445002	153.20630541	"6"	17443.988201686	17441.951034161	1.5	0.1
0.01	1	0.0020760560000781	1	45	163.06524349	NA	1	0	1.15	1	153.445425813003	153.447501869003	"6"	17443.988201686	17441.951034161	1.5	0.1
0.01	1	0.023303654998017	1	45	163.06524349	NA	1	0	1.15	1	153.679042202002	153.702345857	"6"	17443.988201686	17441.951034161	1.5	0.1
0.01	1	0.00401876400064793	1	45	163.06524349	NA	1	0	1.15	1	153.929484745	153.933503509001	"6"	17443.988201686	17441.951034161	1.5	0.1
0.01	1	0.00276482099798159	1	45	163.06524349	NA	1	0	1.15	1	154.163342507003	154.166107328001	"6"	17443.988201686	17441.951034161	1.5	0.1
0.01	1	0.37088247200154	1	45	163.06524349	NA	1	0	1.15	1	154.396958140002	154.767840612003	"6"	17443.988201686	17441.951034161	1.5	0.1
0.01	1	0.00396975300100166	1	45	163.06524349	NA	1	0	1.15	1	154.998005112	155.001974865001	"6"	17443.988201686	17441.951034161	1.5	0.1
0.01	1	0.0958753449995129	1	45	163.06524349	NA	1	0	1.15	1	155.231656060001	155.327531405001	"6"	17443.988201686	17441.951034161	1.5	0.1
0.01	1	0.0730949230019178	1	45	163.06524349	NA	1	0	1.15	1	155.565623382001	155.638718305003	"6"	17443.988201686	17441.951034161	1.5	0.1
0.01	1	0.00399009099783143	1	45	163.06524349	NA	1	0	1.15	1	155.866049660002	155.870039751	"6"	17443.988201686	17441.951034161	1.5	0.1
0.01	1	0.00206374199842685	1	45	163.06524349	NA	1	0	1.15	1	156.099903591003	156.101967333001	"6"	17443.988201686	17441.951034161	1.5	0.1
0.01	1	0.00404353499834542	1	45	163.06524349	NA	1	0	1.15	1	156.333543350003	156.337586885002	"6"	17443.988201686	17441.951034161	1.5	0.1
0.01	1	0.0039604519988643	1	45	163.06524349	NA	1	0	1.15	1	156.567346105003	156.571306557002	"6"	17443.988201686	17441.951034161	1.5	0.1
0.01	1	0.00402009200115572	1	45	163.06524349	NA	1	0	1.15	1	156.800976407001	156.804996499002	"6"	17443.988201686	17441.951034161	1.5	0.1
0.01	1	0.00470256499829702	1	45	163.06524349	NA	1	0	1.15	1	157.034840400003	157.039542965002	"6"	17443.988201686	17441.951034161	1.5	0.1
0.01	1	0.211412616001326	1	45	163.06524349	NA	1	0	1.15	1	157.268453191002	157.479865807003	"6"	17443.988201686	17441.951034161	1.5	0.1
0.01	1	0.00462139699811814	1	45	163.06524349	NA	1	0	1.15	1	157.702673630003	157.707295027001	"6"	17443.988201686	17441.951034161	1.5	0.1
0.01	1	0.175633896000363	1	45	163.06524349	NA	1	0	1.15	1	157.936227147002	158.111861043002	"6"	17443.988201686	17441.951034161	1.5	0.1
0.01	1	0.221912453998812	1	45	163.06524349	NA	1	0	1.15	1	158.336990560001	158.558903014	"6"	17443.988201686	17441.951034161	1.5	0.1
0.01	1	0.0021682350015908	1	45	163.06524349	NA	1	0	1.15	1	158.78765998	158.789828215002	"6"	17443.988201686	17441.951034161	1.5	0.1
0.01	1	0.00398590300028445	1	45	163.06524349	NA	1	0	1.15	1	159.021484952002	159.025470855002	"6"	17443.988201686	17441.951034161	1.5	0.1
0.01	1	0.0487831190002908	1	45	163.06524349	NA	1	0	1.15	1	159.255242750001	159.304025869002	"6"	17443.988201686	17441.951034161	1.5	0.1
0.01	1	0.00402046200179029	1	45	163.06524349	NA	1	0	1.15	1	159.538881787001	159.542902249003	"6"	17443.988201686	17441.951034161	1.5	0.1
0.01	1	0.027313888000208	1	45	163.06524349	NA	1	0	1.15	1	159.772620412001	159.799934300001	"6"	17443.988201686	17441.951034161	1.5	0.1
0.01	1	0.00440377999984776	1	45	163.06524349	NA	1	0	1.15	1	160.023135487001	160.027539267001	"6"	17443.988201686	17441.951034161	1.5	0.1
0.01	1	0.0711211149973678	1	45	163.06524349	NA	1	0	1.15	1	160.256859585003	160.3279807	"6"	17443.988201686	17441.951034161	1.5	0.1
0.01	1	0.00478084499991382	1	45	163.06524349	NA	1	0	1.15	1	160.557354455002	160.562135300002	"6"	17443.988201686	17441.951034161	1.5	0.1
0.01	1	0.00252526400072384	1	45	163.06524349	NA	1	0	1.15	1	160.791025839	160.793551103001	"6"	17443.988201686	17441.951034161	1.5	0.1
0.01	1	0.00436275500032934	1	45	163.06524349	NA	1	0	1.15	1	161.024747085001	161.029109840001	"6"	17443.988201686	17441.951034161	1.5	0.1
0.01	1	0.0213332570019702	1	45	163.06524349	NA	1	0	1.15	1	161.258491542001	161.279824799003	"6"	17443.988201686	17441.951034161	1.5	0.1
0.01	1	0.00406866200137301	1	45	163.06524349	NA	1	0	1.15	1	161.508969727001	161.513038389003	"6"	17443.988201686	17441.951034161	1.5	0.1
0.01	1	0.00418926299971645	1	45	163.06524349	NA	1	0	1.15	1	161.742544162003	161.746733425003	"6"	17443.988201686	17441.951034161	1.5	0.1
0.01	1	0.381869329001347	1	45	163.06524349	NA	1	0	1.15	1	161.976392427001	162.358261756002	"6"	17443.988201686	17441.951034161	1.5	0.1
0.01	1	0.00211948799915262	1	45	163.06524349	NA	1	0	1.15	1	162.594061301003	162.596180789002	"6"	17443.988201686	17441.951034161	1.5	0.1
0.01	1	0.114694597999915	1	45	163.06524349	NA	1	0	1.15	1	162.827863347	162.942557945	"6"	17443.988201686	17441.951034161	1.5	0.1
0.01	1	0.00406928300071741	1	10	167.522144712002	NA	1	0	1.15	1	165.098349060001	165.102418343002	"7"	17443.988201686	17441.951034161	1.5	0.1
0.01	1	0.00425273400105652	1	10	167.522144712002	NA	1	0	1.15	1	165.332072231002	165.336324965003	"7"	17443.988201686	17441.951034161	1.5	0.1
0.01	1	0.113602748999256	1	10	167.522144712002	NA	1	0	1.15	1	165.565685851001	165.6792886	"7"	17443.988201686	17441.951034161	1.5	0.1
0.01	1	0.00311162800062448	1	10	167.522144712002	NA	1	0	1.15	1	165.916380809002	165.919492437002	"7"	17443.988201686	17441.951034161	1.5	0.1
0.01	1	0.003985740000644	1	10	167.522144712002	NA	1	0	1.15	1	166.150011835001	166.153997575002	"7"	17443.988201686	17441.951034161	1.5	0.1
0.01	1	0.00410194299911382	1	10	167.522144712002	NA	1	0	1.15	1	166.383802092001	166.387904035	"7"	17443.988201686	17441.951034161	1.5	0.1
0.01	1	0.0938399950027815	1	10	167.522144712002	NA	1	0	1.15	1	166.617543205	166.711383200003	"7"	17443.988201686	17441.951034161	1.5	0.1
0.01	1	0.00261555999895791	1	10	167.522144712002	NA	1	0	1.15	1	166.934706843003	166.937322403002	"7"	17443.988201686	17441.951034161	1.5	0.1
0.01	1	0.00205649499912397	1	10	167.522144712002	NA	1	0	1.15	1	167.168344974001	167.170401469	"7"	17443.988201686	17441.951034161	1.5	0.1
0.01	1	0.00383300500106998	1	10	167.522144712002	NA	1	0	1.15	1	167.402156730001	167.405989735002	"7"	17443.988201686	17441.951034161	1.5	0.1
0.01	1	0.00330289999692468	1	37	NA	175.152230789001	0	0.19	1.34	1	169.572446035003	169.575748935	"8"	17443.988201686	17441.951034161	1.5	0.1
0.01	1	0.00475123000069289	1	37	NA	175.152230789001	0	0.19	1.34	1	169.806275620002	169.811026850002	"8"	17443.988201686	17441.951034161	1.5	0.1
0.01	1	0.00476047499978449	1	37	NA	175.152230789001	0	0.19	1.34	1	170.039914325003	170.044674800003	"8"	17443.988201686	17441.951034161	1.5	0.1
0.01	1	0.0929329350001353	1	37	NA	175.152230789001	0	0.19	1.34	1	170.273671945	170.366604880001	"8"	17443.988201686	17441.951034161	1.5	0.1
0.01	1	0.0025306659990747	1	37	NA	175.152230789001	0	0.19	1.34	1	170.590899319002	170.593429985001	"8"	17443.988201686	17441.951034161	1.5	0.1
0.01	1	0.00209831999745802	1	37	NA	175.152230789001	0	0.19	1.34	1	170.824638370003	170.82673669	"8"	17443.988201686	17441.951034161	1.5	0.1
0.01	1	0.00459584300187998	1	37	NA	175.152230789001	0	0.19	1.34	1	171.058355967001	171.062951810003	"8"	17443.988201686	17441.951034161	1.5	0.1
0.01	1	0.00400220099982107	1	37	NA	175.152230789001	0	0.19	1.34	1	171.292084102002	171.296086303002	"8"	17443.988201686	17441.951034161	1.5	0.1
0.01	1	0.114361742998881	1	37	NA	175.152230789001	0	0.19	1.34	1	171.525778062001	171.640139805	"8"	17443.988201686	17441.951034161	1.5	0.1
0.01	1	0.00214669499837328	1	37	NA	175.152230789001	0	0.19	1.34	1	171.876364834003	171.878511529001	"8"	17443.988201686	17441.951034161	1.5	0.1
0.01	1	0.00387430900082109	1	37	NA	175.152230789001	0	0.19	1.34	1	172.110174402002	172.114048711002	"8"	17443.988201686	17441.951034161	1.5	0.1
0.01	1	0.104129059996922	1	37	NA	175.152230789001	0	0.19	1.34	1	172.343855402003	172.447984462	"8"	17443.988201686	17441.951034161	1.5	0.1
0.01	1	0.401461030000064	1	37	NA	175.152230789001	0	0.19	1.34	1	172.677637110002	173.079098140002	"8"	17443.988201686	17441.951034161	1.5	0.1
0.01	1	0.207112436997704	1	37	NA	175.152230789001	0	0.19	1.34	1	173.312038147003	173.519150584001	"8"	17443.988201686	17441.951034161	1.5	0.1
0.01	1	0.116259243000968	1	37	NA	175.152230789001	0	0.19	1.34	1	173.746201550002	173.862460793003	"8"	17443.988201686	17441.951034161	1.5	0.1
0.01	1	0.00463794200186385	1	37	NA	175.152230789001	0	0.19	1.34	1	174.096824945002	174.101462887003	"8"	17443.988201686	17441.951034161	1.5	0.1
0.01	1	0.0778009890018438	1	37	NA	175.152230789001	0	0.19	1.34	1	174.330493310001	174.408294299003	"8"	17443.988201686	17441.951034161	1.5	0.1
0.01	1	0.00545568999950774	1	37	NA	175.152230789001	0	0.19	1.34	1	174.630930615003	174.636386305003	"8"	17443.988201686	17441.951034161	1.5	0.1
0.01	1	0.00220135400013532	1	37	NA	175.152230789001	0	0.19	1.34	1	174.864781289001	174.866982643001	"8"	17443.988201686	17441.951034161	1.5	0.1
0.01	1	0.0521986599997035	2	37	NA	175.152230789001	0	0.19	1.34	1	175.098454405001	175.150653065	"8"	17443.988201686	17441.951034161	1.5	0.1
0.01	1	0.0222230589970422	1	108	NA	227.84828102	0	0.55	1.89	1	177.201951787003	177.224174846	"9"	17443.988201686	17441.951034161	1.5	0.1
0.01	1	0.00214489000063622	1	108	NA	227.84828102	0	0.55	1.89	1	177.452469732001	177.454614622002	"9"	17443.988201686	17441.951034161	1.5	0.1
0.01	1	0.113920779000182	1	108	NA	227.84828102	0	0.55	1.89	1	177.686070795	177.799991574	"9"	17443.988201686	17441.951034161	1.5	0.1
0.01	1	0.00371593599993503	1	108	NA	227.84828102	0	0.55	1.89	1	178.036705215003	178.040421151003	"9"	17443.988201686	17441.951034161	1.5	0.1
0.01	1	0.128025064001122	1	108	NA	227.84828102	0	0.55	1.89	1	178.27051953	178.398544594002	"9"	17443.988201686	17441.951034161	1.5	0.1
0.01	1	0.00250596600017161	1	108	NA	227.84828102	0	0.55	1.89	1	178.621032893003	178.623538859003	"9"	17443.988201686	17441.951034161	1.5	0.1
0.01	1	0.00212766099866712	1	108	NA	227.84828102	0	0.55	1.89	1	178.854796922002	178.856924583	"9"	17443.988201686	17441.951034161	1.5	0.1
0.01	1	0.00405378300274606	1	108	NA	227.84828102	0	0.55	1.89	1	179.088594712	179.092648495003	"9"	17443.988201686	17441.951034161	1.5	0.1
0.01	1	0.00406930800090777	1	108	NA	227.84828102	0	0.55	1.89	1	179.322254015002	179.326323323003	"9"	17443.988201686	17441.951034161	1.5	0.1
0.01	1	0.092063591000624	1	108	NA	227.84828102	0	0.55	1.89	1	179.556027500003	179.648091091003	"9"	17443.988201686	17441.951034161	1.5	0.1
0.01	1	0.00237637600002927	1	108	NA	227.84828102	0	0.55	1.89	1	179.873193489002	179.875569865002	"9"	17443.988201686	17441.951034161	1.5	0.1
0.01	1	0.021242409999104	1	108	NA	227.84828102	0	0.55	1.89	1	180.106849060001	180.12809147	"9"	17443.988201686	17441.951034161	1.5	0.1
0.01	1	0.201395265001338	1	108	NA	227.84828102	0	0.55	1.89	1	180.357249425	180.558644690002	"9"	17443.988201686	17441.951034161	1.5	0.1
0.01	1	0.280022618000658	1	108	NA	227.84828102	0	0.55	1.89	1	180.791295153002	181.071317771002	"9"	17443.988201686	17441.951034161	1.5	0.1
0.01	1	0.0825926750003418	1	108	NA	227.84828102	0	0.55	1.89	1	181.308950760002	181.391543435002	"9"	17443.988201686	17441.951034161	1.5	0.1
0.01	1	0.00470250000216765	1	108	NA	227.84828102	0	0.55	1.89	1	181.626179815001	181.630882315003	"9"	17443.988201686	17441.951034161	1.5	0.1
0.01	1	0.106670820001455	1	108	NA	227.84828102	0	0.55	1.89	1	181.859800860002	181.966471680003	"9"	17443.988201686	17441.951034161	1.5	0.1
0.01	1	0.00213385600000038	1	108	NA	227.84828102	0	0.55	1.89	1	182.193741315001	182.195875171001	"9"	17443.988201686	17441.951034161	1.5	0.1
0.01	1	0.0272657249988697	1	108	NA	227.84828102	0	0.55	1.89	1	182.427427500003	182.454693225001	"9"	17443.988201686	17441.951034161	1.5	0.1
0.01	1	0.00228352600242943	1	108	NA	227.84828102	0	0.55	1.89	1	182.677792061	182.680075587003	"9"	17443.988201686	17441.951034161	1.5	0.1
0.01	1	0.0956017860007705	1	108	NA	227.84828102	0	0.55	1.89	1	182.911574550002	183.007176336003	"9"	17443.988201686	17441.951034161	1.5	0.1
0.01	1	0.906327751999925	1	108	NA	227.84828102	0	0.55	1.89	1	183.245493232003	184.151820984003	"9"	17443.988201686	17441.951034161	1.5	0.1
0.01	1	0.00405131899970002	1	108	NA	227.84828102	0	0.55	1.89	1	184.380681270002	184.384732589002	"9"	17443.988201686	17441.951034161	1.5	0.1
0.01	1	0.161578193998139	1	108	NA	227.84828102	0	0.55	1.89	1	184.614503890003	184.776082084001	"9"	17443.988201686	17441.951034161	1.5	0.1
0.01	1	0.224735029001749	1	108	NA	227.84828102	0	0.55	1.89	1	184.998612955002	185.223347984003	"9"	17443.988201686	17441.951034161	1.5	0.1
0.01	1	0.00397007900028257	1	108	NA	227.84828102	0	0.55	1.89	1	185.449199072002	185.453169151002	"9"	17443.988201686	17441.951034161	1.5	0.1
0.01	1	0.101191817000654	1	108	NA	227.84828102	0	0.55	1.89	1	185.682954762	185.784146579001	"9"	17443.988201686	17441.951034161	1.5	0.1
0.01	1	0.110825689000194	1	108	NA	227.84828102	0	0.55	1.89	1	186.016871162003	186.127696851003	"9"	17443.988201686	17441.951034161	1.5	0.1
0.01	1	0.0045151749982324	1	108	NA	227.84828102	0	0.55	1.89	1	186.350798047002	186.355313222	"9"	17443.988201686	17441.951034161	1.5	0.1
0.01	1	0.0713016969966702	1	108	NA	227.84828102	0	0.55	1.89	1	186.584380015003	186.655681712	"9"	17443.988201686	17441.951034161	1.5	0.1
0.01	1	0.187305859999469	1	108	NA	227.84828102	0	0.55	1.89	1	186.885000515002	187.072306375001	"9"	17443.988201686	17441.951034161	1.5	0.1
0.01	1	0.00402901299821679	1	108	NA	227.84828102	0	0.55	1.89	1	187.302274422003	187.306303435002	"9"	17443.988201686	17441.951034161	1.5	0.1
0.01	1	0.0869729309997638	1	108	NA	227.84828102	0	0.55	1.89	1	187.536061922001	187.623034853001	"9"	17443.988201686	17441.951034161	1.5	0.1
0.01	1	5.2096749049997	1	108	NA	227.84828102	0	0.55	1.89	1	187.853277435002	193.062952340002	"9"	17443.988201686	17441.951034161	1.5	0.1
0.01	1	0.00387820399919292	1	108	NA	227.84828102	0	0.55	1.89	1	193.295742305003	193.299620509002	"9"	17443.988201686	17441.951034161	1.5	0.1
0.01	1	0.00399454400030663	1	108	NA	227.84828102	0	0.55	1.89	1	193.529493767001	193.533488311001	"9"	17443.988201686	17441.951034161	1.5	0.1
0.01	1	0.0919702739993227	1	108	NA	227.84828102	0	0.55	1.89	1	193.763202310001	193.855172584001	"9"	17443.988201686	17441.951034161	1.5	0.1
0.01	1	0.00217227499888395	1	108	NA	227.84828102	0	0.55	1.89	1	194.080493690002	194.082665965001	"9"	17443.988201686	17441.951034161	1.5	0.1
0.01	1	0.00216386499960208	1	108	NA	227.84828102	0	0.55	1.89	1	194.314137607002	194.316301472001	"9"	17443.988201686	17441.951034161	1.5	0.1
0.01	1	0.00473663700176985	1	108	NA	227.84828102	0	0.55	1.89	1	194.547950010001	194.552686647003	"9"	17443.988201686	17441.951034161	1.5	0.1
0.01	1	0.00402316800318658	1	108	NA	227.84828102	0	0.55	1.89	1	194.781547945	194.785571113003	"9"	17443.988201686	17441.951034161	1.5	0.1
0.01	1	0.616965377001179	1	108	NA	227.84828102	0	0.55	1.89	1	195.015311625	195.632277002002	"9"	17443.988201686	17441.951034161	1.5	0.1
0.01	1	0.236061225001322	1	108	NA	227.84828102	0	0.55	1.89	1	195.866739190002	196.102800415003	"9"	17443.988201686	17441.951034161	1.5	0.1
0.01	1	0.168974923999485	1	108	NA	227.84828102	0	0.55	1.89	1	196.334165261003	196.503140185003	"9"	17443.988201686	17441.951034161	1.5	0.1
0.01	1	14.8567808869993	1	108	NA	227.84828102	0	0.55	1.89	1	196.734865770002	211.591646657002	"9"	17443.988201686	17441.951034161	1.5	0.1
0.01	1	0.827801106999686	1	108	NA	227.84828102	0	0.55	1.89	1	211.826873955	212.654675062	"9"	17443.988201686	17441.951034161	1.5	0.1
0.01	1	0.257645932000742	1	108	NA	227.84828102	0	0.55	1.89	1	212.878613507	213.136259439001	"9"	17443.988201686	17441.951034161	1.5	0.1
0.01	1	0.00215293700239272	1	108	NA	227.84828102	0	0.55	1.89	1	213.362860425001	213.365013362003	"9"	17443.988201686	17441.951034161	1.5	0.1
0.01	1	4.04231593800068	1	108	NA	227.84828102	0	0.55	1.89	1	213.5965106	217.638826538001	"9"	17443.988201686	17441.951034161	1.5	0.1
0.01	1	0.873747890000232	1	108	NA	227.84828102	0	0.55	1.89	1	217.870304752003	218.744052642003	"9"	17443.988201686	17441.951034161	1.5	0.1
0.01	1	2.9398344830006	1	108	NA	227.84828102	0	0.55	1.89	1	218.972282140003	221.912116623003	"9"	17443.988201686	17441.951034161	1.5	0.1
0.01	1	1.50295870599803	1	108	NA	227.84828102	0	0.55	1.89	1	222.144166405003	223.647125111002	"9"	17443.988201686	17441.951034161	1.5	0.1
0.01	1	0.438209881001967	1	108	NA	227.84828102	0	0.55	1.89	1	223.88040573	224.318615611002	"9"	17443.988201686	17441.951034161	1.5	0.1
0.01	1	1.20215067200115	1	108	NA	227.84828102	0	0.55	1.89	1	224.548389955002	225.750540627003	"9"	17443.988201686	17441.951034161	1.5	0.1
0.01	1	1.15018788000089	1	108	NA	227.84828102	0	0.55	1.89	1	225.984040045001	227.134227925002	"9"	17443.988201686	17441.951034161	1.5	0.1
0.01	1	0.476995360000728	2	108	NA	227.84828102	0	0.55	1.89	1	227.369705397003	227.846700757003	"9"	17443.988201686	17441.951034161	1.5	0.1
0.01	1	22.9167462120022	1	18	264.917885803003	NA	1	0	1.89	1	229.890588415001	252.807334627003	"10"	17443.988201686	17441.951034161	1.5	0.1
0.01	1	0.0737546150012349	1	18	264.917885803003	NA	1	0	1.89	1	253.046266500001	253.120021115003	"10"	17443.988201686	17441.951034161	1.5	0.1
0.01	1	0.00384750500234077	1	18	264.917885803003	NA	1	0	1.89	1	253.346807162001	253.350654667003	"10"	17443.988201686	17441.951034161	1.5	0.1
0.01	1	0.0679717290004191	1	18	264.917885803003	NA	1	0	1.89	1	253.580339100001	253.648310829001	"10"	17443.988201686	17441.951034161	1.5	0.1
0.01	1	0.00216626600013115	1	18	264.917885803003	NA	1	0	1.89	1	253.880970979	253.883137245	"10"	17443.988201686	17441.951034161	1.5	0.1
0.01	1	1.44557529099984	1	18	264.917885803003	NA	1	0	1.89	1	254.114705461001	255.560280752001	"10"	17443.988201686	17441.951034161	1.5	0.1
0.01	1	6.10217250599817	1	18	264.917885803003	NA	1	0	1.89	1	255.784146780003	261.886319286001	"10"	17443.988201686	17441.951034161	1.5	0.1
0.01	1	0.00257364700155449	1	18	264.917885803003	NA	1	0	1.89	1	262.111439207001	262.114012854003	"10"	17443.988201686	17441.951034161	1.5	0.1
0.01	1	0.00212296999961836	1	18	264.917885803003	NA	1	0	1.89	1	262.345213305001	262.347336275001	"10"	17443.988201686	17441.951034161	1.5	0.1
0.01	1	0.0679862879987922	1	18	264.917885803003	NA	1	0	1.89	1	262.578928237002	262.646914525001	"10"	17443.988201686	17441.951034161	1.5	0.1
0.01	1	0.00406739900063258	1	18	264.917885803003	NA	1	0	1.89	1	262.879367180001	262.883434579002	"10"	17443.988201686	17441.951034161	1.5	0.1
0.01	1	0.0536703440011479	1	18	264.917885803003	NA	1	0	1.89	1	263.113126600001	263.166796944002	"10"	17443.988201686	17441.951034161	1.5	0.1
0.01	1	0.0986312410022947	1	18	264.917885803003	NA	1	0	1.89	1	263.396890655	263.495521896002	"10"	17443.988201686	17441.951034161	1.5	0.1
0.01	1	0.0677094849997957	1	18	264.917885803003	NA	1	0	1.89	1	263.730996645001	263.798706130001	"10"	17443.988201686	17441.951034161	1.5	0.1
0.01	1	0.00396136699782801	1	18	264.917885803003	NA	1	0	1.89	1	264.031454652002	264.035416019	"10"	17443.988201686	17441.951034161	1.5	0.1
0.01	1	0.0215591000014683	1	18	264.917885803003	NA	1	0	1.89	1	264.265163250002	264.286722350003	"10"	17443.988201686	17441.951034161	1.5	0.1
0.01	1	0.00407903599989368	1	18	264.917885803003	NA	1	0	1.89	1	264.515502867001	264.519581903001	"10"	17443.988201686	17441.951034161	1.5	0.1
0.01	1	0.0501662529968598	1	18	264.917885803003	NA	1	0	1.89	1	264.749194540003	264.799360793	"10"	17443.988201686	17441.951034161	1.5	0.1
0.01	1	0.00470228499762015	1	2	267.357111212001	NA	1	0	1.89	1	266.969632030003	266.974334315	"11"	17443.988201686	17441.951034161	1.5	0.1
0.01	1	0.0357916210014082	1	2	267.357111212001	NA	1	0	1.89	1	267.203393152002	267.239184773003	"11"	17443.988201686	17441.951034161	1.5	0.1
0.01	1	0.415779965002002	1	107	NA	313.240547313002	0	0.34	2.23	1	269.407064682	269.822844647002	"12"	17443.988201686	17441.951034161	1.5	0.1
0.01	1	0.0854546230002597	1	107	NA	313.240547313002	0	0.34	2.23	1	270.058127882003	270.143582505003	"12"	17443.988201686	17441.951034161	1.5	0.1
0.01	1	0.0882621790005942	1	107	NA	313.240547313002	0	0.34	2.23	1	270.375283000001	270.463545179002	"12"	17443.988201686	17441.951034161	1.5	0.1
0.01	1	0.0831009050016291	1	107	NA	313.240547313002	0	0.34	2.23	1	270.692489025001	270.775589930003	"12"	17443.988201686	17441.951034161	1.5	0.1
0.01	1	0.38980258599986	1	107	NA	313.240547313002	0	0.34	2.23	1	271.009737097003	271.399539683003	"12"	17443.988201686	17441.951034161	1.5	0.1
0.01	1	0.124627469998813	1	107	NA	313.240547313002	0	0.34	2.23	1	271.627512465002	271.752139935001	"12"	17443.988201686	17441.951034161	1.5	0.1
0.01	1	0.20645583499936	1	107	NA	313.240547313002	0	0.34	2.23	1	271.977932787002	272.184388622001	"12"	17443.988201686	17441.951034161	1.5	0.1
0.01	1	0.674873908999871	1	107	NA	313.240547313002	0	0.34	2.23	1	272.412099352001	273.086973261001	"12"	17443.988201686	17441.951034161	1.5	0.1
0.01	1	0.196969384000113	1	107	NA	313.240547313002	0	0.34	2.23	1	273.313588970002	273.510558354003	"12"	17443.988201686	17441.951034161	1.5	0.1
0.01	1	0.130889304000448	1	107	NA	313.240547313002	0	0.34	2.23	1	273.747718005001	273.878607309001	"12"	17443.988201686	17441.951034161	1.5	0.1
0.01	1	0.132648666000023	1	107	NA	313.240547313002	0	0.34	2.23	1	274.115071435001	274.247720101001	"12"	17443.988201686	17441.951034161	1.5	0.1
0.01	1	0.0845721259975107	1	107	NA	313.240547313002	0	0.34	2.23	1	274.482200715003	274.566772841001	"12"	17443.988201686	17441.951034161	1.5	0.1
0.01	1	0.295539426999312	1	107	NA	313.240547313002	0	0.34	2.23	1	274.799382960002	275.094922387001	"12"	17443.988201686	17441.951034161	1.5	0.1
0.01	1	0.234841482000775	1	107	NA	313.240547313002	0	0.34	2.23	1	275.316933955	275.551775437001	"12"	17443.988201686	17441.951034161	1.5	0.1
0.01	1	1.43027662999884	1	107	NA	313.240547313002	0	0.34	2.23	1	275.784444862002	277.214721492001	"12"	17443.988201686	17441.951034161	1.5	0.1
0.01	1	0.00212112100052764	1	107	NA	313.240547313002	0	0.34	2.23	1	277.454003429	277.456124550001	"12"	17443.988201686	17441.951034161	1.5	0.1
0.01	1	1.84709626600306	1	107	NA	313.240547313002	0	0.34	2.23	1	277.687698505	279.534794771003	"12"	17443.988201686	17441.951034161	1.5	0.1
0.01	1	0.00204214399855118	1	107	NA	313.240547313002	0	0.34	2.23	1	279.757765558003	279.759807702001	"12"	17443.988201686	17441.951034161	1.5	0.1
0.01	1	11.776264311	1	107	NA	313.240547313002	0	0.34	2.23	1	279.991595060001	291.767859371001	"12"	17443.988201686	17441.951034161	1.5	0.1
0.01	1	0.31530770000245	1	107	NA	313.240547313002	0	0.34	2.23	1	291.995031552	292.310339252002	"12"	17443.988201686	17441.951034161	1.5	0.1
0.01	1	0.00228201799836825	1	107	NA	313.240547313002	0	0.34	2.23	1	292.546007117002	292.548289135	"12"	17443.988201686	17441.951034161	1.5	0.1
0.01	1	7.62791449799988	1	107	NA	313.240547313002	0	0.34	2.23	1	292.779621282003	300.407535780003	"12"	17443.988201686	17441.951034161	1.5	0.1
0.01	1	0.259443457998714	1	107	NA	313.240547313002	0	0.34	2.23	1	300.642918420002	300.902361878001	"12"	17443.988201686	17441.951034161	1.5	0.1
0.01	1	0.119530031999602	1	107	NA	313.240547313002	0	0.34	2.23	1	301.127015883001	301.246545915001	"12"	17443.988201686	17441.951034161	1.5	0.1
0.01	1	0.106232780999562	1	107	NA	313.240547313002	0	0.34	2.23	1	301.477574190001	301.583806971001	"12"	17443.988201686	17441.951034161	1.5	0.1
0.01	1	5.19610136499978	1	107	NA	313.240547313002	0	0.34	2.23	1	301.811589920002	307.007691285002	"12"	17443.988201686	17441.951034161	1.5	0.1
0.01	1	0.00512446500215447	1	107	NA	313.240547313002	0	0.34	2.23	1	307.237276380001	307.242400845003	"12"	17443.988201686	17441.951034161	1.5	0.1
0.01	1	0.345137987998896	1	107	NA	313.240547313002	0	0.34	2.23	1	307.471107242003	307.816245230002	"12"	17443.988201686	17441.951034161	1.5	0.1
0.01	1	0.224268650003069	1	107	NA	313.240547313002	0	0.34	2.23	1	308.055312172	308.279580822003	"12"	17443.988201686	17441.951034161	1.5	0.1
0.01	1	1.78044328200122	1	107	NA	313.240547313002	0	0.34	2.23	1	308.506096915	310.286540197001	"12"	17443.988201686	17441.951034161	1.5	0.1
0.01	1	0.234041758001695	1	107	NA	313.240547313002	0	0.34	2.23	1	310.509494662001	310.743536420003	"12"	17443.988201686	17441.951034161	1.5	0.1
0.01	1	0.00222368399772677	1	107	NA	313.240547313002	0	0.34	2.23	1	310.976961840002	310.979185524	"12"	17443.988201686	17441.951034161	1.5	0.1
0.01	1	1.10851793300026	1	107	NA	313.240547313002	0	0.34	2.23	1	311.210672637	312.319190570001	"12"	17443.988201686	17441.951034161	1.5	0.1
0.01	1	0.285576758000389	1	107	NA	313.240547313002	0	0.34	2.23	1	312.546321092002	312.831897850003	"12"	17443.988201686	17441.951034161	1.5	0.1
0.01	1	0.175171743001556	2	107	NA	313.240547313002	0	0.34	2.23	1	313.06380136	313.238973103002	"12"	17443.988201686	17441.951034161	1.5	0.1
0.01	1	0.00213147300019045	1	119	NA	344.800912282	0	0.63	2.86	1	315.28415363	315.286285103	"13"	17443.988201686	17441.951034161	1.5	0.1
0.01	1	0.090091879999818	1	119	NA	344.800912282	0	0.63	2.86	1	315.517897370002	315.607989250002	"13"	17443.988201686	17441.951034161	1.5	0.1
0.01	1	0.00213973599966266	1	119	NA	344.800912282	0	0.63	2.86	1	315.835142716001	315.837282452001	"13"	17443.988201686	17441.951034161	1.5	0.1
0.01	1	0.0908871000028739	1	119	NA	344.800912282	0	0.63	2.86	1	316.06897742	316.159864520003	"13"	17443.988201686	17441.951034161	1.5	0.1
0.01	1	0.00396909799746936	1	119	NA	344.800912282	0	0.63	2.86	1	316.386006455003	316.389975553	"13"	17443.988201686	17441.951034161	1.5	0.1
0.01	1	0.0359817140015366	1	119	NA	344.800912282	0	0.63	2.86	1	316.619683205001	316.655664919002	"13"	17443.988201686	17441.951034161	1.5	0.1
0.01	1	0.0039262449972739	1	119	NA	344.800912282	0	0.63	2.86	1	316.886952800003	316.890879045	"13"	17443.988201686	17441.951034161	1.5	0.1
0.01	1	0.023536350003269	1	119	NA	344.800912282	0	0.63	2.86	1	317.120658263	317.144194613003	"13"	17443.988201686	17441.951034161	1.5	0.1
0.01	1	0.00399912899956689	1	119	NA	344.800912282	0	0.63	2.86	1	317.371008040001	317.375007169001	"13"	17443.988201686	17441.951034161	1.5	0.1
0.01	1	0.0657322330007446	1	119	NA	344.800912282	0	0.63	2.86	1	317.604680740002	317.670412973002	"13"	17443.988201686	17441.951034161	1.5	0.1
0.01	1	0.00342850800007	1	119	NA	344.800912282	0	0.63	2.86	1	317.905204897001	317.908633405001	"13"	17443.988201686	17441.951034161	1.5	0.1
0.01	1	0.0595559989997128	1	119	NA	344.800912282	0	0.63	2.86	1	318.138987712002	318.198543711002	"13"	17443.988201686	17441.951034161	1.5	0.1
0.01	1	5.44053248100317	1	119	NA	344.800912282	0	0.63	2.86	1	318.439453682	323.879986163003	"13"	17443.988201686	17441.951034161	1.5	0.1
0.01	1	1.20346751499892	1	119	NA	344.800912282	0	0.63	2.86	1	324.115701147002	325.319168662001	"13"	17443.988201686	17441.951034161	1.5	0.1
0.01	1	0.207987190002314	1	119	NA	344.800912282	0	0.63	2.86	1	325.551496582	325.759483772003	"13"	17443.988201686	17441.951034161	1.5	0.1
0.01	1	0.150335103000543	1	119	NA	344.800912282	0	0.63	2.86	1	325.985533392002	326.135868495003	"13"	17443.988201686	17441.951034161	1.5	0.1
0.01	1	0.00470311000026413	1	119	NA	344.800912282	0	0.63	2.86	1	326.369552022003	326.374255132003	"13"	17443.988201686	17441.951034161	1.5	0.1
0.01	1	0.0352488520002225	1	119	NA	344.800912282	0	0.63	2.86	1	326.603159295002	326.638408147002	"13"	17443.988201686	17441.951034161	1.5	0.1
0.01	1	0.0975778029969661	1	119	NA	344.800912282	0	0.63	2.86	1	326.870322207003	326.96790001	"13"	17443.988201686	17441.951034161	1.5	0.1
0.01	1	0.00214937599957921	1	119	NA	344.800912282	0	0.63	2.86	1	327.204305019	327.206454395	"13"	17443.988201686	17441.951034161	1.5	0.1
0.01	1	0.0422131220002484	1	119	NA	344.800912282	0	0.63	2.86	1	327.438023542003	327.480236664003	"13"	17443.988201686	17441.951034161	1.5	0.1
0.01	1	0.0039435010003217	1	119	NA	344.800912282	0	0.63	2.86	1	327.705096942002	327.709040443002	"13"	17443.988201686	17441.951034161	1.5	0.1
0.01	1	0.0444092840007215	1	119	NA	344.800912282	0	0.63	2.86	1	327.938852327003	327.983261611003	"13"	17443.988201686	17441.951034161	1.5	0.1
0.01	1	0.00412027499987744	1	119	NA	344.800912282	0	0.63	2.86	1	328.205909602002	328.210029877002	"13"	17443.988201686	17441.951034161	1.5	0.1
0.01	1	0.478898700999707	1	119	NA	344.800912282	0	0.63	2.86	1	328.439679370003	328.918578071003	"13"	17443.988201686	17441.951034161	1.5	0.1
0.01	1	0.105960667002364	1	119	NA	344.800912282	0	0.63	2.86	1	329.140810457	329.246771124002	"13"	17443.988201686	17441.951034161	1.5	0.1
0.01	1	0.0999065629985125	1	119	NA	344.800912282	0	0.63	2.86	1	329.474731540002	329.574638103	"13"	17443.988201686	17441.951034161	1.5	0.1
0.01	1	1.89404533299967	1	119	NA	344.800912282	0	0.63	2.86	1	329.808684408003	331.702729741002	"13"	17443.988201686	17441.951034161	1.5	0.1
0.01	1	0.00413998399744742	1	119	NA	344.800912282	0	0.63	2.86	1	331.928781125003	331.932921109001	"13"	17443.988201686	17441.951034161	1.5	0.1
0.01	1	0.036757915000635	1	119	NA	344.800912282	0	0.63	2.86	1	332.162543167	332.199301082001	"13"	17443.988201686	17441.951034161	1.5	0.1
0.01	1	0.320836065002368	1	119	NA	344.800912282	0	0.63	2.86	1	332.429649768001	332.750485833003	"13"	17443.988201686	17441.951034161	1.5	0.1
0.01	1	0.00455727199732792	1	119	NA	344.800912282	0	0.63	2.86	1	332.980619895003	332.985177167	"13"	17443.988201686	17441.951034161	1.5	0.1
0.01	1	0.296835735000059	1	119	NA	344.800912282	0	0.63	2.86	1	333.214280335003	333.511116070003	"13"	17443.988201686	17441.951034161	1.5	0.1
0.01	1	0.289930440001626	1	119	NA	344.800912282	0	0.63	2.86	1	333.74856367	334.038494110002	"13"	17443.988201686	17441.951034161	1.5	0.1
0.01	1	0.228172257000551	1	119	NA	344.800912282	0	0.63	2.86	1	334.266225905001	334.494398162002	"13"	17443.988201686	17441.951034161	1.5	0.1
0.01	1	0.00474560000293422	1	119	NA	344.800912282	0	0.63	2.86	1	334.716874455	334.721620055003	"13"	17443.988201686	17441.951034161	1.5	0.1
0.01	1	0.0490186720016936	1	119	NA	344.800912282	0	0.63	2.86	1	334.950568927001	334.999587599003	"13"	17443.988201686	17441.951034161	1.5	0.1
0.01	1	0.00222742999903858	1	119	NA	344.800912282	0	0.63	2.86	1	335.234392835002	335.236620265001	"13"	17443.988201686	17441.951034161	1.5	0.1
0.01	1	0.00469048200102407	1	119	NA	344.800912282	0	0.63	2.86	1	335.468250205002	335.472940687003	"13"	17443.988201686	17441.951034161	1.5	0.1
0.01	1	0.153960838000785	1	119	NA	344.800912282	0	0.63	2.86	1	335.701797935002	335.855758773003	"13"	17443.988201686	17441.951034161	1.5	0.1
0.01	1	0.00258797700007563	1	119	NA	344.800912282	0	0.63	2.86	1	336.085786073003	336.088374050003	"13"	17443.988201686	17441.951034161	1.5	0.1
0.01	1	0.00207035299899871	1	119	NA	344.800912282	0	0.63	2.86	1	336.319618335001	336.321688688	"13"	17443.988201686	17441.951034161	1.5	0.1
0.01	1	0.0703124029969331	1	119	NA	344.800912282	0	0.63	2.86	1	336.553333090003	336.623645493	"13"	17443.988201686	17441.951034161	1.5	0.1
0.01	1	0.0725471730002027	1	119	NA	344.800912282	0	0.63	2.86	1	336.85380244	336.926349613001	"13"	17443.988201686	17441.951034161	1.5	0.1
0.01	1	0.00207520099866088	1	119	NA	344.800912282	0	0.63	2.86	1	337.154286166002	337.156361367	"13"	17443.988201686	17441.951034161	1.5	0.1
0.01	1	0.00469114700172213	1	119	NA	344.800912282	0	0.63	2.86	1	337.388056960001	337.392748107002	"13"	17443.988201686	17441.951034161	1.5	0.1
0.01	1	0.0898693650015048	1	119	NA	344.800912282	0	0.63	2.86	1	337.621805235001	337.711674600003	"13"	17443.988201686	17441.951034161	1.5	0.1
0.01	1	0.00354184399839141	1	119	NA	344.800912282	0	0.63	2.86	1	337.938861649003	337.942403493002	"13"	17443.988201686	17441.951034161	1.5	0.1
0.01	1	0.11472872000013	1	119	NA	344.800912282	0	0.63	2.86	1	338.172664312002	338.287393032002	"13"	17443.988201686	17441.951034161	1.5	0.1
0.01	1	0.548745099000371	1	119	NA	344.800912282	0	0.63	2.86	1	338.523230090002	339.071975189003	"13"	17443.988201686	17441.951034161	1.5	0.1
0.01	1	0.098225994999666	1	119	NA	344.800912282	0	0.63	2.86	1	339.307939985003	339.406165980003	"13"	17443.988201686	17441.951034161	1.5	0.1
0.01	1	0.00432829499914078	1	119	NA	344.800912282	0	0.63	2.86	1	339.641764614003	339.646092909003	"13"	17443.988201686	17441.951034161	1.5	0.1
0.01	1	1.26678568400166	1	119	NA	344.800912282	0	0.63	2.86	1	339.875460218002	341.142245902003	"13"	17443.988201686	17441.951034161	1.5	0.1
0.01	1	0.26893773700067	1	119	NA	344.800912282	0	0.63	2.86	1	341.378037620001	341.646975357002	"13"	17443.988201686	17441.951034161	1.5	0.1
0.01	1	0.0047190799996315	1	119	NA	344.800912282	0	0.63	2.86	1	341.879028865002	341.883747945001	"13"	17443.988201686	17441.951034161	1.5	0.1
0.01	1	0.0224343380032224	1	119	NA	344.800912282	0	0.63	2.86	1	342.11269215	342.135126488003	"13"	17443.988201686	17441.951034161	1.5	0.1
0.01	1	0.00390196399894194	1	119	NA	344.800912282	0	0.63	2.86	1	342.363054905003	342.366956869002	"13"	17443.988201686	17441.951034161	1.5	0.1
0.01	1	0.0181466229987564	1	119	NA	344.800912282	0	0.63	2.86	1	342.596827222002	342.614973845	"13"	17443.988201686	17441.951034161	1.5	0.1
0.01	1	0.00464711699896725	1	119	NA	344.800912282	0	0.63	2.86	1	342.847161745001	342.851808862	"13"	17443.988201686	17441.951034161	1.5	0.1
0.01	1	0.00404737599819782	1	119	NA	344.800912282	0	0.63	2.86	1	343.080854007003	343.084901383001	"13"	17443.988201686	17441.951034161	1.5	0.1
0.01	1	0.0837352060007106	1	119	NA	344.800912282	0	0.63	2.86	1	343.314680210002	343.398415416003	"13"	17443.988201686	17441.951034161	1.5	0.1
0.01	1	0.0880272389986203	1	119	NA	344.800912282	0	0.63	2.86	1	343.631836210003	343.719863449001	"13"	17443.988201686	17441.951034161	1.5	0.1
0.01	1	0.00401918900024612	1	119	NA	344.800912282	0	0.63	2.86	1	343.949071810002	343.953090999003	"13"	17443.988201686	17441.951034161	1.5	0.1
0.01	1	0.616579702000308	2	119	NA	344.800912282	0	0.63	2.86	1	344.182734990001	344.799314692002	"13"	17443.988201686	17441.951034161	1.5	0.1
0.01	1	0.323107928001264	1	71	373.835542607001	NA	1	0	2.86	1	346.837235512001	347.160343440002	"14"	17443.988201686	17441.951034161	1.5	0.1
0.01	1	0.0903383869990648	1	71	373.835542607001	NA	1	0	2.86	1	347.388120752003	347.478459139002	"14"	17443.988201686	17441.951034161	1.5	0.1
0.01	1	0.00207149500056403	1	71	373.835542607001	NA	1	0	2.86	1	347.705364737001	347.707436232002	"14"	17443.988201686	17441.951034161	1.5	0.1
0.01	1	0.108986130002449	1	71	373.835542607001	NA	1	0	2.86	1	347.93907905	348.048065180003	"14"	17443.988201686	17441.951034161	1.5	0.1
0.01	1	0.00385070500124129	1	71	373.835542607001	NA	1	0	2.86	1	348.272975652002	348.276826357003	"14"	17443.988201686	17441.951034161	1.5	0.1
0.01	1	0.0775975719989219	1	71	373.835542607001	NA	1	0	2.86	1	348.506675665001	348.584273237	"14"	17443.988201686	17441.951034161	1.5	0.1
0.01	1	0.00438256800043746	1	71	373.835542607001	NA	1	0	2.86	1	348.807256167001	348.811638735002	"14"	17443.988201686	17441.951034161	1.5	0.1
0.01	1	0.0020579310003086	1	71	373.835542607001	NA	1	0	2.86	1	349.040909884003	349.042967815003	"14"	17443.988201686	17441.951034161	1.5	0.1
0.01	1	0.0773426050000126	1	71	373.835542607001	NA	1	0	2.86	1	349.274689915001	349.352032520001	"14"	17443.988201686	17441.951034161	1.5	0.1
0.01	1	0.00208666300022742	1	71	373.835542607001	NA	1	0	2.86	1	349.575198873001	349.577285536001	"14"	17443.988201686	17441.951034161	1.5	0.1
0.01	1	0.00401407499884954	1	71	373.835542607001	NA	1	0	2.86	1	349.808850590001	349.812864665	"14"	17443.988201686	17441.951034161	1.5	0.1
0.01	1	0.108609937997244	1	71	373.835542607001	NA	1	0	2.86	1	350.042496617003	350.151106555	"14"	17443.988201686	17441.951034161	1.5	0.1
0.01	1	0.00212659599856124	1	71	373.835542607001	NA	1	0	2.86	1	350.376573075002	350.378699671001	"14"	17443.988201686	17441.951034161	1.5	0.1
0.01	1	0.00409554699945147	1	71	373.835542607001	NA	1	0	2.86	1	350.610306182003	350.614401729003	"14"	17443.988201686	17441.951034161	1.5	0.1
0.01	1	0.0583610630019393	1	71	373.835542607001	NA	1	0	2.86	1	350.84398913	350.902350193002	"14"	17443.988201686	17441.951034161	1.5	0.1
0.01	1	0.00258711500282516	1	71	373.835542607001	NA	1	0	2.86	1	351.127696673	351.130283788003	"14"	17443.988201686	17441.951034161	1.5	0.1
0.01	1	0.00210032999893883	1	71	373.835542607001	NA	1	0	2.86	1	351.361465983002	351.363566313001	"14"	17443.988201686	17441.951034161	1.5	0.1
0.01	1	0.132784729998093	1	71	373.835542607001	NA	1	0	2.86	1	351.595221940002	351.72800667	"14"	17443.988201686	17441.951034161	1.5	0.1
0.01	1	0.00412508299996261	1	71	373.835542607001	NA	1	0	2.86	1	351.96259354	351.966718623	"14"	17443.988201686	17441.951034161	1.5	0.1
0.01	1	0.131342263000988	1	71	373.835542607001	NA	1	0	2.86	1	352.196300682001	352.327642945002	"14"	17443.988201686	17441.951034161	1.5	0.1
0.01	1	0.00211971900353092	1	71	373.835542607001	NA	1	0	2.86	1	352.56356513	352.565684849003	"14"	17443.988201686	17441.951034161	1.5	0.1
0.01	1	0.00409676400158787	1	71	373.835542607001	NA	1	0	2.86	1	352.797293665	352.801390429002	"14"	17443.988201686	17441.951034161	1.5	0.1
0.01	1	0.096576047999406	1	71	373.835542607001	NA	1	0	2.86	1	353.030959522002	353.127535570002	"14"	17443.988201686	17441.951034161	1.5	0.1
0.01	1	0.00209649099997478	1	71	373.835542607001	NA	1	0	2.86	1	353.364821593001	353.366918084001	"14"	17443.988201686	17441.951034161	1.5	0.1
0.01	1	0.00214866099850042	1	71	373.835542607001	NA	1	0	2.86	1	353.598742990001	353.600891651	"14"	17443.988201686	17441.951034161	1.5	0.1
0.01	1	0.00470828999823425	1	71	373.835542607001	NA	1	0	2.86	1	353.832551955002	353.837260245	"14"	17443.988201686	17441.951034161	1.5	0.1
0.01	1	0.00396510400241823	1	71	373.835542607001	NA	1	0	2.86	1	354.066164295	354.070129399002	"14"	17443.988201686	17441.951034161	1.5	0.1
0.01	1	0.00399010399996769	1	71	373.835542607001	NA	1	0	2.86	1	354.299718587001	354.303708691001	"14"	17443.988201686	17441.951034161	1.5	0.1
0.01	1	0.00211215899980743	1	71	373.835542607001	NA	1	0	2.86	1	354.533499834	354.535611993	"14"	17443.988201686	17441.951034161	1.5	0.1
0.01	1	0.00445413399938843	1	71	373.835542607001	NA	1	0	2.86	1	354.767246111001	354.771700245001	"14"	17443.988201686	17441.951034161	1.5	0.1
0.01	1	0.109956997999689	1	71	373.835542607001	NA	1	0	2.86	1	355.000930642003	355.110887640003	"14"	17443.988201686	17441.951034161	1.5	0.1
0.01	1	0.00477424999917275	1	71	373.835542607001	NA	1	0	2.86	1	355.334893495001	355.339667745	"14"	17443.988201686	17441.951034161	1.5	0.1
0.01	1	0.00392117299998063	1	71	373.835542607001	NA	1	0	2.86	1	355.568662462003	355.572583635003	"14"	17443.988201686	17441.951034161	1.5	0.1
0.01	1	0.00399471899800119	1	71	373.835542607001	NA	1	0	2.86	1	355.802312800002	355.806307519	"14"	17443.988201686	17441.951034161	1.5	0.1
0.01	1	0.00472168999840505	1	71	373.835542607001	NA	1	0	2.86	1	356.036078370002	356.04080006	"14"	17443.988201686	17441.951034161	1.5	0.1
0.01	1	0.13033122699926	1	71	373.835542607001	NA	1	0	2.86	1	356.269714744001	356.400045971001	"14"	17443.988201686	17441.951034161	1.5	0.1
0.01	1	0.00212151400046423	1	71	373.835542607001	NA	1	0	2.86	1	356.637108216	356.639229730001	"14"	17443.988201686	17441.951034161	1.5	0.1
0.01	1	0.00467073500112747	1	71	373.835542607001	NA	1	0	2.86	1	356.870834590001	356.875505325002	"14"	17443.988201686	17441.951034161	1.5	0.1
0.01	1	0.00212231300247367	1	71	373.835542607001	NA	1	0	2.86	1	357.104440346	357.106562659003	"14"	17443.988201686	17441.951034161	1.5	0.1
0.01	1	0.00463549900086946	1	71	373.835542607001	NA	1	0	2.86	1	357.338270193002	357.342905692003	"14"	17443.988201686	17441.951034161	1.5	0.1
0.01	1	0.0913774399996328	1	71	373.835542607001	NA	1	0	2.86	1	357.571931510003	357.663308950003	"14"	17443.988201686	17441.951034161	1.5	0.1
0.01	1	0.00215678200038383	1	71	373.835542607001	NA	1	0	2.86	1	357.889165520002	357.891322302003	"14"	17443.988201686	17441.951034161	1.5	0.1
0.01	1	0.00476275500113843	1	71	373.835542607001	NA	1	0	2.86	1	358.122933535	358.127696290001	"14"	17443.988201686	17441.951034161	1.5	0.1
0.01	1	0.00468923199878191	1	71	373.835542607001	NA	1	0	2.86	1	358.356622910003	358.361312142002	"14"	17443.988201686	17441.951034161	1.5	0.1
0.01	1	0.00397480199899292	1	71	373.835542607001	NA	1	0	2.86	1	358.590369475001	358.594344277	"14"	17443.988201686	17441.951034161	1.5	0.1
0.01	1	0.095248639001511	1	71	373.835542607001	NA	1	0	2.86	1	358.824013022	358.919261661002	"14"	17443.988201686	17441.951034161	1.5	0.1
0.01	1	0.0021022590008215	1	71	373.835542607001	NA	1	0	2.86	1	359.141276831	359.143379090001	"14"	17443.988201686	17441.951034161	1.5	0.1
0.01	1	0.00211201399724814	1	71	373.835542607001	NA	1	0	2.86	1	359.374964379003	359.377076393001	"14"	17443.988201686	17441.951034161	1.5	0.1
0.01	1	0.310884065002028	1	71	373.835542607001	NA	1	0	2.86	1	359.608655715001	359.919539780003	"14"	17443.988201686	17441.951034161	1.5	0.1
0.01	1	0.0020958020031685	1	71	373.835542607001	NA	1	0	2.86	1	360.142934362	360.145030164003	"14"	17443.988201686	17441.951034161	1.5	0.1
0.01	1	0.0863910279986158	1	71	373.835542607001	NA	1	0	2.86	1	360.376701675003	360.463092703001	"14"	17443.988201686	17441.951034161	1.5	0.1
0.01	1	0.152790815998742	1	71	373.835542607001	NA	1	0	2.86	1	360.693909385001	360.846700201	"14"	17443.988201686	17441.951034161	1.5	0.1
0.01	1	0.00211936800042167	1	71	373.835542607001	NA	1	0	2.86	1	361.077775353002	361.079894721002	"14"	17443.988201686	17441.951034161	1.5	0.1
0.01	1	0.00462572199830902	1	71	373.835542607001	NA	1	0	2.86	1	361.311798985003	361.316424707002	"14"	17443.988201686	17441.951034161	1.5	0.1
0.01	1	0.0698512119997758	1	71	373.835542607001	NA	1	0	2.86	1	361.545355389	361.615206601	"14"	17443.988201686	17441.951034161	1.5	0.1
0.01	1	0.00227503999849432	1	71	373.835542607001	NA	1	0	2.86	1	361.845814643002	361.848089683001	"14"	17443.988201686	17441.951034161	1.5	0.1
0.01	1	0.00346468599673244	1	71	373.835542607001	NA	1	0	2.86	1	362.079515553003	362.082980239	"14"	17443.988201686	17441.951034161	1.5	0.1
0.01	1	0.0937486469993019	1	71	373.835542607001	NA	1	0	2.86	1	362.313247100003	362.406995747002	"14"	17443.988201686	17441.951034161	1.5	0.1
0.01	1	0.00244063999707578	1	71	373.835542607001	NA	1	0	2.86	1	362.630529003003	362.632969643	"14"	17443.988201686	17441.951034161	1.5	0.1
0.01	1	0.00214279500141856	1	71	373.835542607001	NA	1	0	2.86	1	362.864218760002	362.866361555003	"14"	17443.988201686	17441.951034161	1.5	0.1
0.01	1	0.101950824999221	1	71	373.835542607001	NA	1	0	2.86	1	363.097904795002	363.199855620001	"14"	17443.988201686	17441.951034161	1.5	0.1
0.01	1	0.0047073800014914	1	71	373.835542607001	NA	1	0	2.86	1	363.431895865	363.436603245002	"14"	17443.988201686	17441.951034161	1.5	0.1
0.01	1	0.0770952330021828	1	71	373.835542607001	NA	1	0	2.86	1	363.665529587	363.742624820003	"14"	17443.988201686	17441.951034161	1.5	0.1
0.01	1	0.00393564900150523	1	71	373.835542607001	NA	1	0	2.86	1	363.96601462	363.969950269002	"14"	17443.988201686	17441.951034161	1.5	0.1
0.01	1	0.112011343997438	1	71	373.835542607001	NA	1	0	2.86	1	364.199710235003	364.311721579001	"14"	17443.988201686	17441.951034161	1.5	0.1
0.01	1	0.177929863002646	1	71	373.835542607001	NA	1	0	2.86	1	364.53364116	364.711571023003	"14"	17443.988201686	17441.951034161	1.5	0.1
0.01	1	0.00391712700002245	1	71	373.835542607001	NA	1	0	2.86	1	364.93429583	364.938212957	"14"	17443.988201686	17441.951034161	1.5	0.1
0.01	1	0.014120798001386	1	71	373.835542607001	NA	1	0	2.86	1	365.168081945001	365.182202743003	"14"	17443.988201686	17441.951034161	1.5	0.1
0.01	1	7.70891536900308	1	71	373.835542607001	NA	1	0	2.86	1	365.418457992	373.127373361003	"14"	17443.988201686	17441.951034161	1.5	0.1
0.01	1	0.122829604002618	1	71	373.835542607001	NA	1	0	2.86	1	373.365191270001	373.488020874003	"14"	17443.988201686	17441.951034161	1.5	0.1
0.01	1	0.0039243239989446	1	71	373.835542607001	NA	1	0	2.86	1	373.715741815002	373.719666139001	"14"	17443.988201686	17441.951034161	1.5	0.1
0.01	1	0.0809809060010593	1	32	384.069441952	NA	1	0	2.86	1	375.869313498002	375.950294404003	"15"	17443.988201686	17441.951034161	1.5	0.1
0.01	1	0.00204384900280274	1	32	384.069441952	NA	1	0	2.86	1	376.186667127	376.188710976003	"15"	17443.988201686	17441.951034161	1.5	0.1
0.01	1	0.00478844699682668	1	32	384.069441952	NA	1	0	2.86	1	376.420284335003	376.425072782	"15"	17443.988201686	17441.951034161	1.5	0.1
0.01	1	0.0886467439995613	1	32	384.069441952	NA	1	0	2.86	1	376.654053740003	376.742700484003	"15"	17443.988201686	17441.951034161	1.5	0.1
0.01	1	0.00205832899882807	1	32	384.069441952	NA	1	0	2.86	1	376.971238113001	376.973296442	"15"	17443.988201686	17441.951034161	1.5	0.1
0.01	1	0.00205481499870075	1	32	384.069441952	NA	1	0	2.86	1	377.204933649002	377.206988464	"15"	17443.988201686	17441.951034161	1.5	0.1
0.01	1	0.00470164000216755	1	32	384.069441952	NA	1	0	2.86	1	377.43867702	377.443378660002	"15"	17443.988201686	17441.951034161	1.5	0.1
0.01	1	0.03096038899821	1	32	384.069441952	NA	1	0	2.86	1	377.672459715002	377.703420104001	"15"	17443.988201686	17441.951034161	1.5	0.1
0.01	1	0.00385509500119952	1	32	384.069441952	NA	1	0	2.86	1	377.939544632001	377.943399727003	"15"	17443.988201686	17441.951034161	1.5	0.1
0.01	1	0.00395351000042865	1	32	384.069441952	NA	1	0	2.86	1	378.173195935	378.177149445	"15"	17443.988201686	17441.951034161	1.5	0.1
0.01	1	0.00399967300108983	1	32	384.069441952	NA	1	0	2.86	1	378.406985042002	378.410984715003	"15"	17443.988201686	17441.951034161	1.5	0.1
0.01	1	0.0544048180017853	1	32	384.069441952	NA	1	0	2.86	1	378.640750055001	378.695154873003	"15"	17443.988201686	17441.951034161	1.5	0.1
0.01	1	0.00474301500071306	1	32	384.069441952	NA	1	0	2.86	1	378.924486650001	378.929229665002	"15"	17443.988201686	17441.951034161	1.5	0.1
0.01	1	0.0723636870025075	1	32	384.069441952	NA	1	0	2.86	1	379.158296392001	379.230660079003	"15"	17443.988201686	17441.951034161	1.5	0.1
0.01	1	0.00225796199811157	1	32	384.069441952	NA	1	0	2.86	1	379.458805837003	379.461063799001	"15"	17443.988201686	17441.951034161	1.5	0.1
0.01	1	0.0499361619986303	1	32	384.069441952	NA	1	0	2.86	1	379.692395371003	379.742331533002	"15"	17443.988201686	17441.951034161	1.5	0.1
0.01	1	0.167936159999954	1	32	384.069441952	NA	1	0	2.86	1	379.976334162002	380.144270322002	"15"	17443.988201686	17441.951034161	1.5	0.1
0.01	1	0.109955001000344	1	32	384.069441952	NA	1	0	2.86	1	380.376903710003	380.486858711003	"15"	17443.988201686	17441.951034161	1.5	0.1
0.01	1	0.00407030000133091	1	32	384.069441952	NA	1	0	2.86	1	380.710764635001	380.714834935003	"15"	17443.988201686	17441.951034161	1.5	0.1
0.01	1	0.00402630999815301	1	32	384.069441952	NA	1	0	2.86	1	380.944619295002	380.948645605	"15"	17443.988201686	17441.951034161	1.5	0.1
0.01	1	0.0447943850012962	1	32	384.069441952	NA	1	0	2.86	1	381.178280160002	381.223074545003	"15"	17443.988201686	17441.951034161	1.5	0.1
0.01	1	0.002197628000431	1	32	384.069441952	NA	1	0	2.86	1	381.445483462001	381.447681090001	"15"	17443.988201686	17441.951034161	1.5	0.1
0.01	1	0.00465175399949658	1	32	384.069441952	NA	1	0	2.86	1	381.679100818001	381.683752572	"15"	17443.988201686	17441.951034161	1.5	0.1
0.01	1	0.0858765150005638	1	32	384.069441952	NA	1	0	2.86	1	381.912881620003	381.998758135003	"15"	17443.988201686	17441.951034161	1.5	0.1
0.01	1	0.00227793799786014	1	32	384.069441952	NA	1	0	2.86	1	382.230068003002	382.232345941	"15"	17443.988201686	17441.951034161	1.5	0.1
0.01	1	0.00462208899989491	1	32	384.069441952	NA	1	0	2.86	1	382.463748601003	382.468370690003	"15"	17443.988201686	17441.951034161	1.5	0.1
0.01	1	0.0861002819983696	1	32	384.069441952	NA	1	0	2.86	1	382.697467393002	382.783567675	"15"	17443.988201686	17441.951034161	1.5	0.1
0.01	1	0.00969469600022421	1	32	384.069441952	NA	1	0	2.86	1	383.014641247002	383.024335943002	"15"	17443.988201686	17441.951034161	1.5	0.1
0.01	1	0.00204093499996816	1	32	384.069441952	NA	1	0	2.86	1	383.248434915	383.25047585	"15"	17443.988201686	17441.951034161	1.5	0.1
0.01	1	0.00205771699984325	1	32	384.069441952	NA	1	0	2.86	1	383.482228863002	383.484286580002	"15"	17443.988201686	17441.951034161	1.5	0.1
0.01	1	0.00440844199692947	1	32	384.069441952	NA	1	0	2.86	1	383.716027510003	383.720435952	"15"	17443.988201686	17441.951034161	1.5	0.1
0.01	1	0.00208539699815447	1	32	384.069441952	NA	1	0	2.86	1	383.949663424002	383.951748821	"15"	17443.988201686	17441.951034161	1.5	0.1
0.01	1	0.00393739300125162	1	7	387.959835877002	NA	1	0	2.86	1	386.10328395	386.107221343002	"16"	17443.988201686	17441.951034161	1.5	0.1
0.01	1	0.094709528999374	1	7	387.959835877002	NA	1	0	2.86	1	386.337039255002	386.431748784002	"16"	17443.988201686	17441.951034161	1.5	0.1
0.01	1	0.00204747899988433	1	7	387.959835877002	NA	1	0	2.86	1	386.654225325001	386.656272804001	"16"	17443.988201686	17441.951034161	1.5	0.1
0.01	1	0.00456131299870322	1	7	387.959835877002	NA	1	0	2.86	1	386.887931987003	386.892493300002	"16"	17443.988201686	17441.951034161	1.5	0.1
0.01	1	0.0133425260028162	1	7	387.959835877002	NA	1	0	2.86	1	387.121610815	387.134953341003	"16"	17443.988201686	17441.951034161	1.5	0.1
0.01	1	0.243472324000322	1	7	387.959835877002	NA	1	0	2.86	1	387.371964150003	387.615436474003	"16"	17443.988201686	17441.951034161	1.5	0.1
0.01	1	0.00389953200283344	1	7	387.959835877002	NA	1	0	2.86	1	387.839537525	387.843437057003	"16"	17443.988201686	17441.951034161	1.5	0.1
0.01	1	0.00402162899990799	1	49	407.909639840003	NA	1	0	2.86	1	390.009742022001	390.013763651001	"17"	17443.988201686	17441.951034161	1.5	0.1
0.01	1	0.00390301500010537	1	49	407.909639840003	NA	1	0	2.86	1	390.243584110001	390.247487125001	"17"	17443.988201686	17441.951034161	1.5	0.1
0.01	1	0.0350356090020796	1	49	407.909639840003	NA	1	0	2.86	1	390.477233827001	390.512269436003	"17"	17443.988201686	17441.951034161	1.5	0.1
0.01	1	0.00401939299990772	1	49	407.909639840003	NA	1	0	2.86	1	390.744305302003	390.748324695003	"17"	17443.988201686	17441.951034161	1.5	0.1
0.01	1	0.0931860599994252	1	49	407.909639840003	NA	1	0	2.86	1	390.978084202001	391.071270262	"17"	17443.988201686	17441.951034161	1.5	0.1
0.01	1	0.00443319799887831	1	49	407.909639840003	NA	1	0	2.86	1	391.295350485001	391.299783683	"17"	17443.988201686	17441.951034161	1.5	0.1
0.01	1	0.00472300199908204	1	49	407.909639840003	NA	1	0	2.86	1	391.528975030003	391.533698032003	"17"	17443.988201686	17441.951034161	1.5	0.1
0.01	1	0.0839006749993132	1	49	407.909639840003	NA	1	0	2.86	1	391.762855345001	391.846756020001	"17"	17443.988201686	17441.951034161	1.5	0.1
0.01	1	0.00213285000063479	1	49	407.909639840003	NA	1	0	2.86	1	392.079974035001	392.082106885002	"17"	17443.988201686	17441.951034161	1.5	0.1
0.01	1	0.102125950001209	1	49	407.909639840003	NA	1	0	2.86	1	392.313649240001	392.415775190002	"17"	17443.988201686	17441.951034161	1.5	0.1
0.01	1	0.00403057100265869	1	49	407.909639840003	NA	1	0	2.86	1	392.647673272	392.651703843003	"17"	17443.988201686	17441.951034161	1.5	0.1
0.01	1	0.101102573000389	1	49	407.909639840003	NA	1	0	2.86	1	392.88127754	392.982380113001	"17"	17443.988201686	17441.951034161	1.5	0.1
0.01	1	0.00468988000284298	1	49	407.909639840003	NA	1	0	2.86	1	393.21515014	393.219840020003	"17"	17443.988201686	17441.951034161	1.5	0.1
0.01	1	0.00407270899813739	1	49	407.909639840003	NA	1	0	2.86	1	393.448914530003	393.452987239001	"17"	17443.988201686	17441.951034161	1.5	0.1
0.01	1	1.0136371990011	1	49	407.909639840003	NA	1	0	2.86	1	393.682704171002	394.696341370003	"17"	17443.988201686	17441.951034161	1.5	0.1
0.01	1	0.145276093000575	1	49	407.909639840003	NA	1	0	2.86	1	394.934792210002	395.080068303003	"17"	17443.988201686	17441.951034161	1.5	0.1
0.01	1	0.0039409839992004	1	49	407.909639840003	NA	1	0	2.86	1	395.301976555002	395.305917539001	"17"	17443.988201686	17441.951034161	1.5	0.1
0.01	1	0.0032576119992882	1	49	407.909639840003	NA	1	0	2.86	1	395.535780911003	395.539038523002	"17"	17443.988201686	17441.951034161	1.5	0.1
0.01	1	0.630855413000972	1	49	407.909639840003	NA	1	0	2.86	1	395.769496495002	396.400351908003	"17"	17443.988201686	17441.951034161	1.5	0.1
0.01	1	0.712920781999856	1	49	407.909639840003	NA	1	0	2.86	1	396.63763655	397.350557332	"17"	17443.988201686	17441.951034161	1.5	0.1
0.01	1	0.00414911999905598	1	49	407.909639840003	NA	1	0	2.86	1	397.572454685003	397.576603805002	"17"	17443.988201686	17441.951034161	1.5	0.1
0.01	1	0.00308578199837939	1	49	407.909639840003	NA	1	0	2.86	1	397.806242911003	397.809328693002	"17"	17443.988201686	17441.951034161	1.5	0.1
0.01	1	0.391739262999181	1	49	407.909639840003	NA	1	0	2.86	1	398.039997210002	398.431736473001	"17"	17443.988201686	17441.951034161	1.5	0.1
0.01	1	0.365518639999209	1	49	407.909639840003	NA	1	0	2.86	1	398.657722055003	399.023240695002	"17"	17443.988201686	17441.951034161	1.5	0.1
0.01	1	0.00296714499927475	1	49	407.909639840003	NA	1	0	2.86	1	399.258757055002	399.261724200001	"17"	17443.988201686	17441.951034161	1.5	0.1
0.01	1	0.00460011500035762	1	49	407.909639840003	NA	1	0	2.86	1	399.492520510001	399.497120625001	"17"	17443.988201686	17441.951034161	1.5	0.1
0.01	1	0.192239567997603	1	49	407.909639840003	NA	1	0	2.86	1	399.726223183003	399.918462751	"17"	17443.988201686	17441.951034161	1.5	0.1
0.01	1	0.519833639002172	1	49	407.909639840003	NA	1	0	2.86	1	400.143501505001	400.663335144003	"17"	17443.988201686	17441.951034161	1.5	0.1
0.01	1	0.840243304002797	1	49	407.909639840003	NA	1	0	2.86	1	400.894864661001	401.735107965003	"17"	17443.988201686	17441.951034161	1.5	0.1
0.01	1	0.00394728799801669	1	49	407.909639840003	NA	1	0	2.86	1	401.963224515002	401.967171803	"17"	17443.988201686	17441.951034161	1.5	0.1
0.01	1	0.129603935001796	1	49	407.909639840003	NA	1	0	2.86	1	402.196924100001	402.326528035002	"17"	17443.988201686	17441.951034161	1.5	0.1
0.01	1	0.00214711600347073	1	49	407.909639840003	NA	1	0	2.86	1	402.564318834	402.566465950003	"17"	17443.988201686	17441.951034161	1.5	0.1
0.01	1	0.120891533999384	1	49	407.909639840003	NA	1	0	2.86	1	402.797959230003	402.918850764003	"17"	17443.988201686	17441.951034161	1.5	0.1
0.01	1	0.00221643699842389	1	49	407.909639840003	NA	1	0	2.86	1	403.148630857002	403.150847294	"17"	17443.988201686	17441.951034161	1.5	0.1
0.01	1	0.00439289099813323	1	49	407.909639840003	NA	1	0	2.86	1	403.382376091002	403.386768982	"17"	17443.988201686	17441.951034161	1.5	0.1
0.01	1	0.00209132899908582	1	49	407.909639840003	NA	1	0	2.86	1	403.616060724002	403.618152053001	"17"	17443.988201686	17441.951034161	1.5	0.1
0.01	1	0.00464006200127187	1	49	407.909639840003	NA	1	0	2.86	1	403.849726920002	403.854366982003	"17"	17443.988201686	17441.951034161	1.5	0.1
0.01	1	0.00390809300006367	1	49	407.909639840003	NA	1	0	2.86	1	404.083568572001	404.087476665001	"17"	17443.988201686	17441.951034161	1.5	0.1
0.01	1	0.00408534999951371	1	49	407.909639840003	NA	1	0	2.86	1	404.317164927001	404.321250277	"17"	17443.988201686	17441.951034161	1.5	0.1
0.01	1	0.112147920001007	1	49	407.909639840003	NA	1	0	2.86	1	404.550933348	404.663081268001	"17"	17443.988201686	17441.951034161	1.5	0.1
0.01	1	0.00471668200043496	1	49	407.909639840003	NA	1	0	2.86	1	404.901540980001	404.906257662002	"17"	17443.988201686	17441.951034161	1.5	0.1
0.01	1	0.00475162200018531	1	49	407.909639840003	NA	1	0	2.86	1	405.135360140001	405.140111762001	"17"	17443.988201686	17441.951034161	1.5	0.1
0.01	1	0.00469850499939639	1	49	407.909639840003	NA	1	0	2.86	1	405.369136180001	405.373834685	"17"	17443.988201686	17441.951034161	1.5	0.1
0.01	1	0.101385114001459	1	49	407.909639840003	NA	1	0	2.86	1	405.602771140002	405.704156254003	"17"	17443.988201686	17441.951034161	1.5	0.1
0.01	1	0.00722358100028941	1	49	407.909639840003	NA	1	0	2.86	1	405.936527380003	405.943750961003	"17"	17443.988201686	17441.951034161	1.5	0.1
0.01	1	0.00219625799945788	1	49	407.909639840003	NA	1	0	2.86	1	406.170346267001	406.172542525001	"17"	17443.988201686	17441.951034161	1.5	0.1
0.01	1	0.00406690100135165	1	49	407.909639840003	NA	1	0	2.86	1	406.404077502	406.408144403002	"17"	17443.988201686	17441.951034161	1.5	0.1
0.01	1	0.00405599299847381	1	49	407.909639840003	NA	1	0	2.86	1	406.637781272002	406.641837265001	"17"	17443.988201686	17441.951034161	1.5	0.1
0.01	1	0.927229097000236	1	49	407.909639840003	NA	1	0	2.86	1	406.871424472003	407.798653569003	"17"	17443.988201686	17441.951034161	1.5	0.1
0.01	1	0.374824659000296	1	17	NA	411.184607504001	0	0.03	2.89	1	409.960004320001	410.334828979001	"18"	17443.988201686	17441.951034161	1.5	0.1
0.01	1	0.00408417000289774	1	17	NA	411.184607504001	0	0.03	2.89	1	410.561031727	410.565115897003	"18"	17443.988201686	17441.951034161	1.5	0.1
0.01	1	0.0366146000014851	1	17	NA	411.184607504001	0	0.03	2.89	1	410.794748887001	410.831363487003	"18"	17443.988201686	17441.951034161	1.5	0.1
0.01	1	0.120689588002278	NA	17	NA	411.184607504001	0	0.03	2.89	1	411.062160161	411.182849749002	"18"	17443.988201686	17441.951034161	1.5	0.1
0.01	1	0.0231656840005598	1	20	418.794556085002	NA	1	0	2.89	1	413.215529593002	413.238695277003	"19"	17443.988201686	17441.951034161	1.5	0.1
0.01	1	0.0531828500024858	1	20	418.794556085002	NA	1	0	2.89	1	413.465912535001	413.519095385003	"19"	17443.988201686	17441.951034161	1.5	0.1
0.01	1	0.0976318980028736	1	20	418.794556085002	NA	1	0	2.89	1	413.749699082	413.847330980003	"19"	17443.988201686	17441.951034161	1.5	0.1
0.01	1	0.00392486000055214	1	20	418.794556085002	NA	1	0	2.89	1	414.083593325002	414.087518185002	"19"	17443.988201686	17441.951034161	1.5	0.1
0.01	1	0.0735832229984226	1	20	418.794556085002	NA	1	0	2.89	1	414.317372560003	414.390955783001	"19"	17443.988201686	17441.951034161	1.5	0.1
0.01	1	0.237787650999962	1	20	418.794556085002	NA	1	0	2.89	1	414.617935480001	414.855723131001	"19"	17443.988201686	17441.951034161	1.5	0.1
0.01	1	0.00211392999699456	1	20	418.794556085002	NA	1	0	2.89	1	415.085391334003	415.087505264	"19"	17443.988201686	17441.951034161	1.5	0.1
0.01	1	0.0800117230028263	1	20	418.794556085002	NA	1	0	2.89	1	415.319058417001	415.399070140003	"19"	17443.988201686	17441.951034161	1.5	0.1
0.01	1	0.106935638999857	1	20	418.794556085002	NA	1	0	2.89	1	415.636256560003	415.743192199003	"19"	17443.988201686	17441.951034161	1.5	0.1
0.01	1	0.0682879640007741	1	20	418.794556085002	NA	1	0	2.89	1	415.970146062002	416.038434026003	"19"	17443.988201686	17441.951034161	1.5	0.1
0.01	1	0.0637048730022798	1	20	418.794556085002	NA	1	0	2.89	1	416.270673717001	416.334378590003	"19"	17443.988201686	17441.951034161	1.5	0.1
0.01	1	0.00454219200037187	1	20	418.794556085002	NA	1	0	2.89	1	416.571231920003	416.575774112003	"19"	17443.988201686	17441.951034161	1.5	0.1
0.01	1	0.0274904440011596	1	20	418.794556085002	NA	1	0	2.89	1	416.804893139	416.832383583002	"19"	17443.988201686	17441.951034161	1.5	0.1
0.01	1	0.103046600997914	1	20	418.794556085002	NA	1	0	2.89	1	417.071962115002	417.175008716	"19"	17443.988201686	17441.951034161	1.5	0.1
0.01	1	0.00400483700286713	1	20	418.794556085002	NA	1	0	2.89	1	417.405944742	417.409949579003	"19"	17443.988201686	17441.951034161	1.5	0.1
0.01	1	0.0393083969975123	1	20	418.794556085002	NA	1	0	2.89	1	417.639630815003	417.678939212001	"19"	17443.988201686	17441.951034161	1.5	0.1
0.01	1	0.00400005399933434	1	20	418.794556085002	NA	1	0	2.89	1	417.906703707002	417.910703761001	"19"	17443.988201686	17441.951034161	1.5	0.1
0.01	1	0.0420435550004186	1	20	418.794556085002	NA	1	0	2.89	1	418.140475795	418.182519350001	"19"	17443.988201686	17441.951034161	1.5	0.1
0.01	1	0.00403182599984575	1	20	418.794556085002	NA	1	0	2.89	1	418.407568587001	418.411600413001	"19"	17443.988201686	17441.951034161	1.5	0.1
0.01	1	0.0466809120007383	1	20	418.794556085002	NA	1	0	2.89	1	418.641247242002	418.687928154002	"19"	17443.988201686	17441.951034161	1.5	0.1
0.01	1	0.00227608400018653	1	21	NA	425.440059182001	0	0.13	3.02	1	420.845078026003	420.847354110003	"20"	17443.988201686	17441.951034161	1.5	0.1
0.01	1	0.00394470999890473	1	21	NA	425.440059182001	0	0.13	3.02	1	421.078714835003	421.082659545002	"20"	17443.988201686	17441.951034161	1.5	0.1
0.01	1	0.0945378709984652	1	21	NA	425.440059182001	0	0.13	3.02	1	421.312437445002	421.406975316	"20"	17443.988201686	17441.951034161	1.5	0.1
0.01	1	0.00410146200010786	1	21	NA	425.440059182001	0	0.13	3.02	1	421.629687425	421.633788887	"20"	17443.988201686	17441.951034161	1.5	0.1
0.01	1	0.00458571700073662	1	21	NA	425.440059182001	0	0.13	3.02	1	421.863367870003	421.867953587003	"20"	17443.988201686	17441.951034161	1.5	0.1
0.01	1	0.0039015769980324	1	21	NA	425.440059182001	0	0.13	3.02	1	422.097291552003	422.101193129001	"20"	17443.988201686	17441.951034161	1.5	0.1
0.01	1	0.0033891279999807	1	21	NA	425.440059182001	0	0.13	3.02	1	422.330784257003	422.334173385003	"20"	17443.988201686	17441.951034161	1.5	0.1
0.01	1	0.00397567300024093	1	21	NA	425.440059182001	0	0.13	3.02	1	422.564620720001	422.568596393001	"20"	17443.988201686	17441.951034161	1.5	0.1
0.01	1	0.00393442900167429	1	21	NA	425.440059182001	0	0.13	3.02	1	422.798313192001	422.802247621003	"20"	17443.988201686	17441.951034161	1.5	0.1
0.01	1	0.00354104800135246	1	21	NA	425.440059182001	0	0.13	3.02	1	423.032036295001	423.035577343002	"20"	17443.988201686	17441.951034161	1.5	0.1
0.01	1	0.00394273900019471	1	21	NA	425.440059182001	0	0.13	3.02	1	423.265815822	423.269758561	"20"	17443.988201686	17441.951034161	1.5	0.1
0.01	1	1.13127936999808	1	21	NA	425.440059182001	0	0.13	3.02	1	423.499524253002	424.630803623	"20"	17443.988201686	17441.951034161	1.5	0.1
0.01	1	0.00206215499929385	1	21	NA	425.440059182001	0	0.13	3.02	1	424.868428605001	424.87049076	"20"	17443.988201686	17441.951034161	1.5	0.1
0.01	1	0.336448924997967	2	21	NA	425.440059182001	0	0.13	3.02	1	425.102087335003	425.438536260001	"20"	17443.988201686	17441.951034161	1.5	0.1
0.01	1	0.0040407740016235	1	26	433.536044340002	NA	1	0	3.02	1	427.472821535001	427.476862309002	"21"	17443.988201686	17441.951034161	1.5	0.1
0.01	1	0.100661283999216	1	26	433.536044340002	NA	1	0	3.02	1	427.706655385002	427.807316669001	"21"	17443.988201686	17441.951034161	1.5	0.1
0.01	1	0.00471861199912382	1	26	433.536044340002	NA	1	0	3.02	1	428.040440260003	428.045158872003	"21"	17443.988201686	17441.951034161	1.5	0.1
0.01	1	0.00440854500266141	1	26	433.536044340002	NA	1	0	3.02	1	428.274142545	428.278551090003	"21"	17443.988201686	17441.951034161	1.5	0.1
0.01	1	0.00469824000174413	1	26	433.536044340002	NA	1	0	3.02	1	428.50792598	428.512624220002	"21"	17443.988201686	17441.951034161	1.5	0.1
0.01	1	0.0037383580020105	1	26	433.536044340002	NA	1	0	3.02	1	428.741617585001	428.745355943003	"21"	17443.988201686	17441.951034161	1.5	0.1
0.01	1	0.00479334000192466	1	26	433.536044340002	NA	1	0	3.02	1	428.975346865001	428.980140205003	"21"	17443.988201686	17441.951034161	1.5	0.1
0.01	1	0.00450695999825257	1	26	433.536044340002	NA	1	0	3.02	1	429.209103280002	429.21361024	"21"	17443.988201686	17441.951034161	1.5	0.1
0.01	1	0.0040973249997478	1	26	433.536044340002	NA	1	0	3.02	1	429.442704330002	429.446801655002	"21"	17443.988201686	17441.951034161	1.5	0.1
0.01	1	0.00387516100090579	1	26	433.536044340002	NA	1	0	3.02	1	429.676488462002	429.680363623003	"21"	17443.988201686	17441.951034161	1.5	0.1
0.01	1	0.00396847099909792	1	26	433.536044340002	NA	1	0	3.02	1	429.910241142003	429.914209613002	"21"	17443.988201686	17441.951034161	1.5	0.1
0.01	1	0.00473317200157908	1	26	433.536044340002	NA	1	0	3.02	1	430.143929770002	430.148662942003	"21"	17443.988201686	17441.951034161	1.5	0.1
0.01	1	0.00385786300103064	1	26	433.536044340002	NA	1	0	3.02	1	430.377698062002	430.381555925003	"21"	17443.988201686	17441.951034161	1.5	0.1
0.01	1	0.00402537000263692	1	26	433.536044340002	NA	1	0	3.02	1	430.611463325	430.615488695003	"21"	17443.988201686	17441.951034161	1.5	0.1
0.01	1	0.0040727630002948	1	26	433.536044340002	NA	1	0	3.02	1	430.845261732	430.849334495	"21"	17443.988201686	17441.951034161	1.5	0.1
0.01	1	0.0046710249989701	1	26	433.536044340002	NA	1	0	3.02	1	431.079067080002	431.083738105001	"21"	17443.988201686	17441.951034161	1.5	0.1
0.01	1	0.00325339199844166	1	26	433.536044340002	NA	1	0	3.02	1	431.312591355003	431.315844747001	"21"	17443.988201686	17441.951034161	1.5	0.1
0.01	1	0.00226315199688543	1	26	433.536044340002	NA	1	0	3.02	1	431.546380253003	431.548643405	"21"	17443.988201686	17441.951034161	1.5	0.1
0.01	1	0.00373533799938741	1	26	433.536044340002	NA	1	0	3.02	1	431.780118055001	431.783853393001	"21"	17443.988201686	17441.951034161	1.5	0.1
0.01	1	0.00464295200072229	1	26	433.536044340002	NA	1	0	3.02	1	432.013796440002	432.018439392003	"21"	17443.988201686	17441.951034161	1.5	0.1
0.01	1	0.00402647000009893	1	26	433.536044340002	NA	1	0	3.02	1	432.247586597001	432.251613067001	"21"	17443.988201686	17441.951034161	1.5	0.1
0.01	1	0.00378088200159254	1	26	433.536044340002	NA	1	0	3.02	1	432.481232225	432.485013107002	"21"	17443.988201686	17441.951034161	1.5	0.1
0.01	1	0.00399313500020071	1	26	433.536044340002	NA	1	0	3.02	1	432.714946600001	432.718939735001	"21"	17443.988201686	17441.951034161	1.5	0.1
0.01	1	0.00407317899953341	1	26	433.536044340002	NA	1	0	3.02	1	432.948655002001	432.952728181001	"21"	17443.988201686	17441.951034161	1.5	0.1
0.01	1	0.00406091200056835	1	26	433.536044340002	NA	1	0	3.02	1	433.182325507001	433.186386419002	"21"	17443.988201686	17441.951034161	1.5	0.1
0.01	1	0.00375502499809954	1	26	433.536044340002	NA	1	0	3.02	1	433.416069720002	433.419824745	"21"	17443.988201686	17441.951034161	1.5	0.1
0.01	1	0.00338478200137615	1	97	NA	440.088898613001	0	0.18	3.2	1	435.586410141001	435.589794923002	"22"	17443.988201686	17441.951034161	1.5	0.1
0.01	1	0.00379590500233462	1	97	NA	440.088898613001	0	0.18	3.2	1	435.820213070001	435.824008975003	"22"	17443.988201686	17441.951034161	1.5	0.1
0.01	1	0.00379400599922519	1	97	NA	440.088898613001	0	0.18	3.2	1	436.053940197002	436.057734203001	"22"	17443.988201686	17441.951034161	1.5	0.1
0.01	1	0.0046616699983133	1	97	NA	440.088898613001	0	0.18	3.2	1	436.287652435003	436.292314105001	"22"	17443.988201686	17441.951034161	1.5	0.1
0.01	1	0.00396301200089511	1	97	NA	440.088898613001	0	0.18	3.2	1	436.521431385001	436.525394397002	"22"	17443.988201686	17441.951034161	1.5	0.1
0.01	1	0.00367426099910517	1	97	NA	440.088898613001	0	0.18	3.2	1	436.755125832002	436.758800093001	"22"	17443.988201686	17441.951034161	1.5	0.1
0.01	1	0.00390961800076184	1	97	NA	440.088898613001	0	0.18	3.2	1	436.988798935003	436.992708553003	"22"	17443.988201686	17441.951034161	1.5	0.1
0.01	1	0.00407864400040125	1	97	NA	440.088898613001	0	0.18	3.2	1	437.222588715002	437.226667359002	"22"	17443.988201686	17441.951034161	1.5	0.1
0.01	1	0.00462157600122737	1	97	NA	440.088898613001	0	0.18	3.2	1	437.456306971002	437.460928547003	"22"	17443.988201686	17441.951034161	1.5	0.1
0.01	1	0.00470996500007459	1	97	NA	440.088898613001	0	0.18	3.2	1	437.690070645003	437.694780610003	"22"	17443.988201686	17441.951034161	1.5	0.1
0.01	1	0.00380993900034809	1	97	NA	440.088898613001	0	0.18	3.2	1	437.923714650002	437.927524589002	"22"	17443.988201686	17441.951034161	1.5	0.1
0.01	1	0.00369613299699267	1	97	NA	440.088898613001	0	0.18	3.2	1	438.157423292003	438.161119425	"22"	17443.988201686	17441.951034161	1.5	0.1
0.01	1	0.00468602500041015	1	97	NA	440.088898613001	0	0.18	3.2	1	438.39127299	438.395959015001	"22"	17443.988201686	17441.951034161	1.5	0.1
0.01	1	0.00394534599763574	1	97	NA	440.088898613001	0	0.18	3.2	1	438.624858155003	438.628803501	"22"	17443.988201686	17441.951034161	1.5	0.1
0.01	1	0.00464225700125098	1	97	NA	440.088898613001	0	0.18	3.2	1	438.858727805	438.863370062001	"22"	17443.988201686	17441.951034161	1.5	0.1
