"payoff.level"	"balloon"	"rt"	"resp"	"explode.trial"	"explode.time"	"finish.time"	"exploded"	"trial.total"	"cumulative.total"	"finished"	"trial.start"	"trial.end"	"trial.num"	"secs"	"start.time"	"iti"	"isi"
0.01	1	0.909006817000773	1	64	NA	25.3190938829994	0	0.44	0.44	1	0.0164830529993196	0.925489870000092	"1"	9901.579024503	9872.870776854	1.5	0.1
0.01	1	0.335029258001668	1	64	NA	25.3190938829994	0	0.44	0.44	1	1.30198222199942	1.63701148000109	"1"	9901.579024503	9872.870776854	1.5	0.1
0.01	1	0.279898130998845	1	64	NA	25.3190938829994	0	0.44	0.44	1	1.86968385600085	2.14958198699969	"1"	9901.579024503	9872.870776854	1.5	0.1
0.01	1	0.354495610999948	1	64	NA	25.3190938829994	0	0.44	0.44	1	2.38709981800093	2.74159542900088	"1"	9901.579024503	9872.870776854	1.5	0.1
0.01	1	0.361761153000771	1	64	NA	25.3190938829994	0	0.44	0.44	1	2.97148611800003	3.3332472710008	"1"	9901.579024503	9872.870776854	1.5	0.1
0.01	1	0.409610280999914	1	64	NA	25.3190938829994	0	0.44	0.44	1	3.55594806299996	3.96555834399987	"1"	9901.579024503	9872.870776854	1.5	0.1
0.01	1	0.319283827000618	1	64	NA	25.3190938829994	0	0.44	0.44	1	4.2069796779997	4.52626350500032	"1"	9901.579024503	9872.870776854	1.5	0.1
0.01	1	0.599371762998999	1	64	NA	25.3190938829994	0	0.44	0.44	1	4.75785467800051	5.35722644099951	"1"	9901.579024503	9872.870776854	1.5	0.1
0.01	1	0.478418067999883	1	64	NA	25.3190938829994	0	0.44	0.44	1	5.59257011800037	6.07098818600025	"1"	9901.579024503	9872.870776854	1.5	0.1
0.01	1	0.544289334000496	1	64	NA	25.3190938829994	0	0.44	0.44	1	6.29380307800056	6.83809241200106	"1"	9901.579024503	9872.870776854	1.5	0.1
0.01	1	0.326502935000462	1	64	NA	25.3190938829994	0	0.44	0.44	1	7.07835419500043	7.40485713000089	"1"	9901.579024503	9872.870776854	1.5	0.1
0.01	1	0.352597581000737	1	64	NA	25.3190938829994	0	0.44	0.44	1	7.62932918499973	7.98192676600047	"1"	9901.579024503	9872.870776854	1.5	0.1
0.01	1	0.320813136999277	1	64	NA	25.3190938829994	0	0.44	0.44	1	8.21359368500089	8.53440682200016	"1"	9901.579024503	9872.870776854	1.5	0.1
0.01	1	0.592218022000452	1	64	NA	25.3190938829994	0	0.44	0.44	1	8.76474671799951	9.35696473999997	"1"	9901.579024503	9872.870776854	1.5	0.1
0.01	1	0.416115006999462	1	64	NA	25.3190938829994	0	0.44	0.44	1	9.58261950800079	9.99873451500025	"1"	9901.579024503	9872.870776854	1.5	0.1
0.01	1	0.332313064000118	1	64	NA	25.3190938829994	0	0.44	0.44	1	10.2337513399998	10.5660644039999	"1"	9901.579024503	9872.870776854	1.5	0.1
0.01	1	0.452695989999484	1	64	NA	25.3190938829994	0	0.44	0.44	1	10.8014371730005	11.254133163	"1"	9901.579024503	9872.870776854	1.5	0.1
0.01	1	0.351430259999688	1	64	NA	25.3190938829994	0	0.44	0.44	1	11.4857961830003	11.837226443	"1"	9901.579024503	9872.870776854	1.5	0.1
0.01	1	0.39994317199853	1	64	NA	25.3190938829994	0	0.44	0.44	1	12.0701888830008	12.4701320549993	"1"	9901.579024503	9872.870776854	1.5	0.1
0.01	1	0.420582065000417	1	64	NA	25.3190938829994	0	0.44	0.44	1	12.7045097480004	13.1250918130008	"1"	9901.579024503	9872.870776854	1.5	0.1
0.01	1	0.466156790998866	1	64	NA	25.3190938829994	0	0.44	0.44	1	13.3555615870009	13.8217183779998	"1"	9901.579024503	9872.870776854	1.5	0.1
0.01	1	0.300239122001585	1	64	NA	25.3190938829994	0	0.44	0.44	1	14.0568619179994	14.357101040001	"1"	9901.579024503	9872.870776854	1.5	0.1
0.01	1	0.102603289999024	1	64	NA	25.3190938829994	0	0.44	0.44	1	14.5909626200009	14.69356591	"1"	9901.579024503	9872.870776854	1.5	0.1
0.01	1	0.0257922199998575	1	64	NA	25.3190938829994	0	0.44	0.44	1	14.9248749079998	14.9506671279996	"1"	9901.579024503	9872.870776854	1.5	0.1
0.01	1	0.0538599930005148	1	64	NA	25.3190938829994	0	0.44	0.44	1	15.1754477329996	15.2293077260001	"1"	9901.579024503	9872.870776854	1.5	0.1
0.01	1	0.00402525199933734	1	64	NA	25.3190938829994	0	0.44	0.44	1	15.4590831280002	15.4631083799995	"1"	9901.579024503	9872.870776854	1.5	0.1
0.01	1	0.0487495639990811	1	64	NA	25.3190938829994	0	0.44	0.44	1	15.6929261200003	15.7416756839993	"1"	9901.579024503	9872.870776854	1.5	0.1
0.01	1	0.125880546000189	1	64	NA	25.3190938829994	0	0.44	0.44	1	15.9767875580001	16.1026681040003	"1"	9901.579024503	9872.870776854	1.5	0.1
0.01	1	0.0538300780008285	1	64	NA	25.3190938829994	0	0.44	0.44	1	16.3440000129995	16.3978300910003	"1"	9901.579024503	9872.870776854	1.5	0.1
0.01	1	0.24204601099882	1	64	NA	25.3190938829994	0	0.44	0.44	1	16.6277280270006	16.8697740379994	"1"	9901.579024503	9872.870776854	1.5	0.1
0.01	1	0.0870003509990056	1	64	NA	25.3190938829994	0	0.44	0.44	1	17.0951958250007	17.1821961759997	"1"	9901.579024503	9872.870776854	1.5	0.1
0.01	1	0.0657054599996627	1	64	NA	25.3190938829994	0	0.44	0.44	1	17.4124827550004	17.478188215	"1"	9901.579024503	9872.870776854	1.5	0.1
0.01	1	0.100471065999955	1	64	NA	25.3190938829994	0	0.44	0.44	1	17.7129350030009	17.8134060690008	"1"	9901.579024503	9872.870776854	1.5	0.1
0.01	1	0.119942975999948	1	64	NA	25.3190938829994	0	0.44	0.44	1	18.046916098001	18.166859074001	"1"	9901.579024503	9872.870776854	1.5	0.1
0.01	1	0.208771013998557	1	64	NA	25.3190938829994	0	0.44	0.44	1	18.3974149130008	18.6061859269994	"1"	9901.579024503	9872.870776854	1.5	0.1
0.01	1	0.509314535998783	1	64	NA	25.3190938829994	0	0.44	0.44	1	18.831501386001	19.3408159219998	"1"	9901.579024503	9872.870776854	1.5	0.1
0.01	1	0.927076926000154	1	64	NA	25.3190938829994	0	0.44	0.44	1	19.5661525150008	20.4932294410009	"1"	9901.579024503	9872.870776854	1.5	0.1
0.01	1	0.575442739000209	1	64	NA	25.3190938829994	0	0.44	0.44	1	20.7347916880008	21.310234427001	"1"	9901.579024503	9872.870776854	1.5	0.1
0.01	1	0.718663298999672	1	64	NA	25.3190938829994	0	0.44	0.44	1	21.5360918879996	22.2547551869993	"1"	9901.579024503	9872.870776854	1.5	0.1
0.01	1	0.00351799500094785	1	64	NA	25.3190938829994	0	0.44	0.44	1	22.4877685430001	22.4912865380011	"1"	9901.579024503	9872.870776854	1.5	0.1
0.01	1	0.396972440999889	1	64	NA	25.3190938829994	0	0.44	0.44	1	22.7214372950002	23.1184097360001	"1"	9901.579024503	9872.870776854	1.5	0.1
0.01	1	0.0905861619994539	1	64	NA	25.3190938829994	0	0.44	0.44	1	23.339030258001	23.4296164200005	"1"	9901.579024503	9872.870776854	1.5	0.1
0.01	1	0.317716842000664	1	64	NA	25.3190938829994	0	0.44	0.44	1	23.6562791050001	23.9739959470007	"1"	9901.579024503	9872.870776854	1.5	0.1
0.01	1	0.262842394999097	1	64	NA	25.3190938829994	0	0.44	0.44	1	24.2071727830007	24.4700151779998	"1"	9901.579024503	9872.870776854	1.5	0.1
0.01	1	0.609450580999692	2	64	NA	25.3190938829994	0	0.44	0.44	1	24.7080791330009	25.3175297140006	"1"	9901.579024503	9872.870776854	1.5	0.1
0.01	1	0.636334511000314	1	102	NA	38.0962816570009	0	0.24	0.68	1	27.3458253940007	27.982159905001	"2"	9901.579024503	9872.870776854	1.5	0.1
0.01	1	0.319220487001076	1	102	NA	38.0962816570009	0	0.24	0.68	1	28.2139893799995	28.5332098670006	"2"	9901.579024503	9872.870776854	1.5	0.1
0.01	1	0.00401841499842703	1	102	NA	38.0962816570009	0	0.24	0.68	1	28.7648394050011	28.7688578199995	"2"	9901.579024503	9872.870776854	1.5	0.1
0.01	1	0.0544742319998477	1	102	NA	38.0962816570009	0	0.24	0.68	1	28.9986315580009	29.0531057900007	"2"	9901.579024503	9872.870776854	1.5	0.1
0.01	1	0.0431455460002326	1	102	NA	38.0962816570009	0	0.24	0.68	1	29.2823802399998	29.3255257860001	"2"	9901.579024503	9872.870776854	1.5	0.1
0.01	1	0.0564364479996584	1	102	NA	38.0962816570009	0	0.24	0.68	1	29.5496069450001	29.6060433929997	"2"	9901.579024503	9872.870776854	1.5	0.1
0.01	1	0.108381680000093	1	102	NA	38.0962816570009	0	0.24	0.68	1	29.8333831279997	29.9417648079998	"2"	9901.579024503	9872.870776854	1.5	0.1
0.01	1	0.0869911910012888	1	102	NA	38.0962816570009	0	0.24	0.68	1	30.1672786029994	30.2542697940007	"2"	9901.579024503	9872.870776854	1.5	0.1
0.01	1	0.0659146069992858	1	102	NA	38.0962816570009	0	0.24	0.68	1	30.4844346080008	30.5503492150001	"2"	9901.579024503	9872.870776854	1.5	0.1
0.01	1	0.117291078999187	1	102	NA	38.0962816570009	0	0.24	0.68	1	30.7849179950008	30.902209074	"2"	9901.579024503	9872.870776854	1.5	0.1
0.01	1	0.141346712000086	1	102	NA	38.0962816570009	0	0.24	0.68	1	31.1356142149998	31.2769609269999	"2"	9901.579024503	9872.870776854	1.5	0.1
0.01	1	0.759820168999795	1	102	NA	38.0962816570009	0	0.24	0.68	1	31.5028732480005	32.2626934170003	"2"	9901.579024503	9872.870776854	1.5	0.1
0.01	1	0.0387733779989503	1	102	NA	38.0962816570009	0	0.24	0.68	1	32.4878651180006	32.5266384959996	"2"	9901.579024503	9872.870776854	1.5	0.1
0.01	1	0.0997397200007981	1	102	NA	38.0962816570009	0	0.24	0.68	1	32.7549566449998	32.8546963650006	"2"	9901.579024503	9872.870776854	1.5	0.1
0.01	1	0.0860221620005177	1	102	NA	38.0962816570009	0	0.24	0.68	1	33.0889325879998	33.1749547500003	"2"	9901.579024503	9872.870776854	1.5	0.1
0.01	1	0.0960313569994469	1	102	NA	38.0962816570009	0	0.24	0.68	1	33.4059723549999	33.5020037119994	"2"	9901.579024503	9872.870776854	1.5	0.1
0.01	1	0.0988590310007567	1	102	NA	38.0962816570009	0	0.24	0.68	1	33.7399466639999	33.8388056950007	"2"	9901.579024503	9872.870776854	1.5	0.1
0.01	1	0.163396296000428	1	102	NA	38.0962816570009	0	0.24	0.68	1	34.0740385930003	34.2374348890007	"2"	9901.579024503	9872.870776854	1.5	0.1
0.01	1	0.364301782999974	1	102	NA	38.0962816570009	0	0.24	0.68	1	34.4746302429994	34.8389320259994	"2"	9901.579024503	9872.870776854	1.5	0.1
0.01	1	0.233585545998721	1	102	NA	38.0962816570009	0	0.24	0.68	1	35.0755418370009	35.3091273829996	"2"	9901.579024503	9872.870776854	1.5	0.1
0.01	1	0.134678413998699	1	102	NA	38.0962816570009	0	0.24	0.68	1	35.5429474810007	35.6776258949994	"2"	9901.579024503	9872.870776854	1.5	0.1
0.01	1	0.175461275000998	1	102	NA	38.0962816570009	0	0.24	0.68	1	35.9101929629996	36.0856542380006	"2"	9901.579024503	9872.870776854	1.5	0.1
0.01	1	0.535885514000256	1	102	NA	38.0962816570009	0	0.24	0.68	1	36.3108868830004	36.8467723970007	"2"	9901.579024503	9872.870776854	1.5	0.1
0.01	1	0.326784273000158	1	102	NA	38.0962816570009	0	0.24	0.68	1	37.0788910629999	37.4056753360001	"2"	9901.579024503	9872.870776854	1.5	0.1
0.01	1	0.464836314000422	2	102	NA	38.0962816570009	0	0.24	0.68	1	37.6297603950006	38.0945967090011	"2"	9901.579024503	9872.870776854	1.5	0.1
0.01	1	0.464033711999946	1	97	NA	59.0556251230009	0	0.45	1.13	1	40.1340522330011	40.598085945001	"3"	9901.579024503	9872.870776854	1.5	0.1
0.01	1	0.0899795360001008	1	97	NA	59.0556251230009	0	0.45	1.13	1	40.83523418	40.9252137160001	"3"	9901.579024503	9872.870776854	1.5	0.1
0.01	1	0.110266190000402	1	97	NA	59.0556251230009	0	0.45	1.13	1	41.1523631380005	41.2626293280009	"3"	9901.579024503	9872.870776854	1.5	0.1
0.01	1	0.038667438999255	1	97	NA	59.0556251230009	0	0.45	1.13	1	41.4862504650009	41.5249179040002	"3"	9901.579024503	9872.870776854	1.5	0.1
0.01	1	0.0524344120003661	1	97	NA	59.0556251230009	0	0.45	1.13	1	41.7533435000005	41.8057779120008	"3"	9901.579024503	9872.870776854	1.5	0.1
0.01	1	0.0489385290002247	1	97	NA	59.0556251230009	0	0.45	1.13	1	42.0371642040009	42.0861027330011	"3"	9901.579024503	9872.870776854	1.5	0.1
0.01	1	0.0776215619989671	1	97	NA	59.0556251230009	0	0.45	1.13	1	42.3210467650006	42.3986683269995	"3"	9901.579024503	9872.870776854	1.5	0.1
0.01	1	0.0635897520005528	1	97	NA	59.0556251230009	0	0.45	1.13	1	42.621669868	42.6852596200006	"3"	9901.579024503	9872.870776854	1.5	0.1
0.01	1	0.0673252209999191	1	97	NA	59.0556251230009	0	0.45	1.13	1	42.9220628080002	42.9893880290001	"3"	9901.579024503	9872.870776854	1.5	0.1
0.01	1	0.142766432001736	1	97	NA	59.0556251230009	0	0.45	1.13	1	43.2225082139994	43.3652746460011	"3"	9901.579024503	9872.870776854	1.5	0.1
0.01	1	0.032928410999375	1	97	NA	59.0556251230009	0	0.45	1.13	1	43.5898801450003	43.6228085559997	"3"	9901.579024503	9872.870776854	1.5	0.1
0.01	1	0.0600797009992675	1	97	NA	59.0556251230009	0	0.45	1.13	1	43.8569908280006	43.9170705289998	"3"	9901.579024503	9872.870776854	1.5	0.1
0.01	1	0.0893016099998931	1	97	NA	59.0556251230009	0	0.45	1.13	1	44.1407817479994	44.2300833579993	"3"	9901.579024503	9872.870776854	1.5	0.1
0.01	1	0.0760246800000459	1	97	NA	59.0556251230009	0	0.45	1.13	1	44.458000083001	44.5340247630011	"3"	9901.579024503	9872.870776854	1.5	0.1
0.01	1	0.120721917000992	1	97	NA	59.0556251230009	0	0.45	1.13	1	44.7584682979996	44.8791902150006	"3"	9901.579024503	9872.870776854	1.5	0.1
0.01	1	0.0958364469988737	1	97	NA	59.0556251230009	0	0.45	1.13	1	45.109035028001	45.2048714749999	"3"	9901.579024503	9872.870776854	1.5	0.1
0.01	1	0.314337599000282	1	97	NA	59.0556251230009	0	0.45	1.13	1	45.4429531879996	45.7572907869999	"3"	9901.579024503	9872.870776854	1.5	0.1
0.01	1	0.451983840999674	1	97	NA	59.0556251230009	0	0.45	1.13	1	45.9939549350001	46.4459387759998	"3"	9901.579024503	9872.870776854	1.5	0.1
0.01	1	0.110929171998578	1	97	NA	59.0556251230009	0	0.45	1.13	1	46.678301543001	46.7892307149996	"3"	9901.579024503	9872.870776854	1.5	0.1
0.01	1	0.369984425000439	1	97	NA	59.0556251230009	0	0.45	1.13	1	47.0122469529997	47.3822313780001	"3"	9901.579024503	9872.870776854	1.5	0.1
0.01	1	0.353279155999189	1	97	NA	59.0556251230009	0	0.45	1.13	1	47.6133501080003	47.9666292639995	"3"	9901.579024503	9872.870776854	1.5	0.1
0.01	1	0.35296525800004	1	97	NA	59.0556251230009	0	0.45	1.13	1	48.1976039750007	48.5505692330007	"3"	9901.579024503	9872.870776854	1.5	0.1
0.01	1	0.103935515999183	1	97	NA	59.0556251230009	0	0.45	1.13	1	48.7818718380004	48.8858073539996	"3"	9901.579024503	9872.870776854	1.5	0.1
0.01	1	0.0502126299998054	1	97	NA	59.0556251230009	0	0.45	1.13	1	49.1158116980005	49.1660243280003	"3"	9901.579024503	9872.870776854	1.5	0.1
0.01	1	0.0136990640003205	1	97	NA	59.0556251230009	0	0.45	1.13	1	49.3996252329998	49.4133242970001	"3"	9901.579024503	9872.870776854	1.5	0.1
0.01	1	0.0278965369998332	1	97	NA	59.0556251230009	0	0.45	1.13	1	49.6499891500007	49.6778856870005	"3"	9901.579024503	9872.870776854	1.5	0.1
0.01	1	0.0746231480006827	1	97	NA	59.0556251230009	0	0.45	1.13	1	49.9003779180002	49.9750010660009	"3"	9901.579024503	9872.870776854	1.5	0.1
0.01	1	0.0527099579994683	1	97	NA	59.0556251230009	0	0.45	1.13	1	50.2010345960007	50.2537445540001	"3"	9901.579024503	9872.870776854	1.5	0.1
0.01	1	0.0642803219998314	1	97	NA	59.0556251230009	0	0.45	1.13	1	50.4847783700006	50.5490586920005	"3"	9901.579024503	9872.870776854	1.5	0.1
0.01	1	0.0521525629992539	1	97	NA	59.0556251230009	0	0.45	1.13	1	50.7853417780007	50.8374943409999	"3"	9901.579024503	9872.870776854	1.5	0.1
0.01	1	0.0569234890008374	1	97	NA	59.0556251230009	0	0.45	1.13	1	51.069025928	51.1259494170008	"3"	9901.579024503	9872.870776854	1.5	0.1
0.01	1	0.0448970699999336	1	97	NA	59.0556251230009	0	0.45	1.13	1	51.352907333001	51.3978044030009	"3"	9901.579024503	9872.870776854	1.5	0.1
0.01	1	0.089655361000041	1	97	NA	59.0556251230009	0	0.45	1.13	1	51.6199820880011	51.7096374490011	"3"	9901.579024503	9872.870776854	1.5	0.1
0.01	1	0.0356025809996936	1	97	NA	59.0556251230009	0	0.45	1.13	1	51.9372463680011	51.9728489490008	"3"	9901.579024503	9872.870776854	1.5	0.1
0.01	1	0.0824468020000495	1	97	NA	59.0556251230009	0	0.45	1.13	1	52.2043693630003	52.2868161650003	"3"	9901.579024503	9872.870776854	1.5	0.1
0.01	1	0.205180978000499	1	97	NA	59.0556251230009	0	0.45	1.13	1	52.521545783	52.7267267610005	"3"	9901.579024503	9872.870776854	1.5	0.1
0.01	1	0.266614325000774	1	97	NA	59.0556251230009	0	0.45	1.13	1	52.9555956479999	53.2222099730006	"3"	9901.579024503	9872.870776854	1.5	0.1
0.01	1	0.32537500699982	1	97	NA	59.0556251230009	0	0.45	1.13	1	53.4564968430004	53.7818718500002	"3"	9901.579024503	9872.870776854	1.5	0.1
0.01	1	0.214609392998682	1	97	NA	59.0556251230009	0	0.45	1.13	1	54.0073384450006	54.2219478379993	"3"	9901.579024503	9872.870776854	1.5	0.1
0.01	1	0.330944760000421	1	97	NA	59.0556251230009	0	0.45	1.13	1	54.4581573199994	54.7891020799998	"3"	9901.579024503	9872.870776854	1.5	0.1
0.01	1	0.356139613999403	1	97	NA	59.0556251230009	0	0.45	1.13	1	55.0257895930008	55.3819292070002	"3"	9901.579024503	9872.870776854	1.5	0.1
0.01	1	0.426729455999521	1	97	NA	59.0556251230009	0	0.45	1.13	1	55.6101175250005	56.0368469810001	"3"	9901.579024503	9872.870776854	1.5	0.1
0.01	1	0.464024160000918	1	97	NA	59.0556251230009	0	0.45	1.13	1	56.2778696229998	56.7418937830007	"3"	9901.579024503	9872.870776854	1.5	0.1
0.01	1	0.354457395000281	1	97	NA	59.0556251230009	0	0.45	1.13	1	56.9790549429999	57.3335123380002	"3"	9901.579024503	9872.870776854	1.5	0.1
0.01	1	0.385907882999163	1	97	NA	59.0556251230009	0	0.45	1.13	1	57.5633784380007	57.9492863209998	"3"	9901.579024503	9872.870776854	1.5	0.1
0.01	1	0.873009321001518	2	97	NA	59.0556251230009	0	0.45	1.13	1	58.1810414779993	59.0540507990008	"3"	9901.579024503	9872.870776854	1.5	0.1
0.01	1	0.312182080999264	1	51	79.1871341879996	NA	1	0	1.13	1	61.1026959230003	61.4148780039995	"4"	9901.579024503	9872.870776854	1.5	0.1
0.01	1	0.00348805000066932	1	51	79.1871341879996	NA	1	0	1.13	1	61.6535809159996	61.6570689660002	"4"	9901.579024503	9872.870776854	1.5	0.1
0.01	1	0.00436227499994857	1	51	79.1871341879996	NA	1	0	1.13	1	61.8873339830006	61.8916962580006	"4"	9901.579024503	9872.870776854	1.5	0.1
0.01	1	0.00472807999904035	1	51	79.1871341879996	NA	1	0	1.13	1	62.121092413001	62.125820493	"4"	9901.579024503	9872.870776854	1.5	0.1
0.01	1	0.00471981000009691	1	51	79.1871341879996	NA	1	0	1.13	1	62.3547573279993	62.3594771379994	"4"	9901.579024503	9872.870776854	1.5	0.1
0.01	1	0.0903651130010985	1	51	79.1871341879996	NA	1	0	1.13	1	62.5885494129998	62.6789145260009	"4"	9901.579024503	9872.870776854	1.5	0.1
0.01	1	0.0073508679997758	1	51	79.1871341879996	NA	1	0	1.13	1	62.9056549680008	62.9130058360006	"4"	9901.579024503	9872.870776854	1.5	0.1
0.01	1	0.00213093999991543	1	51	79.1871341879996	NA	1	0	1.13	1	63.1394865630009	63.1416175030008	"4"	9901.579024503	9872.870776854	1.5	0.1
0.01	1	0.00286330200106022	1	51	79.1871341879996	NA	1	0	1.13	1	63.3731275459995	63.3759908480006	"4"	9901.579024503	9872.870776854	1.5	0.1
0.01	1	0.00823954900079116	1	51	79.1871341879996	NA	1	0	1.13	1	63.6069480030001	63.6151875520009	"4"	9901.579024503	9872.870776854	1.5	0.1
0.01	1	0.0366675969999051	1	51	79.1871341879996	NA	1	0	1.13	1	63.8406054780007	63.8772730750006	"4"	9901.579024503	9872.870776854	1.5	0.1
0.01	1	0.0173232249999273	1	51	79.1871341879996	NA	1	0	1.13	1	64.1076736979994	64.1249969229993	"4"	9901.579024503	9872.870776854	1.5	0.1
0.01	1	0.0404270010003529	1	51	79.1871341879996	NA	1	0	1.13	1	64.3580604479994	64.3984874489997	"4"	9901.579024503	9872.870776854	1.5	0.1
0.01	1	0.0681820520003384	1	51	79.1871341879996	NA	1	0	1.13	1	64.6253408800003	64.6935229320006	"4"	9901.579024503	9872.870776854	1.5	0.1
0.01	1	0.0410572040000261	1	51	79.1871341879996	NA	1	0	1.13	1	64.9257550479997	64.9668122519997	"4"	9901.579024503	9872.870776854	1.5	0.1
0.01	1	0.0538046049987315	1	51	79.1871341879996	NA	1	0	1.13	1	65.1928875850008	65.2466921899995	"4"	9901.579024503	9872.870776854	1.5	0.1
0.01	1	0.0739256190008746	1	51	79.1871341879996	NA	1	0	1.13	1	65.4766749350001	65.550600554001	"4"	9901.579024503	9872.870776854	1.5	0.1
0.01	1	0.0369470900004671	1	51	79.1871341879996	NA	1	0	1.13	1	65.7771793329994	65.8141264229998	"4"	9901.579024503	9872.870776854	1.5	0.1
0.01	1	0.0494868700006919	1	51	79.1871341879996	NA	1	0	1.13	1	66.0442734150001	66.0937602850008	"4"	9901.579024503	9872.870776854	1.5	0.1
0.01	1	0.0776834859989322	1	51	79.1871341879996	NA	1	0	1.13	1	66.328157883001	66.405841369	"4"	9901.579024503	9872.870776854	1.5	0.1
0.01	1	0.0566006339995511	1	51	79.1871341879996	NA	1	0	1.13	1	66.6286713549998	66.6852719889994	"4"	9901.579024503	9872.870776854	1.5	0.1
0.01	1	0.00800335699932475	1	51	79.1871341879996	NA	1	0	1.13	1	66.9124136330011	66.9204169900004	"4"	9901.579024503	9872.870776854	1.5	0.1
0.01	1	0.0527865030016983	1	51	79.1871341879996	NA	1	0	1.13	1	67.1460947199994	67.1988812230011	"4"	9901.579024503	9872.870776854	1.5	0.1
0.01	1	0.055584624000403	1	51	79.1871341879996	NA	1	0	1.13	1	67.4299692599998	67.4855538840002	"4"	9901.579024503	9872.870776854	1.5	0.1
0.01	1	0.0684144339993509	1	51	79.1871341879996	NA	1	0	1.13	1	67.7138989240011	67.7823133580005	"4"	9901.579024503	9872.870776854	1.5	0.1
0.01	1	0.0241012269998464	1	51	79.1871341879996	NA	1	0	1.13	1	68.0142390729998	68.0383402999996	"4"	9901.579024503	9872.870776854	1.5	0.1
0.01	1	0.0703162220015656	1	51	79.1871341879996	NA	1	0	1.13	1	68.2647199429994	68.3350361650009	"4"	9901.579024503	9872.870776854	1.5	0.1
0.01	1	0.401635476999218	1	51	79.1871341879996	NA	1	0	1.13	1	68.5652191600002	68.9668546369994	"4"	9901.579024503	9872.870776854	1.5	0.1
0.01	1	0.333988611000677	1	51	79.1871341879996	NA	1	0	1.13	1	69.1996419730003	69.533630584001	"4"	9901.579024503	9872.870776854	1.5	0.1
0.01	1	0.0617130739992717	1	51	79.1871341879996	NA	1	0	1.13	1	69.7672626330004	69.8289757069997	"4"	9901.579024503	9872.870776854	1.5	0.1
0.01	1	0.0755190169984417	1	51	79.1871341879996	NA	1	0	1.13	1	70.0510695650009	70.1265885819994	"4"	9901.579024503	9872.870776854	1.5	0.1
0.01	1	0.222915902999375	1	51	79.1871341879996	NA	1	0	1.13	1	70.3515342930004	70.5744501959998	"4"	9901.579024503	9872.870776854	1.5	0.1
0.01	1	0.427572664000763	1	51	79.1871341879996	NA	1	0	1.13	1	70.8024133529998	71.2299860170006	"4"	9901.579024503	9872.870776854	1.5	0.1
0.01	1	0.0160105979994114	1	51	79.1871341879996	NA	1	0	1.13	1	71.4701093380008	71.4861199360003	"4"	9901.579024503	9872.870776854	1.5	0.1
0.01	1	0.0446322379993944	1	51	79.1871341879996	NA	1	0	1.13	1	71.7205344400008	71.7651666780002	"4"	9901.579024503	9872.870776854	1.5	0.1
0.01	1	0.097205160998783	1	51	79.1871341879996	NA	1	0	1.13	1	71.9876396430009	72.0848448039997	"4"	9901.579024503	9872.870776854	1.5	0.1
0.01	1	0.0915413250004349	1	51	79.1871341879996	NA	1	0	1.13	1	72.3215155399994	72.4130568649998	"4"	9901.579024503	9872.870776854	1.5	0.1
0.01	1	0.19993244699981	1	51	79.1871341879996	NA	1	0	1.13	1	72.6387077449999	72.8386401919997	"4"	9901.579024503	9872.870776854	1.5	0.1
0.01	1	0.293355103998692	1	51	79.1871341879996	NA	1	0	1.13	1	73.0727996250007	73.3661547289994	"4"	9901.579024503	9872.870776854	1.5	0.1
0.01	1	0.128510436999932	1	51	79.1871341879996	NA	1	0	1.13	1	73.5903569830007	73.7188674200006	"4"	9901.579024503	9872.870776854	1.5	0.1
0.01	1	0.121575178000057	1	51	79.1871341879996	NA	1	0	1.13	1	73.9409510349997	74.0625262129997	"4"	9901.579024503	9872.870776854	1.5	0.1
0.01	1	0.106539657999747	1	51	79.1871341879996	NA	1	0	1.13	1	74.2916570800007	74.3981967380005	"4"	9901.579024503	9872.870776854	1.5	0.1
0.01	1	0.196141176998935	1	51	79.1871341879996	NA	1	0	1.13	1	74.625400627001	74.8215418039999	"4"	9901.579024503	9872.870776854	1.5	0.1
0.01	1	0.329585000999941	1	51	79.1871341879996	NA	1	0	1.13	1	75.0594184050005	75.3890034060005	"4"	9901.579024503	9872.870776854	1.5	0.1
0.01	1	0.370551310999872	1	51	79.1871341879996	NA	1	0	1.13	1	75.6270285980008	75.9975799090007	"4"	9901.579024503	9872.870776854	1.5	0.1
0.01	1	0.410862512000676	1	51	79.1871341879996	NA	1	0	1.13	1	76.2280877800004	76.638950292001	"4"	9901.579024503	9872.870776854	1.5	0.1
0.01	1	0.215069572001084	1	51	79.1871341879996	NA	1	0	1.13	1	76.8625739979998	77.0776435700009	"4"	9901.579024503	9872.870776854	1.5	0.1
0.01	1	0.00229193799896166	1	51	79.1871341879996	NA	1	0	1.13	1	77.3131970800005	77.3154890179994	"4"	9901.579024503	9872.870776854	1.5	0.1
0.01	1	0.179328352998709	1	51	79.1871341879996	NA	1	0	1.13	1	77.5469937430007	77.7263220959994	"4"	9901.579024503	9872.870776854	1.5	0.1
0.01	1	0.561339580001004	1	51	79.1871341879996	NA	1	0	1.13	1	77.964396243	78.525735823001	"4"	9901.579024503	9872.870776854	1.5	0.1
0.01	1	0.320278024999425	1	51	79.1871341879996	NA	1	0	1.13	1	78.7489664500008	79.0692444750002	"4"	9901.579024503	9872.870776854	1.5	0.1
0.01	1	0.162226258000373	1	116	NA	92.2230972950001	0	0.37	1.5	1	81.2366508779996	81.398877136	"5"	9901.579024503	9872.870776854	1.5	0.1
0.01	1	0.00241913699937868	1	116	NA	92.2230972950001	0	0.37	1.5	1	81.6372778410005	81.6396969779998	"5"	9901.579024503	9872.870776854	1.5	0.1
0.01	1	0.002165399999285	1	116	NA	92.2230972950001	0	0.37	1.5	1	81.8709171980008	81.8730825980001	"5"	9901.579024503	9872.870776854	1.5	0.1
0.01	1	0.00213037499997881	1	116	NA	92.2230972950001	0	0.37	1.5	1	82.104672812	82.106803187	"5"	9901.579024503	9872.870776854	1.5	0.1
0.01	1	0.00225636499999382	1	116	NA	92.2230972950001	0	0.37	1.5	1	82.3382796660007	82.3405360310007	"5"	9901.579024503	9872.870776854	1.5	0.1
0.01	1	0.00407209599870839	1	116	NA	92.2230972950001	0	0.37	1.5	1	82.5720947080008	82.5761668039995	"5"	9901.579024503	9872.870776854	1.5	0.1
0.01	1	0.00269316400044772	1	116	NA	92.2230972950001	0	0.37	1.5	1	82.8057426529995	82.8084358169999	"5"	9901.579024503	9872.870776854	1.5	0.1
0.01	1	0.0134358049999719	1	116	NA	92.2230972950001	0	0.37	1.5	1	83.0397413749997	83.0531771799997	"5"	9901.579024503	9872.870776854	1.5	0.1
0.01	1	0.0349327519998042	1	116	NA	92.2230972950001	0	0.37	1.5	1	83.2899791809996	83.3249119329994	"5"	9901.579024503	9872.870776854	1.5	0.1
0.01	1	0.00399106100121571	1	116	NA	92.2230972950001	0	0.37	1.5	1	83.5570775249998	83.5610685860011	"5"	9901.579024503	9872.870776854	1.5	0.1
0.01	1	0.0385828820017196	1	116	NA	92.2230972950001	0	0.37	1.5	1	83.7908671999994	83.8294500820011	"5"	9901.579024503	9872.870776854	1.5	0.1
0.01	1	0.0530907020001905	1	116	NA	92.2230972950001	0	0.37	1.5	1	84.0578943130004	84.1109850150006	"5"	9901.579024503	9872.870776854	1.5	0.1
0.01	1	0.011578322000787	1	116	NA	92.2230972950001	0	0.37	1.5	1	84.3416963780001	84.3532747000008	"5"	9901.579024503	9872.870776854	1.5	0.1
0.01	1	0.0218877900006191	1	116	NA	92.2230972950001	0	0.37	1.5	1	84.5921143249998	84.6140021150004	"5"	9901.579024503	9872.870776854	1.5	0.1
0.01	1	0.0275809530012339	1	116	NA	92.2230972950001	0	0.37	1.5	1	84.8426525979994	84.8702335510006	"5"	9901.579024503	9872.870776854	1.5	0.1
0.01	1	0.0640404530004162	1	116	NA	92.2230972950001	0	0.37	1.5	1	85.0929347450001	85.1569751980005	"5"	9901.579024503	9872.870776854	1.5	0.1
0.01	1	0.115879179000331	1	116	NA	92.2230972950001	0	0.37	1.5	1	85.3935384279994	85.5094176069997	"5"	9901.579024503	9872.870776854	1.5	0.1
0.01	1	0.0382417410000926	1	116	NA	92.2230972950001	0	0.37	1.5	1	85.7440188649998	85.7822606059999	"5"	9901.579024503	9872.870776854	1.5	0.1
0.01	1	0.00469316999988223	1	116	NA	92.2230972950001	0	0.37	1.5	1	86.0113551579998	86.0160483279997	"5"	9901.579024503	9872.870776854	1.5	0.1
0.01	1	0.010104496999702	1	116	NA	92.2230972950001	0	0.37	1.5	1	86.2449028280007	86.2550073250004	"5"	9901.579024503	9872.870776854	1.5	0.1
0.01	1	0.00205720699887024	1	116	NA	92.2230972950001	0	0.37	1.5	1	86.4787176770005	86.4807748839994	"5"	9901.579024503	9872.870776854	1.5	0.1
0.01	1	0.212715924999429	1	116	NA	92.2230972950001	0	0.37	1.5	1	86.7123914950007	86.9251074200001	"5"	9901.579024503	9872.870776854	1.5	0.1
0.01	1	0.0113092579995282	1	116	NA	92.2230972950001	0	0.37	1.5	1	87.1630734650007	87.1743827230002	"5"	9901.579024503	9872.870776854	1.5	0.1
0.01	1	0.0180620079991058	1	116	NA	92.2230972950001	0	0.37	1.5	1	87.3969042980007	87.4149663059998	"5"	9901.579024503	9872.870776854	1.5	0.1
0.01	1	0.0622445279987005	1	116	NA	92.2230972950001	0	0.37	1.5	1	87.6474113830009	87.7096559109996	"5"	9901.579024503	9872.870776854	1.5	0.1
0.01	1	0.0506125689989858	1	116	NA	92.2230972950001	0	0.37	1.5	1	87.9478006000008	87.9984131689998	"5"	9901.579024503	9872.870776854	1.5	0.1
0.01	1	0.0212654240003758	1	116	NA	92.2230972950001	0	0.37	1.5	1	88.2316807999996	88.252946224	"5"	9901.579024503	9872.870776854	1.5	0.1
0.01	1	0.0766506830004801	1	116	NA	92.2230972950001	0	0.37	1.5	1	88.4821842380006	88.5588349210011	"5"	9901.579024503	9872.870776854	1.5	0.1
0.01	1	0.0162245849987812	1	116	NA	92.2230972950001	0	0.37	1.5	1	88.7825728210009	88.7987974059997	"5"	9901.579024503	9872.870776854	1.5	0.1
0.01	1	0.0528496400002041	1	116	NA	92.2230972950001	0	0.37	1.5	1	89.0329649329997	89.0858145729999	"5"	9901.579024503	9872.870776854	1.5	0.1
0.01	1	0.0579743440011953	1	116	NA	92.2230972950001	0	0.37	1.5	1	89.3168074549994	89.3747817990006	"5"	9901.579024503	9872.870776854	1.5	0.1
0.01	1	0.053459668000869	1	116	NA	92.2230972950001	0	0.37	1.5	1	89.6005425439998	89.6540022120007	"5"	9901.579024503	9872.870776854	1.5	0.1
0.01	1	0.0487457809995249	1	116	NA	92.2230972950001	0	0.37	1.5	1	89.8844631280008	89.9332089090003	"5"	9901.579024503	9872.870776854	1.5	0.1
0.01	1	0.0540671030012163	1	116	NA	92.2230972950001	0	0.37	1.5	1	90.1681469579999	90.2222140610011	"5"	9901.579024503	9872.870776854	1.5	0.1
0.01	1	0.0509288680004829	1	116	NA	92.2230972950001	0	0.37	1.5	1	90.4519929750004	90.5029218430009	"5"	9901.579024503	9872.870776854	1.5	0.1
0.01	1	0.0459823429991957	1	116	NA	92.2230972950001	0	0.37	1.5	1	90.7359137000003	90.7818960429995	"5"	9901.579024503	9872.870776854	1.5	0.1
0.01	1	0.195253373000014	1	116	NA	92.2230972950001	0	0.37	1.5	1	91.0029946449995	91.1982480179995	"5"	9901.579024503	9872.870776854	1.5	0.1
0.01	1	0.801226154999313	2	116	NA	92.2230972950001	0	0.37	1.5	1	91.4203296750002	92.2215558299995	"5"	9901.579024503	9872.870776854	1.5	0.1
0.01	1	0.00205527299840469	1	118	NA	106.464056578001	0	0.39	1.89	1	94.2751994250011	94.2772546979995	"6"	9901.579024503	9872.870776854	1.5	0.1
0.01	1	0.0162528179989749	1	118	NA	106.464056578001	0	0.39	1.89	1	94.5089067780009	94.5251595959999	"6"	9901.579024503	9872.870776854	1.5	0.1
0.01	1	0.00208807300077751	1	118	NA	106.464056578001	0	0.39	1.89	1	94.7592577249998	94.7613457980005	"6"	9901.579024503	9872.870776854	1.5	0.1
0.01	1	0.00373926799875335	1	118	NA	106.464056578001	0	0.39	1.89	1	94.9929457880007	94.9966850559995	"6"	9901.579024503	9872.870776854	1.5	0.1
0.01	1	0.0923534639987338	1	118	NA	106.464056578001	0	0.39	1.89	1	95.2267233750008	95.3190768389995	"6"	9901.579024503	9872.870776854	1.5	0.1
0.01	1	0.00202768800045305	1	118	NA	106.464056578001	0	0.39	1.89	1	95.5438825719993	95.5459102599998	"6"	9901.579024503	9872.870776854	1.5	0.1
0.01	1	0.00221065199912118	1	118	NA	106.464056578001	0	0.39	1.89	1	95.7777118840004	95.7799225359995	"6"	9901.579024503	9872.870776854	1.5	0.1
0.01	1	0.00205015699975775	1	118	NA	106.464056578001	0	0.39	1.89	1	96.0114345040001	96.0134846609999	"6"	9901.579024503	9872.870776854	1.5	0.1
0.01	1	0.00398862600013672	1	118	NA	106.464056578001	0	0.39	1.89	1	96.2450986200001	96.2490872460003	"6"	9901.579024503	9872.870776854	1.5	0.1
0.01	1	0.00204762599969399	1	118	NA	106.464056578001	0	0.39	1.89	1	96.4787799839996	96.4808276099993	"6"	9901.579024503	9872.870776854	1.5	0.1
0.01	1	0.00206445100047858	1	118	NA	106.464056578001	0	0.39	1.89	1	96.7125262629997	96.7145907140002	"6"	9901.579024503	9872.870776854	1.5	0.1
0.01	1	0.0437152570011676	1	118	NA	106.464056578001	0	0.39	1.89	1	96.9462590229996	96.9899742800008	"6"	9901.579024503	9872.870776854	1.5	0.1
0.01	1	0.0096271259990317	1	118	NA	106.464056578001	0	0.39	1.89	1	97.2134526400005	97.2230797659995	"6"	9901.579024503	9872.870776854	1.5	0.1
0.01	1	0.0138995549987158	1	118	NA	106.464056578001	0	0.39	1.89	1	97.4472549180009	97.4611544729996	"6"	9901.579024503	9872.870776854	1.5	0.1
0.01	1	0.027500443999088	1	118	NA	106.464056578001	0	0.39	1.89	1	97.697531793001	97.7250322370001	"6"	9901.579024503	9872.870776854	1.5	0.1
0.01	1	0.0254479209997953	1	118	NA	106.464056578001	0	0.39	1.89	1	97.9479628400004	97.9734107610002	"6"	9901.579024503	9872.870776854	1.5	0.1
0.01	1	0.0232458840000618	1	118	NA	106.464056578001	0	0.39	1.89	1	98.1983657599994	98.2216116439995	"6"	9901.579024503	9872.870776854	1.5	0.1
0.01	1	0.0525091439994867	1	118	NA	106.464056578001	0	0.39	1.89	1	98.4488070980005	98.501316242	"6"	9901.579024503	9872.870776854	1.5	0.1
0.01	1	0.00959044500086748	1	118	NA	106.464056578001	0	0.39	1.89	1	98.7326608479998	98.7422512930007	"6"	9901.579024503	9872.870776854	1.5	0.1
0.01	1	0.0472169269996812	1	118	NA	106.464056578001	0	0.39	1.89	1	98.9663052730011	99.0135222000008	"6"	9901.579024503	9872.870776854	1.5	0.1
0.01	1	0.0366811850017257	1	118	NA	106.464056578001	0	0.39	1.89	1	99.2501912379994	99.2868724230011	"6"	9901.579024503	9872.870776854	1.5	0.1
0.01	1	0.00923209299980954	1	118	NA	106.464056578001	0	0.39	1.89	1	99.5172932280002	99.526525321	"6"	9901.579024503	9872.870776854	1.5	0.1
0.01	1	0.062533751999581	1	118	NA	106.464056578001	0	0.39	1.89	1	99.7509734680007	99.8135072200002	"6"	9901.579024503	9872.870776854	1.5	0.1
0.01	1	0.0830616319999535	1	118	NA	106.464056578001	0	0.39	1.89	1	100.05142634	100.134487972	"6"	9901.579024503	9872.870776854	1.5	0.1
0.01	1	0.0929181610008527	1	118	NA	106.464056578001	0	0.39	1.89	1	100.368744603	100.461662764001	"6"	9901.579024503	9872.870776854	1.5	0.1
0.01	1	0.158120447998954	1	118	NA	106.464056578001	0	0.39	1.89	1	100.702712878001	100.860833326	"6"	9901.579024503	9872.870776854	1.5	0.1
0.01	1	0.126429253001334	1	118	NA	106.464056578001	0	0.39	1.89	1	101.086717388	101.213146641001	"6"	9901.579024503	9872.870776854	1.5	0.1
0.01	1	0.0398113150004065	1	118	NA	106.464056578001	0	0.39	1.89	1	101.437214121001	101.477025436001	"6"	9901.579024503	9872.870776854	1.5	0.1
0.01	1	0.00216431000080775	1	118	NA	106.464056578001	0	0.39	1.89	1	101.704294534	101.706458844001	"6"	9901.579024503	9872.870776854	1.5	0.1
0.01	1	0.0770353079988126	1	118	NA	106.464056578001	0	0.39	1.89	1	101.938057835001	102.015093143	"6"	9901.579024503	9872.870776854	1.5	0.1
0.01	1	0.00229380300152116	1	118	NA	106.464056578001	0	0.39	1.89	1	102.238519043	102.240812846001	"6"	9901.579024503	9872.870776854	1.5	0.1
0.01	1	0.261837681000543	1	118	NA	106.464056578001	0	0.39	1.89	1	102.472332305	102.734169986001	"6"	9901.579024503	9872.870776854	1.5	0.1
0.01	1	0.00227451200044015	1	118	NA	106.464056578001	0	0.39	1.89	1	102.956466502999	102.958741015	"6"	9901.579024503	9872.870776854	1.5	0.1
0.01	1	0.174724999998944	1	118	NA	106.464056578001	0	0.39	1.89	1	103.190169953001	103.364894953	"6"	9901.579024503	9872.870776854	1.5	0.1
0.01	1	0.0072501269987697	1	118	NA	106.464056578001	0	0.39	1.89	1	103.590833133001	103.59808326	"6"	9901.579024503	9872.870776854	1.5	0.1
0.01	1	0.333685036001043	1	118	NA	106.464056578001	0	0.39	1.89	1	103.824552045	104.158237081001	"6"	9901.579024503	9872.870776854	1.5	0.1
0.01	1	0.0047218999989127	1	118	NA	106.464056578001	0	0.39	1.89	1	104.392171723001	104.396893622999	"6"	9901.579024503	9872.870776854	1.5	0.1
0.01	1	0.675764742998581	1	118	NA	106.464056578001	0	0.39	1.89	1	104.625935293001	105.301700036	"6"	9901.579024503	9872.870776854	1.5	0.1
0.01	1	0.333739970999886	1	118	NA	106.464056578001	0	0.39	1.89	1	105.527373233001	105.861113204001	"6"	9901.579024503	9872.870776854	1.5	0.1
0.01	1	0.3674619730009	2	118	NA	106.464056578001	0	0.39	1.89	1	106.09502732	106.462489293001	"6"	9901.579024503	9872.870776854	1.5	0.1
0.01	1	0.68150542299918	1	87	NA	121.720250304001	0	0.44	2.33	1	108.515687355	109.197192778	"7"	9901.579024503	9872.870776854	1.5	0.1
0.01	1	0.00401762300134578	1	87	NA	121.720250304001	0	0.44	2.33	1	109.433990213	109.438007836001	"7"	9901.579024503	9872.870776854	1.5	0.1
0.01	1	0.0900237179994292	1	87	NA	121.720250304001	0	0.44	2.33	1	109.667722260001	109.757745978	"7"	9901.579024503	9872.870776854	1.5	0.1
0.01	1	0.00398134500028391	1	87	NA	121.720250304001	0	0.44	2.33	1	109.984960592999	109.988941938	"7"	9901.579024503	9872.870776854	1.5	0.1
0.01	1	0.0602378549992864	1	87	NA	121.720250304001	0	0.44	2.33	1	110.218709840001	110.278947695	"7"	9901.579024503	9872.870776854	1.5	0.1
0.01	1	0.0020703299996967	1	87	NA	121.720250304001	0	0.44	2.33	1	110.502423217	110.504493547	"7"	9901.579024503	9872.870776854	1.5	0.1
0.01	1	0.00224565999997139	1	87	NA	121.720250304001	0	0.44	2.33	1	110.736129294	110.738374954	"7"	9901.579024503	9872.870776854	1.5	0.1
0.01	1	0.108084937999593	1	87	NA	121.720250304001	0	0.44	2.33	1	110.969855538	111.077940476	"7"	9901.579024503	9872.870776854	1.5	0.1
0.01	1	0.00473853199946461	1	87	NA	121.720250304001	0	0.44	2.33	1	111.303840303	111.308578835	"7"	9901.579024503	9872.870776854	1.5	0.1
0.01	1	0.0021723120007664	1	87	NA	121.720250304001	0	0.44	2.33	1	111.537494362999	111.539666675	"7"	9901.579024503	9872.870776854	1.5	0.1
0.01	1	0.0274311889988894	1	87	NA	121.720250304001	0	0.44	2.33	1	111.771250608001	111.798681797	"7"	9901.579024503	9872.870776854	1.5	0.1
0.01	1	0.0405123839991575	1	87	NA	121.720250304001	0	0.44	2.33	1	112.021650148001	112.062162532	"7"	9901.579024503	9872.870776854	1.5	0.1
0.01	1	0.00352917199961666	1	87	NA	121.720250304001	0	0.44	2.33	1	112.288752168	112.29228134	"7"	9901.579024503	9872.870776854	1.5	0.1
0.01	1	0.00449458600087382	1	87	NA	121.720250304001	0	0.44	2.33	1	112.522529807	112.527024393001	"7"	9901.579024503	9872.870776854	1.5	0.1
0.01	1	0.00313634200028901	1	87	NA	121.720250304001	0	0.44	2.33	1	112.756165888	112.759302230001	"7"	9901.579024503	9872.870776854	1.5	0.1
0.01	1	0.00989987499997369	1	87	NA	121.720250304001	0	0.44	2.33	1	112.989947985001	112.999847860001	"7"	9901.579024503	9872.870776854	1.5	0.1
0.01	1	0.00228186599997571	1	87	NA	121.720250304001	0	0.44	2.33	1	113.223584908001	113.225866774001	"7"	9901.579024503	9872.870776854	1.5	0.1
0.01	1	0.00228795600014564	1	87	NA	121.720250304001	0	0.44	2.33	1	113.457362706	113.459650662	"7"	9901.579024503	9872.870776854	1.5	0.1
0.01	1	0.00289800999962608	1	87	NA	121.720250304001	0	0.44	2.33	1	113.691106488001	113.694004498	"7"	9901.579024503	9872.870776854	1.5	0.1
0.01	1	0.00267892299962114	1	87	NA	121.720250304001	0	0.44	2.33	1	113.924804692	113.927483615	"7"	9901.579024503	9872.870776854	1.5	0.1
0.01	1	0.0142856060010672	1	87	NA	121.720250304001	0	0.44	2.33	1	114.158681254999	114.172966861001	"7"	9901.579024503	9872.870776854	1.5	0.1
0.01	1	0.0443699779989402	1	87	NA	121.720250304001	0	0.44	2.33	1	114.409050948001	114.453420926	"7"	9901.579024503	9872.870776854	1.5	0.1
0.01	1	0.130016577999413	1	87	NA	121.720250304001	0	0.44	2.33	1	114.676049263	114.806065841	"7"	9901.579024503	9872.870776854	1.5	0.1
0.01	1	0.106387961001019	1	87	NA	121.720250304001	0	0.44	2.33	1	115.043406498	115.149794459001	"7"	9901.579024503	9872.870776854	1.5	0.1
0.01	1	0.0123168850004731	1	87	NA	121.720250304001	0	0.44	2.33	1	115.377280515	115.389597400001	"7"	9901.579024503	9872.870776854	1.5	0.1
0.01	1	0.00215772699993977	1	87	NA	121.720250304001	0	0.44	2.33	1	115.627682677999	115.629840404999	"7"	9901.579024503	9872.870776854	1.5	0.1
0.01	1	0.0884464219998335	1	87	NA	121.720250304001	0	0.44	2.33	1	115.861480803	115.949927225	"7"	9901.579024503	9872.870776854	1.5	0.1
0.01	1	0.00399617600123747	1	87	NA	121.720250304001	0	0.44	2.33	1	116.178667048	116.182663224001	"7"	9901.579024503	9872.870776854	1.5	0.1
0.01	1	0.122220893001213	1	87	NA	121.720250304001	0	0.44	2.33	1	116.41248698	116.534707873001	"7"	9901.579024503	9872.870776854	1.5	0.1
0.01	1	0.107260448001398	1	87	NA	121.720250304001	0	0.44	2.33	1	116.762991	116.870251448001	"7"	9901.579024503	9872.870776854	1.5	0.1
0.01	1	0.00227528800132859	1	87	NA	121.720250304001	0	0.44	2.33	1	117.096826143999	117.099101432001	"7"	9901.579024503	9872.870776854	1.5	0.1
0.01	1	0.0516706209982658	1	87	NA	121.720250304001	0	0.44	2.33	1	117.330615488001	117.382286108999	"7"	9901.579024503	9872.870776854	1.5	0.1
0.01	1	0.0235661409988097	1	87	NA	121.720250304001	0	0.44	2.33	1	117.614458538001	117.638024678999	"7"	9901.579024503	9872.870776854	1.5	0.1
0.01	1	0.0297038860007888	1	87	NA	121.720250304001	0	0.44	2.33	1	117.864878034999	117.894581921	"7"	9901.579024503	9872.870776854	1.5	0.1
0.01	1	0.017358751001666	1	87	NA	121.720250304001	0	0.44	2.33	1	118.132027842999	118.149386594001	"7"	9901.579024503	9872.870776854	1.5	0.1
0.01	1	0.00816058400050679	1	87	NA	121.720250304001	0	0.44	2.33	1	118.382558678	118.390719262001	"7"	9901.579024503	9872.870776854	1.5	0.1
0.01	1	0.0139705889996549	1	87	NA	121.720250304001	0	0.44	2.33	1	118.616052175001	118.630022764	"7"	9901.579024503	9872.870776854	1.5	0.1
0.01	1	0.123076067999136	1	87	NA	121.720250304001	0	0.44	2.33	1	118.86655219	118.989628257999	"7"	9901.579024503	9872.870776854	1.5	0.1
0.01	1	0.00844703400071012	1	87	NA	121.720250304001	0	0.44	2.33	1	119.217058938	119.225505972001	"7"	9901.579024503	9872.870776854	1.5	0.1
0.01	1	0.00346361399897432	1	87	NA	121.720250304001	0	0.44	2.33	1	119.450809010001	119.454272624	"7"	9901.579024503	9872.870776854	1.5	0.1
0.01	1	0.00352156999906583	1	87	NA	121.720250304001	0	0.44	2.33	1	119.68447686	119.687998429999	"7"	9901.579024503	9872.870776854	1.5	0.1
0.01	1	0.135686698000427	1	87	NA	121.720250304001	0	0.44	2.33	1	119.918204404999	120.053891103	"7"	9901.579024503	9872.870776854	1.5	0.1
0.01	1	0.488337750000937	1	87	NA	121.720250304001	0	0.44	2.33	1	120.285534922999	120.773872673	"7"	9901.579024503	9872.870776854	1.5	0.1
0.01	1	0.00477966500147886	1	87	NA	121.720250304001	0	0.44	2.33	1	121.003608038	121.008387703001	"7"	9901.579024503	9872.870776854	1.5	0.1
0.01	1	0.481530586999725	2	87	NA	121.720250304001	0	0.44	2.33	1	121.237169683	121.718700269999	"7"	9901.579024503	9872.870776854	1.5	0.1
0.01	1	0.015671007000492	1	6	125.180326977999	NA	1	0	2.33	1	123.774846124999	123.790517132	"8"	9901.579024503	9872.870776854	1.5	0.1
0.01	1	0.00210654299917223	1	6	125.180326977999	NA	1	0	2.33	1	124.025192712001	124.027299255	"8"	9901.579024503	9872.870776854	1.5	0.1
0.01	1	0.106258161998994	1	6	125.180326977999	NA	1	0	2.33	1	124.258943933	124.365202094999	"8"	9901.579024503	9872.870776854	1.5	0.1
0.01	1	0.00227399699906528	1	6	125.180326977999	NA	1	0	2.33	1	124.592782063	124.595056059999	"8"	9901.579024503	9872.870776854	1.5	0.1
0.01	1	0.00400189800166117	1	6	125.180326977999	NA	1	0	2.33	1	124.826548487999	124.830550386001	"8"	9901.579024503	9872.870776854	1.5	0.1
0.01	1	0.00946540199947776	1	6	125.180326977999	NA	1	0	2.33	1	125.060289413001	125.069754815	"8"	9901.579024503	9872.870776854	1.5	0.1
0.01	1	0.29597260599985	1	106	NA	141.358450787	0	0.45	2.78	1	127.213872393	127.509844999	"9"	9901.579024503	9872.870776854	1.5	0.1
0.01	1	0.00218288799987931	1	106	NA	141.358450787	0	0.45	2.78	1	127.748083076	127.750265963999	"9"	9901.579024503	9872.870776854	1.5	0.1
0.01	1	0.00408590599909076	1	106	NA	141.358450787	0	0.45	2.78	1	127.981861128001	127.985947034	"9"	9901.579024503	9872.870776854	1.5	0.1
0.01	1	0.0314425489996211	1	106	NA	141.358450787	0	0.45	2.78	1	128.21554024	128.246982789	"9"	9901.579024503	9872.870776854	1.5	0.1
0.01	1	0.00216325600013079	1	106	NA	141.358450787	0	0.45	2.78	1	128.482736051999	128.484899308	"9"	9901.579024503	9872.870776854	1.5	0.1
0.01	1	0.00301151799976651	1	106	NA	141.358450787	0	0.45	2.78	1	128.716378866	128.719390384	"9"	9901.579024503	9872.870776854	1.5	0.1
0.01	1	0.00928813599966816	1	106	NA	141.358450787	0	0.45	2.78	1	128.950157403	128.959445539	"9"	9901.579024503	9872.870776854	1.5	0.1
0.01	1	0.0388929990003817	1	106	NA	141.358450787	0	0.45	2.78	1	129.183789785	129.222682784	"9"	9901.579024503	9872.870776854	1.5	0.1
0.01	1	0.0119739750007284	1	106	NA	141.358450787	0	0.45	2.78	1	129.4509273	129.462901275001	"9"	9901.579024503	9872.870776854	1.5	0.1
0.01	1	0.0249748919995909	1	106	NA	141.358450787	0	0.45	2.78	1	129.70142356	129.726398452	"9"	9901.579024503	9872.870776854	1.5	0.1
0.01	1	0.014030061000085	1	106	NA	141.358450787	0	0.45	2.78	1	129.951927468001	129.965957529001	"9"	9901.579024503	9872.870776854	1.5	0.1
0.01	1	0.00747801099896606	1	106	NA	141.358450787	0	0.45	2.78	1	130.202180063001	130.209658074	"9"	9901.579024503	9872.870776854	1.5	0.1
0.01	1	0.00388620100056869	1	106	NA	141.358450787	0	0.45	2.78	1	130.435875943	130.439762144	"9"	9901.579024503	9872.870776854	1.5	0.1
0.01	1	0.0115300239995122	1	106	NA	141.358450787	0	0.45	2.78	1	130.669694968001	130.681224992	"9"	9901.579024503	9872.870776854	1.5	0.1
0.01	1	0.0150897489984345	1	106	NA	141.358450787	0	0.45	2.78	1	130.903475180001	130.918564928999	"9"	9901.579024503	9872.870776854	1.5	0.1
0.01	1	0.00307748699924559	1	106	NA	141.358450787	0	0.45	2.78	1	131.154050933001	131.15712842	"9"	9901.579024503	9872.870776854	1.5	0.1
0.01	1	0.00213952000012796	1	106	NA	141.358450787	0	0.45	2.78	1	131.387586912	131.389726432	"9"	9901.579024503	9872.870776854	1.5	0.1
0.01	1	0.00247622999995656	1	106	NA	141.358450787	0	0.45	2.78	1	131.621307124	131.623783354	"9"	9901.579024503	9872.870776854	1.5	0.1
0.01	1	0.00228760299978603	1	106	NA	141.358450787	0	0.45	2.78	1	131.854943163	131.857230766	"9"	9901.579024503	9872.870776854	1.5	0.1
0.01	1	0.00214812800004438	1	106	NA	141.358450787	0	0.45	2.78	1	132.088843795	132.090991923	"9"	9901.579024503	9872.870776854	1.5	0.1
0.01	1	0.00209539299976313	1	106	NA	141.358450787	0	0.45	2.78	1	132.322501045001	132.324596438	"9"	9901.579024503	9872.870776854	1.5	0.1
0.01	1	0.00399120000110997	1	106	NA	141.358450787	0	0.45	2.78	1	132.556259088	132.560250288001	"9"	9901.579024503	9872.870776854	1.5	0.1
0.01	1	0.00395556100011163	1	106	NA	141.358450787	0	0.45	2.78	1	132.789950472999	132.793906034	"9"	9901.579024503	9872.870776854	1.5	0.1
0.01	1	0.00407391100088716	1	106	NA	141.358450787	0	0.45	2.78	1	133.023684753	133.027758664	"9"	9901.579024503	9872.870776854	1.5	0.1
0.01	1	0.0039178439983516	1	106	NA	141.358450787	0	0.45	2.78	1	133.257453608001	133.261371451999	"9"	9901.579024503	9872.870776854	1.5	0.1
0.01	1	0.00226374600060808	1	106	NA	141.358450787	0	0.45	2.78	1	133.491220746	133.493484492001	"9"	9901.579024503	9872.870776854	1.5	0.1
0.01	1	0.0021158950003155	1	106	NA	141.358450787	0	0.45	2.78	1	133.724833987	133.726949882001	"9"	9901.579024503	9872.870776854	1.5	0.1
0.01	1	0.00227949399959471	1	106	NA	141.358450787	0	0.45	2.78	1	133.958597180001	133.960876674	"9"	9901.579024503	9872.870776854	1.5	0.1
0.01	1	0.00356291800017061	1	106	NA	141.358450787	0	0.45	2.78	1	134.192281124	134.195844042	"9"	9901.579024503	9872.870776854	1.5	0.1
0.01	1	0.0194859140010522	1	106	NA	141.358450787	0	0.45	2.78	1	134.425999487999	134.445485402	"9"	9901.579024503	9872.870776854	1.5	0.1
0.01	1	0.024871677000192	1	106	NA	141.358450787	0	0.45	2.78	1	134.676447995	134.701319672	"9"	9901.579024503	9872.870776854	1.5	0.1
0.01	1	0.0629441689998202	1	106	NA	141.358450787	0	0.45	2.78	1	134.926979643	134.989923812	"9"	9901.579024503	9872.870776854	1.5	0.1
0.01	1	0.0509062519995496	1	106	NA	141.358450787	0	0.45	2.78	1	135.227387803001	135.278294055001	"9"	9901.579024503	9872.870776854	1.5	0.1
0.01	1	0.0217564409995248	1	106	NA	141.358450787	0	0.45	2.78	1	135.511210255001	135.532966696001	"9"	9901.579024503	9872.870776854	1.5	0.1
0.01	1	0.0445464000003994	1	106	NA	141.358450787	0	0.45	2.78	1	135.761697233	135.806243633	"9"	9901.579024503	9872.870776854	1.5	0.1
0.01	1	0.42609458699917	1	106	NA	141.358450787	0	0.45	2.78	1	136.028761273001	136.45485586	"9"	9901.579024503	9872.870776854	1.5	0.1
0.01	1	0.00411083399922063	1	106	NA	141.358450787	0	0.45	2.78	1	136.679807028	136.683917861999	"9"	9901.579024503	9872.870776854	1.5	0.1
0.01	1	0.307605429001342	1	106	NA	141.358450787	0	0.45	2.78	1	136.913530502999	137.221135932001	"9"	9901.579024503	9872.870776854	1.5	0.1
0.01	1	0.00729019900063577	1	106	NA	141.358450787	0	0.45	2.78	1	137.447807515	137.455097714001	"9"	9901.579024503	9872.870776854	1.5	0.1
0.01	1	0.172605535000912	1	106	NA	141.358450787	0	0.45	2.78	1	137.681563438	137.854168973001	"9"	9901.579024503	9872.870776854	1.5	0.1
0.01	1	0.0671162070011633	1	106	NA	141.358450787	0	0.45	2.78	1	138.082180205	138.149296412001	"9"	9901.579024503	9872.870776854	1.5	0.1
0.01	1	0.382411869999487	1	106	NA	141.358450787	0	0.45	2.78	1	138.38268174	138.76509361	"9"	9901.579024503	9872.870776854	1.5	0.1
0.01	1	0.269723851999515	1	106	NA	141.358450787	0	0.45	2.78	1	139.000353465	139.270077317	"9"	9901.579024503	9872.870776854	1.5	0.1
0.01	1	0.36920414999986	1	106	NA	141.358450787	0	0.45	2.78	1	139.501277723	139.870481873	"9"	9901.579024503	9872.870776854	1.5	0.1
0.01	1	0.575241352000376	1	106	NA	141.358450787	0	0.45	2.78	1	140.102234298	140.67747565	"9"	9901.579024503	9872.870776854	1.5	0.1
0.01	1	0.453192708000643	2	106	NA	141.358450787	0	0.45	2.78	1	140.903619195	141.356811903001	"9"	9901.579024503	9872.870776854	1.5	0.1
0.01	1	0.150990861000537	1	21	149.020058255001	NA	1	0	2.78	1	143.407770368	143.558761229	"10"	9901.579024503	9872.870776854	1.5	0.1
0.01	1	0.199090999998589	1	21	149.020058255001	NA	1	0	2.78	1	143.791870213001	143.990961213	"10"	9901.579024503	9872.870776854	1.5	0.1
0.01	1	0.0767670629993518	1	21	149.020058255001	NA	1	0	2.78	1	144.225876648001	144.302643711	"10"	9901.579024503	9872.870776854	1.5	0.1
0.01	1	0.0958302580002055	1	21	149.020058255001	NA	1	0	2.78	1	144.526265958	144.622096216001	"10"	9901.579024503	9872.870776854	1.5	0.1
0.01	1	0.0432837970001856	1	21	149.020058255001	NA	1	0	2.78	1	144.843571545	144.886855342	"10"	9901.579024503	9872.870776854	1.5	0.1
0.01	1	0.00404917299965746	1	21	149.020058255001	NA	1	0	2.78	1	145.110630203	145.114679376	"10"	9901.579024503	9872.870776854	1.5	0.1
0.01	1	0.00205589399956807	1	21	149.020058255001	NA	1	0	2.78	1	145.344454295	145.346510189	"10"	9901.579024503	9872.870776854	1.5	0.1
0.01	1	0.00206601599893474	1	21	149.020058255001	NA	1	0	2.78	1	145.578155057001	145.580221073	"10"	9901.579024503	9872.870776854	1.5	0.1
0.01	1	0.121729382999547	1	21	149.020058255001	NA	1	0	2.78	1	145.811865253001	145.933594636001	"10"	9901.579024503	9872.870776854	1.5	0.1
0.01	1	0.00204483899869956	1	21	149.020058255001	NA	1	0	2.78	1	146.162528316001	146.164573155	"10"	9901.579024503	9872.870776854	1.5	0.1
0.01	1	0.0039446520004276	1	21	149.020058255001	NA	1	0	2.78	1	146.396096188	146.400040840001	"10"	9901.579024503	9872.870776854	1.5	0.1
0.01	1	0.0046638219992019	1	21	149.020058255001	NA	1	0	2.78	1	146.629997853001	146.634661675	"10"	9901.579024503	9872.870776854	1.5	0.1
0.01	1	0.13345845799995	1	21	149.020058255001	NA	1	0	2.78	1	146.863652803	146.997111261	"10"	9901.579024503	9872.870776854	1.5	0.1
0.01	1	0.00869549100025324	1	21	149.020058255001	NA	1	0	2.78	1	147.230919305	147.239614796001	"10"	9901.579024503	9872.870776854	1.5	0.1
0.01	1	0.0296575749998738	1	21	149.020058255001	NA	1	0	2.78	1	147.464598318	147.494255893	"10"	9901.579024503	9872.870776854	1.5	0.1
0.01	1	0.0022679160010739	1	21	149.020058255001	NA	1	0	2.78	1	147.731967113999	147.73423503	"10"	9901.579024503	9872.870776854	1.5	0.1
0.01	1	0.00460760699934326	1	21	149.020058255001	NA	1	0	2.78	1	147.965503518	147.970111125	"10"	9901.579024503	9872.870776854	1.5	0.1
0.01	1	0.00211245199898258	1	21	149.020058255001	NA	1	0	2.78	1	148.199236234001	148.201348686	"10"	9901.579024503	9872.870776854	1.5	0.1
0.01	1	0.00467544200000702	1	21	149.020058255001	NA	1	0	2.78	1	148.432972492999	148.437647934999	"10"	9901.579024503	9872.870776854	1.5	0.1
0.01	1	0.00401157499982219	1	21	149.020058255001	NA	1	0	2.78	1	148.666745583001	148.670757158001	"10"	9901.579024503	9872.870776854	1.5	0.1
0.01	1	0.00382924899895443	1	21	149.020058255001	NA	1	0	2.78	1	148.900367243001	148.904196492	"10"	9901.579024503	9872.870776854	1.5	0.1
0.01	1	0.247672261999469	1	19	156.050073845001	NA	1	0	2.78	1	151.070613193	151.318285455	"11"	9901.579024503	9872.870776854	1.5	0.1
0.01	1	0.00221801000043342	1	19	156.050073845001	NA	1	0	2.78	1	151.554866353999	151.557084364	"11"	9901.579024503	9872.870776854	1.5	0.1
0.01	1	0.00482167200061667	1	19	156.050073845001	NA	1	0	2.78	1	151.788647108	151.793468780001	"11"	9901.579024503	9872.870776854	1.5	0.1
0.01	1	0.0786717139999382	1	19	156.050073845001	NA	1	0	2.78	1	152.022354813	152.101026527	"11"	9901.579024503	9872.870776854	1.5	0.1
0.01	1	0.00210739099929924	1	19	156.050073845001	NA	1	0	2.78	1	152.322846167001	152.324953558	"11"	9901.579024503	9872.870776854	1.5	0.1
0.01	1	0.00209924900082115	1	19	156.050073845001	NA	1	0	2.78	1	152.556581344999	152.558680594	"11"	9901.579024503	9872.870776854	1.5	0.1
0.01	1	0.104422202999558	1	19	156.050073845001	NA	1	0	2.78	1	152.790325923001	152.894748126	"11"	9901.579024503	9872.870776854	1.5	0.1
0.01	1	0.00218388400026015	1	19	156.050073845001	NA	1	0	2.78	1	153.124184298	153.126368182	"11"	9901.579024503	9872.870776854	1.5	0.1
0.01	1	0.00392535500031954	1	19	156.050073845001	NA	1	0	2.78	1	153.357903755001	153.361829110001	"11"	9901.579024503	9872.870776854	1.5	0.1
0.01	1	0.103057414000432	1	19	156.050073845001	NA	1	0	2.78	1	153.591515983	153.694573397001	"11"	9901.579024503	9872.870776854	1.5	0.1
0.01	1	0.00214197199966293	1	19	156.050073845001	NA	1	0	2.78	1	153.925466492001	153.927608464001	"11"	9901.579024503	9872.870776854	1.5	0.1
0.01	1	0.0047238870010915	1	19	156.050073845001	NA	1	0	2.78	1	154.159206118	154.163930005001	"11"	9901.579024503	9872.870776854	1.5	0.1
0.01	1	0.03787528400062	1	19	156.050073845001	NA	1	0	2.78	1	154.393006408	154.430881692	"11"	9901.579024503	9872.870776854	1.5	0.1
0.01	1	0.0428537790012342	1	19	156.050073845001	NA	1	0	2.78	1	154.660041513	154.702895292001	"11"	9901.579024503	9872.870776854	1.5	0.1
0.01	1	0.0217282300000079	1	19	156.050073845001	NA	1	0	2.78	1	154.927153805	154.948882035	"11"	9901.579024503	9872.870776854	1.5	0.1
0.01	1	0.051935161000074	1	19	156.050073845001	NA	1	0	2.78	1	155.177592197	155.229527358	"11"	9901.579024503	9872.870776854	1.5	0.1
0.01	1	0.00224553999942145	1	19	156.050073845001	NA	1	0	2.78	1	155.461391416	155.463636955999	"11"	9901.579024503	9872.870776854	1.5	0.1
0.01	1	0.00706673199965735	1	19	156.050073845001	NA	1	0	2.78	1	155.695214880001	155.702281612001	"11"	9901.579024503	9872.870776854	1.5	0.1
0.01	1	0.00234934599939152	1	19	156.050073845001	NA	1	0	2.78	1	155.928853894	155.931203239999	"11"	9901.579024503	9872.870776854	1.5	0.1
0.01	1	0.730218781000076	1	63	NA	166.607483223001	0	0.2	2.98	1	158.099145178001	158.829363959001	"12"	9901.579024503	9872.870776854	1.5	0.1
0.01	1	0.00211088300056872	1	63	NA	166.607483223001	0	0.2	2.98	1	159.067519713	159.069630596001	"12"	9901.579024503	9872.870776854	1.5	0.1
0.01	1	0.00403827199988882	1	63	NA	166.607483223001	0	0.2	2.98	1	159.301225198	159.30526347	"12"	9901.579024503	9872.870776854	1.5	0.1
0.01	1	0.135606944999381	1	63	NA	166.607483223001	0	0.2	2.98	1	159.534846795001	159.67045374	"12"	9901.579024503	9872.870776854	1.5	0.1
0.01	1	0.0022118449996924	1	63	NA	166.607483223001	0	0.2	2.98	1	159.902211073	159.904422918	"12"	9901.579024503	9872.870776854	1.5	0.1
0.01	1	0.00217500299913809	1	63	NA	166.607483223001	0	0.2	2.98	1	160.136003834001	160.138178837	"12"	9901.579024503	9872.870776854	1.5	0.1
0.01	1	0.00470982200022263	1	63	NA	166.607483223001	0	0.2	2.98	1	160.369611718001	160.374321540001	"12"	9901.579024503	9872.870776854	1.5	0.1
0.01	1	0.114279039000394	1	63	NA	166.607483223001	0	0.2	2.98	1	160.603422927999	160.717701967	"12"	9901.579024503	9872.870776854	1.5	0.1
0.01	1	0.0021486810001079	1	63	NA	166.607483223001	0	0.2	2.98	1	160.954113103	160.956261784	"12"	9901.579024503	9872.870776854	1.5	0.1
0.01	1	0.00473843200052215	1	63	NA	166.607483223001	0	0.2	2.98	1	161.187748873001	161.192487305001	"12"	9901.579024503	9872.870776854	1.5	0.1
0.01	1	0.137279272999876	1	63	NA	166.607483223001	0	0.2	2.98	1	161.421497058	161.558776331	"12"	9901.579024503	9872.870776854	1.5	0.1
0.01	1	0.00213181599974632	1	63	NA	166.607483223001	0	0.2	2.98	1	161.788705618001	161.790837434	"12"	9901.579024503	9872.870776854	1.5	0.1
0.01	1	0.00455084799978067	1	63	NA	166.607483223001	0	0.2	2.98	1	162.022401278	162.026952126	"12"	9901.579024503	9872.870776854	1.5	0.1
0.01	1	0.110757243999615	1	63	NA	166.607483223001	0	0.2	2.98	1	162.256245435001	162.367002679001	"12"	9901.579024503	9872.870776854	1.5	0.1
0.01	1	0.0716000320007879	1	63	NA	166.607483223001	0	0.2	2.98	1	162.590137326	162.661737358001	"12"	9901.579024503	9872.870776854	1.5	0.1
0.01	1	0.362887636998494	1	63	NA	166.607483223001	0	0.2	2.98	1	162.890603363001	163.253490999999	"12"	9901.579024503	9872.870776854	1.5	0.1
0.01	1	0.314454556999408	1	63	NA	166.607483223001	0	0.2	2.98	1	163.474855118	163.789309674999	"12"	9901.579024503	9872.870776854	1.5	0.1
0.01	1	0.356875175000823	1	63	NA	166.607483223001	0	0.2	2.98	1	164.025973547999	164.382848723	"12"	9901.579024503	9872.870776854	1.5	0.1
0.01	1	0.412851521001357	1	63	NA	166.607483223001	0	0.2	2.98	1	164.610149022999	165.023000544001	"12"	9901.579024503	9872.870776854	1.5	0.1
0.01	1	0.287863042000026	1	63	NA	166.607483223001	0	0.2	2.98	1	165.261224753	165.549087795	"12"	9901.579024503	9872.870776854	1.5	0.1
0.01	1	0.827160090999314	2	63	NA	166.607483223001	0	0.2	2.98	1	165.778747405	166.605907495999	"12"	9901.579024503	9872.870776854	1.5	0.1
0.01	1	0.0430207219997101	1	54	NA	182.934564689	0	0.46	3.44	1	168.650331508001	168.693352230001	"13"	9901.579024503	9872.870776854	1.5	0.1
0.01	1	0.00222358499922848	1	54	NA	182.934564689	0	0.46	3.44	1	168.934123504001	168.936347089	"13"	9901.579024503	9872.870776854	1.5	0.1
0.01	1	0.00465583200093533	1	54	NA	182.934564689	0	0.46	3.44	1	169.167797702999	169.172453535	"13"	9901.579024503	9872.870776854	1.5	0.1
0.01	1	0.117238187000112	1	54	NA	182.934564689	0	0.46	3.44	1	169.401532803	169.51877099	"13"	9901.579024503	9872.870776854	1.5	0.1
0.01	1	0.00218144499922346	1	54	NA	182.934564689	0	0.46	3.44	1	169.752202121001	169.754383566	"13"	9901.579024503	9872.870776854	1.5	0.1
0.01	1	0.00395874700006971	1	54	NA	182.934564689	0	0.46	3.44	1	169.985876973	169.98983572	"13"	9901.579024503	9872.870776854	1.5	0.1
0.01	1	0.00455911999961245	1	54	NA	182.934564689	0	0.46	3.44	1	170.219650593001	170.224209713	"13"	9901.579024503	9872.870776854	1.5	0.1
0.01	1	0.129405779000081	1	54	NA	182.934564689	0	0.46	3.44	1	170.453240013001	170.582645792001	"13"	9901.579024503	9872.870776854	1.5	0.1
0.01	1	0.00476093999895966	1	54	NA	182.934564689	0	0.46	3.44	1	170.820523718001	170.825284658	"13"	9901.579024503	9872.870776854	1.5	0.1
0.01	1	0.151632522	1	54	NA	182.934564689	0	0.46	3.44	1	171.054314793	171.205947315	"13"	9901.579024503	9872.870776854	1.5	0.1
0.01	1	0.00385090800045873	1	54	NA	182.934564689	0	0.46	3.44	1	171.438275930001	171.442126838001	"13"	9901.579024503	9872.870776854	1.5	0.1
0.01	1	0.0021791929993924	1	54	NA	182.934564689	0	0.46	3.44	1	171.672104733001	171.674283926	"13"	9901.579024503	9872.870776854	1.5	0.1
0.01	1	0.00230894800006354	1	54	NA	182.934564689	0	0.46	3.44	1	171.905736345001	171.908045293001	"13"	9901.579024503	9872.870776854	1.5	0.1
0.01	1	0.00204976100030763	1	54	NA	182.934564689	0	0.46	3.44	1	172.139424736	172.141474497001	"13"	9901.579024503	9872.870776854	1.5	0.1
0.01	1	0.00211559700073849	1	54	NA	182.934564689	0	0.46	3.44	1	172.373177927	172.375293524001	"13"	9901.579024503	9872.870776854	1.5	0.1
0.01	1	0.00214281999978994	1	54	NA	182.934564689	0	0.46	3.44	1	172.606992407	172.609135227	"13"	9901.579024503	9872.870776854	1.5	0.1
0.01	1	0.00213723699926049	1	54	NA	182.934564689	0	0.46	3.44	1	172.840678765	172.842816001999	"13"	9901.579024503	9872.870776854	1.5	0.1
0.01	1	0.0039618260016141	1	54	NA	182.934564689	0	0.46	3.44	1	173.074370677999	173.078332504001	"13"	9901.579024503	9872.870776854	1.5	0.1
0.01	1	0.144770335999056	1	54	NA	182.934564689	0	0.46	3.44	1	173.308140413001	173.452910749	"13"	9901.579024503	9872.870776854	1.5	0.1
0.01	1	0.506140098001197	1	54	NA	182.934564689	0	0.46	3.44	1	173.675454785	174.181594883001	"13"	9901.579024503	9872.870776854	1.5	0.1
0.01	1	0.011762328000259	1	54	NA	182.934564689	0	0.46	3.44	1	174.409953113	174.421715441	"13"	9901.579024503	9872.870776854	1.5	0.1
0.01	1	0.186268228000699	1	54	NA	182.934564689	0	0.46	3.44	1	174.643638987	174.829907215	"13"	9901.579024503	9872.870776854	1.5	0.1
0.01	1	0.0336413579989312	1	54	NA	182.934564689	0	0.46	3.44	1	175.061055833001	175.094697191	"13"	9901.579024503	9872.870776854	1.5	0.1
0.01	1	0.0224863550010923	1	54	NA	182.934564689	0	0.46	3.44	1	175.328222022999	175.350708378	"13"	9901.579024503	9872.870776854	1.5	0.1
0.01	1	0.148439067999789	1	54	NA	182.934564689	0	0.46	3.44	1	175.578527625001	175.726966693001	"13"	9901.579024503	9872.870776854	1.5	0.1
0.01	1	0.0279945509992103	1	54	NA	182.934564689	0	0.46	3.44	1	175.962528158001	175.990522709	"13"	9901.579024503	9872.870776854	1.5	0.1
0.01	1	0.113660379000066	1	54	NA	182.934564689	0	0.46	3.44	1	176.213036347001	176.326696726001	"13"	9901.579024503	9872.870776854	1.5	0.1
0.01	1	0.137463126000512	1	54	NA	182.934564689	0	0.46	3.44	1	176.563602103	176.701065229001	"13"	9901.579024503	9872.870776854	1.5	0.1
0.01	1	0.00418756099861639	1	54	NA	182.934564689	0	0.46	3.44	1	176.930947033001	176.935134593999	"13"	9901.579024503	9872.870776854	1.5	0.1
0.01	1	0.00394289799987746	1	54	NA	182.934564689	0	0.46	3.44	1	177.164604698	177.168547596	"13"	9901.579024503	9872.870776854	1.5	0.1
0.01	1	0.00380328300161636	1	54	NA	182.934564689	0	0.46	3.44	1	177.398367342999	177.402170626001	"13"	9901.579024503	9872.870776854	1.5	0.1
0.01	1	0.102238999999827	1	54	NA	182.934564689	0	0.46	3.44	1	177.632065258	177.734304258	"13"	9901.579024503	9872.870776854	1.5	0.1
0.01	1	0.00225177599895687	1	54	NA	182.934564689	0	0.46	3.44	1	177.965994886001	177.968246662	"13"	9901.579024503	9872.870776854	1.5	0.1
0.01	1	0.1334745690001	1	54	NA	182.934564689	0	0.46	3.44	1	178.199608675	178.333083244001	"13"	9901.579024503	9872.870776854	1.5	0.1
0.01	1	0.0233009559997299	1	54	NA	182.934564689	0	0.46	3.44	1	178.56692526	178.590226216	"13"	9901.579024503	9872.870776854	1.5	0.1
0.01	1	0.00361569399865402	1	54	NA	182.934564689	0	0.46	3.44	1	178.817410298001	178.821025992	"13"	9901.579024503	9872.870776854	1.5	0.1
0.01	1	0.067698796001423	1	54	NA	182.934564689	0	0.46	3.44	1	179.051097367999	179.118796164001	"13"	9901.579024503	9872.870776854	1.5	0.1
0.01	1	0.157927571999608	1	54	NA	182.934564689	0	0.46	3.44	1	179.351560151001	179.509487723	"13"	9901.579024503	9872.870776854	1.5	0.1
0.01	1	0.0462171839990333	1	54	NA	182.934564689	0	0.46	3.44	1	179.735573903001	179.781791087	"13"	9901.579024503	9872.870776854	1.5	0.1
0.01	1	0.106341573000464	1	54	NA	182.934564689	0	0.46	3.44	1	180.019390345	180.125731918	"13"	9901.579024503	9872.870776854	1.5	0.1
0.01	1	0.0995622149985138	1	54	NA	182.934564689	0	0.46	3.44	1	180.353295938001	180.452858152999	"13"	9901.579024503	9872.870776854	1.5	0.1
0.01	1	0.0797631950008508	1	54	NA	182.934564689	0	0.46	3.44	1	180.687180875	180.766944070001	"13"	9901.579024503	9872.870776854	1.5	0.1
0.01	1	0.0254214239994326	1	54	NA	182.934564689	0	0.46	3.44	1	181.004442723	181.029864147	"13"	9901.579024503	9872.870776854	1.5	0.1
0.01	1	0.0464584419987659	1	54	NA	182.934564689	0	0.46	3.44	1	181.254721098001	181.30117954	"13"	9901.579024503	9872.870776854	1.5	0.1
0.01	1	0.506283385999268	1	54	NA	182.934564689	0	0.46	3.44	1	181.538691138001	182.044974524	"13"	9901.579024503	9872.870776854	1.5	0.1
0.01	1	0.00211718799982918	1	54	NA	182.934564689	0	0.46	3.44	1	182.273187846	182.275305034	"13"	9901.579024503	9872.870776854	1.5	0.1
0.01	1	0.426090670000121	2	54	NA	182.934564689	0	0.46	3.44	1	182.506887617999	182.932978288	"13"	9901.579024503	9872.870776854	1.5	0.1
0.01	1	1.80455368700132	1	103	NA	203.774794359	0	0.55	3.99	1	184.977721836	186.782275523001	"14"	9901.579024503	9872.870776854	1.5	0.1
0.01	1	0.00397355899985996	1	103	NA	203.774794359	0	0.55	3.99	1	187.014471975001	187.018445534	"14"	9901.579024503	9872.870776854	1.5	0.1
0.01	1	0.00370564600052603	1	103	NA	203.774794359	0	0.55	3.99	1	187.248240999999	187.251946646	"14"	9901.579024503	9872.870776854	1.5	0.1
0.01	1	0.00227866299974266	1	103	NA	203.774794359	0	0.55	3.99	1	187.481946267	187.48422493	"14"	9901.579024503	9872.870776854	1.5	0.1
0.01	1	0.00967802600098366	1	103	NA	203.774794359	0	0.55	3.99	1	187.715730137999	187.725408164	"14"	9901.579024503	9872.870776854	1.5	0.1
0.01	1	0.0255265489995509	1	103	NA	203.774794359	0	0.55	3.99	1	187.949393258001	187.974919807	"14"	9901.579024503	9872.870776854	1.5	0.1
0.01	1	0.0138329630008229	1	103	NA	203.774794359	0	0.55	3.99	1	188.199790678	188.213623641001	"14"	9901.579024503	9872.870776854	1.5	0.1
0.01	1	0.0196725799996784	1	103	NA	203.774794359	0	0.55	3.99	1	188.450244998001	188.469917578001	"14"	9901.579024503	9872.870776854	1.5	0.1
0.01	1	0.00209737400109589	1	103	NA	203.774794359	0	0.55	3.99	1	188.700699542	188.702796916001	"14"	9901.579024503	9872.870776854	1.5	0.1
0.01	1	0.127451353000652	1	103	NA	203.774794359	0	0.55	3.99	1	188.934458207999	189.061909561	"14"	9901.579024503	9872.870776854	1.5	0.1
0.01	1	0.00264000399874931	1	103	NA	203.774794359	0	0.55	3.99	1	189.284969034001	189.287609038	"14"	9901.579024503	9872.870776854	1.5	0.1
0.01	1	0.00203805300043314	1	103	NA	203.774794359	0	0.55	3.99	1	189.51877156	189.520809613001	"14"	9901.579024503	9872.870776854	1.5	0.1
0.01	1	0.00396661099875928	1	103	NA	203.774794359	0	0.55	3.99	1	189.752413755001	189.756380366	"14"	9901.579024503	9872.870776854	1.5	0.1
0.01	1	0.00392838500010839	1	103	NA	203.774794359	0	0.55	3.99	1	189.986222785001	189.990151170001	"14"	9901.579024503	9872.870776854	1.5	0.1
0.01	1	0.122339909999937	1	103	NA	203.774794359	0	0.55	3.99	1	190.219937068001	190.342276978001	"14"	9901.579024503	9872.870776854	1.5	0.1
0.01	1	0.00212045100124669	1	103	NA	203.774794359	0	0.55	3.99	1	190.570526783	190.572647234001	"14"	9901.579024503	9872.870776854	1.5	0.1
0.01	1	0.00227982499927748	1	103	NA	203.774794359	0	0.55	3.99	1	190.804211910001	190.806491735	"14"	9901.579024503	9872.870776854	1.5	0.1
0.01	1	0.0040905070000008	1	103	NA	203.774794359	0	0.55	3.99	1	191.037848995	191.041939502	"14"	9901.579024503	9872.870776854	1.5	0.1
0.01	1	0.00387820099967939	1	103	NA	203.774794359	0	0.55	3.99	1	191.271645095001	191.275523296001	"14"	9901.579024503	9872.870776854	1.5	0.1
0.01	1	0.0041198130002158	1	103	NA	203.774794359	0	0.55	3.99	1	191.505391983001	191.509511796001	"14"	9901.579024503	9872.870776854	1.5	0.1
0.01	1	0.162962554999467	1	103	NA	203.774794359	0	0.55	3.99	1	191.739191820001	191.902154375	"14"	9901.579024503	9872.870776854	1.5	0.1
0.01	1	0.00418732300022384	1	103	NA	203.774794359	0	0.55	3.99	1	192.139789545001	192.143976868001	"14"	9901.579024503	9872.870776854	1.5	0.1
0.01	1	0.00244390300031228	1	103	NA	203.774794359	0	0.55	3.99	1	192.373534210001	192.375978113001	"14"	9901.579024503	9872.870776854	1.5	0.1
0.01	1	0.00363295500028471	1	103	NA	203.774794359	0	0.55	3.99	1	192.607210675	192.61084363	"14"	9901.579024503	9872.870776854	1.5	0.1
0.01	1	0.00228069699915068	1	103	NA	203.774794359	0	0.55	3.99	1	192.840968983	192.84324968	"14"	9901.579024503	9872.870776854	1.5	0.1
0.01	1	0.00227811299919267	1	103	NA	203.774794359	0	0.55	3.99	1	193.074781270001	193.077059383	"14"	9901.579024503	9872.870776854	1.5	0.1
0.01	1	0.00227795499995409	1	103	NA	203.774794359	0	0.55	3.99	1	193.30839344	193.310671395	"14"	9901.579024503	9872.870776854	1.5	0.1
0.01	1	0.00215403699985472	1	103	NA	203.774794359	0	0.55	3.99	1	193.542094766	193.544248803	"14"	9901.579024503	9872.870776854	1.5	0.1
0.01	1	0.00225735499952862	1	103	NA	203.774794359	0	0.55	3.99	1	193.775956653	193.778214008	"14"	9901.579024503	9872.870776854	1.5	0.1
0.01	1	0.00216319100036344	1	103	NA	203.774794359	0	0.55	3.99	1	194.009664727	194.011827918001	"14"	9901.579024503	9872.870776854	1.5	0.1
0.01	1	0.00228110300122353	1	103	NA	203.774794359	0	0.55	3.99	1	194.243253361999	194.245534465001	"14"	9901.579024503	9872.870776854	1.5	0.1
0.01	1	0.0101935309994587	1	103	NA	203.774794359	0	0.55	3.99	1	194.476982865001	194.487176396	"14"	9901.579024503	9872.870776854	1.5	0.1
0.01	1	0.0147677670011035	1	103	NA	203.774794359	0	0.55	3.99	1	194.710814098	194.725581865001	"14"	9901.579024503	9872.870776854	1.5	0.1
0.01	1	0.00347160800083657	1	103	NA	203.774794359	0	0.55	3.99	1	194.961198744	194.964670352001	"14"	9901.579024503	9872.870776854	1.5	0.1
0.01	1	0.00471332499910204	1	103	NA	203.774794359	0	0.55	3.99	1	195.194885118	195.199598443	"14"	9901.579024503	9872.870776854	1.5	0.1
0.01	1	0.00430174499888381	1	103	NA	203.774794359	0	0.55	3.99	1	195.428797500001	195.433099245	"14"	9901.579024503	9872.870776854	1.5	0.1
0.01	1	0.00407628300126817	1	103	NA	203.774794359	0	0.55	3.99	1	195.662462883	195.666539166001	"14"	9901.579024503	9872.870776854	1.5	0.1
0.01	1	0.158083153000916	1	103	NA	203.774794359	0	0.55	3.99	1	195.896127193	196.054210346001	"14"	9901.579024503	9872.870776854	1.5	0.1
0.01	1	0.00834512900109985	1	103	NA	203.774794359	0	0.55	3.99	1	196.280157243	196.288502372001	"14"	9901.579024503	9872.870776854	1.5	0.1
0.01	1	0.140217485999528	1	103	NA	203.774794359	0	0.55	3.99	1	196.513795518	196.654013003999	"14"	9901.579024503	9872.870776854	1.5	0.1
0.01	1	0.0678834249993088	1	103	NA	203.774794359	0	0.55	3.99	1	196.881128408	196.949011833	"14"	9901.579024503	9872.870776854	1.5	0.1
0.01	1	0.0323325690005731	1	103	NA	203.774794359	0	0.55	3.99	1	197.181617515	197.213950084	"14"	9901.579024503	9872.870776854	1.5	0.1
0.01	1	0.0217610700001387	1	103	NA	203.774794359	0	0.55	3.99	1	197.448836108	197.470597178	"14"	9901.579024503	9872.870776854	1.5	0.1
0.01	1	0.0580115979992115	1	103	NA	203.774794359	0	0.55	3.99	1	197.699217785001	197.757229383	"14"	9901.579024503	9872.870776854	1.5	0.1
0.01	1	0.214804085000651	1	103	NA	203.774794359	0	0.55	3.99	1	197.982992148	198.197796233	"14"	9901.579024503	9872.870776854	1.5	0.1
0.01	1	0.00330416600081662	1	103	NA	203.774794359	0	0.55	3.99	1	198.4337091	198.437013266001	"14"	9901.579024503	9872.870776854	1.5	0.1
0.01	1	0.257392314999379	1	103	NA	203.774794359	0	0.55	3.99	1	198.66744626	198.924838575	"14"	9901.579024503	9872.870776854	1.5	0.1
0.01	1	0.429379512999731	1	103	NA	203.774794359	0	0.55	3.99	1	199.151573305	199.580952818	"14"	9901.579024503	9872.870776854	1.5	0.1
0.01	1	0.0191869760001282	1	103	NA	203.774794359	0	0.55	3.99	1	199.819319440001	199.838506416001	"14"	9901.579024503	9872.870776854	1.5	0.1
0.01	1	0.327545037998789	1	103	NA	203.774794359	0	0.55	3.99	1	200.069840485001	200.397385523	"14"	9901.579024503	9872.870776854	1.5	0.1
0.01	1	0.329462699000942	1	103	NA	203.774794359	0	0.55	3.99	1	200.620763948	200.950226647001	"14"	9901.579024503	9872.870776854	1.5	0.1
0.01	1	0.0333239210012835	1	103	NA	203.774794359	0	0.55	3.99	1	201.171705082999	201.205029004001	"14"	9901.579024503	9872.870776854	1.5	0.1
0.01	1	0.415429319000395	1	103	NA	203.774794359	0	0.55	3.99	1	201.43869121	201.854120529	"14"	9901.579024503	9872.870776854	1.5	0.1
0.01	1	0.00228096399951028	1	103	NA	203.774794359	0	0.55	3.99	1	202.089829274	202.092110238	"14"	9901.579024503	9872.870776854	1.5	0.1
0.01	1	0.713563203000376	1	103	NA	203.774794359	0	0.55	3.99	1	202.323584493	203.037147696001	"14"	9901.579024503	9872.870776854	1.5	0.1
0.01	1	0.498044297000888	2	103	NA	203.774794359	0	0.55	3.99	1	203.275204726	203.773249023001	"14"	9901.579024503	9872.870776854	1.5	0.1
0.01	1	0.153392927000823	1	120	NA	231.743206698	0	0.78	4.77	1	205.829521288	205.982914215001	"15"	9901.579024503	9872.870776854	1.5	0.1
0.01	1	0.00203530900034821	1	120	NA	231.743206698	0	0.78	4.77	1	206.213505553	206.215540862	"15"	9901.579024503	9872.870776854	1.5	0.1
0.01	1	0.141733614000259	1	120	NA	231.743206698	0	0.78	4.77	1	206.447208138001	206.588941752001	"15"	9901.579024503	9872.870776854	1.5	0.1
0.01	1	0.00473842000064906	1	120	NA	231.743206698	0	0.78	4.77	1	206.814583513	206.819321933001	"15"	9901.579024503	9872.870776854	1.5	0.1
0.01	1	0.118208075000439	1	120	NA	231.743206698	0	0.78	4.77	1	207.048227948	207.166436023001	"15"	9901.579024503	9872.870776854	1.5	0.1
0.01	1	0.0037392499998532	1	120	NA	231.743206698	0	0.78	4.77	1	207.3988345	207.40257375	"15"	9901.579024503	9872.870776854	1.5	0.1
0.01	1	0.0764361830006237	1	120	NA	231.743206698	0	0.78	4.77	1	207.632489572999	207.708925756	"15"	9901.579024503	9872.870776854	1.5	0.1
0.01	1	0.00368062000052305	1	120	NA	231.743206698	0	0.78	4.77	1	207.933006658001	207.936687278001	"15"	9901.579024503	9872.870776854	1.5	0.1
0.01	1	0.00215393100006622	1	120	NA	231.743206698	0	0.78	4.77	1	208.166752776	208.168906707	"15"	9901.579024503	9872.870776854	1.5	0.1
0.01	1	0.0035016199999518	1	120	NA	231.743206698	0	0.78	4.77	1	208.40049898	208.4040006	"15"	9901.579024503	9872.870776854	1.5	0.1
0.01	1	0.0913872239998454	1	120	NA	231.743206698	0	0.78	4.77	1	208.634172233	208.725559457	"15"	9901.579024503	9872.870776854	1.5	0.1
0.01	1	0.00227107599857845	1	120	NA	231.743206698	0	0.78	4.77	1	208.951397127001	208.953668202999	"15"	9901.579024503	9872.870776854	1.5	0.1
0.01	1	0.00219062900032441	1	120	NA	231.743206698	0	0.78	4.77	1	209.185147034999	209.187337664	"15"	9901.579024503	9872.870776854	1.5	0.1
0.01	1	0.00227082499986864	1	120	NA	231.743206698	0	0.78	4.77	1	209.418828157	209.421098982	"15"	9901.579024503	9872.870776854	1.5	0.1
0.01	1	0.120694870000079	1	120	NA	231.743206698	0	0.78	4.77	1	209.65261374	209.77330861	"15"	9901.579024503	9872.870776854	1.5	0.1
0.01	1	0.0021648659985658	1	120	NA	231.743206698	0	0.78	4.77	1	210.003163847001	210.005328712999	"15"	9901.579024503	9872.870776854	1.5	0.1
0.01	1	0.00408776900076191	1	120	NA	231.743206698	0	0.78	4.77	1	210.236865793	210.240953562001	"15"	9901.579024503	9872.870776854	1.5	0.1
0.01	1	0.118192293000902	1	120	NA	231.743206698	0	0.78	4.77	1	210.470718408	210.588910701001	"15"	9901.579024503	9872.870776854	1.5	0.1
0.01	1	0.00234170600015204	1	120	NA	231.743206698	0	0.78	4.77	1	210.821229788	210.823571494	"15"	9901.579024503	9872.870776854	1.5	0.1
0.01	1	0.00458723500014457	1	120	NA	231.743206698	0	0.78	4.77	1	211.054980773	211.059568008	"15"	9901.579024503	9872.870776854	1.5	0.1
0.01	1	0.125442616001237	1	120	NA	231.743206698	0	0.78	4.77	1	211.288637045	211.414079661001	"15"	9901.579024503	9872.870776854	1.5	0.1
0.01	1	0.00211165899963817	1	120	NA	231.743206698	0	0.78	4.77	1	211.639259843001	211.641371502001	"15"	9901.579024503	9872.870776854	1.5	0.1
0.01	1	0.00463568499981193	1	120	NA	231.743206698	0	0.78	4.77	1	211.872976658	211.877612343	"15"	9901.579024503	9872.870776854	1.5	0.1
0.01	1	0.00398161199882452	1	120	NA	231.743206698	0	0.78	4.77	1	212.106729438001	212.11071105	"15"	9901.579024503	9872.870776854	1.5	0.1
0.01	1	0.00414268100030313	1	120	NA	231.743206698	0	0.78	4.77	1	212.340489845001	212.344632526001	"15"	9901.579024503	9872.870776854	1.5	0.1
0.01	1	0.104176987999381	1	120	NA	231.743206698	0	0.78	4.77	1	212.574154725	212.678331712999	"15"	9901.579024503	9872.870776854	1.5	0.1
0.01	1	0.00212616399949184	1	120	NA	231.743206698	0	0.78	4.77	1	212.908076681	212.910202845	"15"	9901.579024503	9872.870776854	1.5	0.1
0.01	1	0.00402592799946433	1	120	NA	231.743206698	0	0.78	4.77	1	213.14173388	213.145759808	"15"	9901.579024503	9872.870776854	1.5	0.1
0.01	1	0.00206089099992823	1	120	NA	231.743206698	0	0.78	4.77	1	213.375495153001	213.377556044001	"15"	9901.579024503	9872.870776854	1.5	0.1
0.01	1	0.00409280500025488	1	120	NA	231.743206698	0	0.78	4.77	1	213.609238673	213.613331478	"15"	9901.579024503	9872.870776854	1.5	0.1
0.01	1	0.0984517500000948	1	120	NA	231.743206698	0	0.78	4.77	1	213.842988267999	213.941440017999	"15"	9901.579024503	9872.870776854	1.5	0.1
0.01	1	0.00362632599899371	1	120	NA	231.743206698	0	0.78	4.77	1	214.176818920001	214.180445246	"15"	9901.579024503	9872.870776854	1.5	0.1
0.01	1	0.00205083599939826	1	120	NA	231.743206698	0	0.78	4.77	1	214.410654437001	214.412705273	"15"	9901.579024503	9872.870776854	1.5	0.1
0.01	1	0.00469460999920557	1	120	NA	231.743206698	0	0.78	4.77	1	214.644433608	214.649128218	"15"	9901.579024503	9872.870776854	1.5	0.1
0.01	1	0.00210879400037811	1	120	NA	231.743206698	0	0.78	4.77	1	214.878091594001	214.880200388001	"15"	9901.579024503	9872.870776854	1.5	0.1
0.01	1	0.00400593300037144	1	120	NA	231.743206698	0	0.78	4.77	1	215.111814655	215.115820588	"15"	9901.579024503	9872.870776854	1.5	0.1
0.01	1	0.00396663600076863	1	120	NA	231.743206698	0	0.78	4.77	1	215.345460787999	215.349427424	"15"	9901.579024503	9872.870776854	1.5	0.1
0.01	1	0.00393526299922087	1	120	NA	231.743206698	0	0.78	4.77	1	215.579222435001	215.583157698	"15"	9901.579024503	9872.870776854	1.5	0.1
0.01	1	0.00444308400074078	1	120	NA	231.743206698	0	0.78	4.77	1	215.812929883999	215.817372968	"15"	9901.579024503	9872.870776854	1.5	0.1
0.01	1	0.00379167499886535	1	120	NA	231.743206698	0	0.78	4.77	1	216.046764983001	216.050556658	"15"	9901.579024503	9872.870776854	1.5	0.1
0.01	1	0.00228467399938381	1	120	NA	231.743206698	0	0.78	4.77	1	216.280440188	216.282724862	"15"	9901.579024503	9872.870776854	1.5	0.1
0.01	1	0.00226106999980402	1	120	NA	231.743206698	0	0.78	4.77	1	216.514045399001	216.516306469	"15"	9901.579024503	9872.870776854	1.5	0.1
0.01	1	0.0254204220000247	1	120	NA	231.743206698	0	0.78	4.77	1	216.747860268	216.77328069	"15"	9901.579024503	9872.870776854	1.5	0.1
0.01	1	0.0641210150006373	1	120	NA	231.743206698	0	0.78	4.77	1	216.998311088	217.062432103001	"15"	9901.579024503	9872.870776854	1.5	0.1
0.01	1	0.06597335799961	1	120	NA	231.743206698	0	0.78	4.77	1	217.298827965	217.364801322999	"15"	9901.579024503	9872.870776854	1.5	0.1
0.01	1	0.0857776989996637	1	120	NA	231.743206698	0	0.78	4.77	1	217.599328078	217.685105777	"15"	9901.579024503	9872.870776854	1.5	0.1
0.01	1	0.0806001950004429	1	120	NA	231.743206698	0	0.78	4.77	1	217.916521583	217.997121778	"15"	9901.579024503	9872.870776854	1.5	0.1
0.01	1	0.115821114000937	1	120	NA	231.743206698	0	0.78	4.77	1	218.233677655	218.349498769001	"15"	9901.579024503	9872.870776854	1.5	0.1
0.01	1	0.429622993000521	1	120	NA	231.743206698	0	0.78	4.77	1	218.584205013	219.013828006	"15"	9901.579024503	9872.870776854	1.5	0.1
0.01	1	0.730615307000335	1	120	NA	231.743206698	0	0.78	4.77	1	219.25213936	219.982754667	"15"	9901.579024503	9872.870776854	1.5	0.1
0.01	1	0.377373624000029	1	120	NA	231.743206698	0	0.78	4.77	1	220.220393353	220.597766977	"15"	9901.579024503	9872.870776854	1.5	0.1
0.01	1	0.00228378400061047	1	120	NA	231.743206698	0	0.78	4.77	1	220.82146648	220.823750264	"15"	9901.579024503	9872.870776854	1.5	0.1
0.01	1	0.0631873099991935	1	120	NA	231.743206698	0	0.78	4.77	1	221.05513692	221.118324229999	"15"	9901.579024503	9872.870776854	1.5	0.1
0.01	1	0.00289887800136057	1	120	NA	231.743206698	0	0.78	4.77	1	221.355584788	221.358483666001	"15"	9901.579024503	9872.870776854	1.5	0.1
0.01	1	0.00210447000063141	1	120	NA	231.743206698	0	0.78	4.77	1	221.589379085	221.591483555001	"15"	9901.579024503	9872.870776854	1.5	0.1
0.01	1	0.00227211799938232	1	120	NA	231.743206698	0	0.78	4.77	1	221.823047952001	221.82532007	"15"	9901.579024503	9872.870776854	1.5	0.1
0.01	1	0.00884621899967897	1	120	NA	231.743206698	0	0.78	4.77	1	222.056775073001	222.065621292	"15"	9901.579024503	9872.870776854	1.5	0.1
0.01	1	0.227854062000915	1	120	NA	231.743206698	0	0.78	4.77	1	222.290525245	222.518379307001	"15"	9901.579024503	9872.870776854	1.5	0.1
0.01	1	0.257173723999585	1	120	NA	231.743206698	0	0.78	4.77	1	222.741312738	222.998486462	"15"	9901.579024503	9872.870776854	1.5	0.1
0.01	1	0.0296149629994034	1	120	NA	231.743206698	0	0.78	4.77	1	223.225363788	223.254978751	"15"	9901.579024503	9872.870776854	1.5	0.1
0.01	1	0.00215801199919952	1	120	NA	231.743206698	0	0.78	4.77	1	223.492528914001	223.494686926	"15"	9901.579024503	9872.870776854	1.5	0.1
0.01	1	0.0640364709997812	1	120	NA	231.743206698	0	0.78	4.77	1	223.726306705001	223.790343176001	"15"	9901.579024503	9872.870776854	1.5	0.1
0.01	1	0.554271607999908	1	120	NA	231.743206698	0	0.78	4.77	1	224.026753683	224.581025291	"15"	9901.579024503	9872.870776854	1.5	0.1
0.01	1	0.355167219999203	1	120	NA	231.743206698	0	0.78	4.77	1	224.811393633001	225.166560853	"15"	9901.579024503	9872.870776854	1.5	0.1
0.01	1	0.0182810429996607	1	120	NA	231.743206698	0	0.78	4.77	1	225.395677524	225.413958567	"15"	9901.579024503	9872.870776854	1.5	0.1
0.01	1	0.0645666199998232	1	120	NA	231.743206698	0	0.78	4.77	1	225.646145408	225.710712028	"15"	9901.579024503	9872.870776854	1.5	0.1
0.01	1	0.370983056000114	1	120	NA	231.743206698	0	0.78	4.77	1	225.946766498	226.317749554	"15"	9901.579024503	9872.870776854	1.5	0.1
0.01	1	0.490854585999841	1	120	NA	231.743206698	0	0.78	4.77	1	226.547639723	227.038494308999	"15"	9901.579024503	9872.870776854	1.5	0.1
0.01	1	1.33294517800095	1	120	NA	231.743206698	0	0.78	4.77	1	227.265693634999	228.598638813	"15"	9901.579024503	9872.870776854	1.5	0.1
0.01	1	0.0021104360002937	1	120	NA	231.743206698	0	0.78	4.77	1	228.834833858	228.836944294	"15"	9901.579024503	9872.870776854	1.5	0.1
0.01	1	0.153601903999515	1	120	NA	231.743206698	0	0.78	4.77	1	229.068647962	229.222249865999	"15"	9901.579024503	9872.870776854	1.5	0.1
0.01	1	0.00209843100128637	1	120	NA	231.743206698	0	0.78	4.77	1	229.452558172999	229.454656604001	"15"	9901.579024503	9872.870776854	1.5	0.1
0.01	1	0.00218048899841961	1	120	NA	231.743206698	0	0.78	4.77	1	229.686377035001	229.688557523999	"15"	9901.579024503	9872.870776854	1.5	0.1
0.01	1	0.00391222899997956	1	120	NA	231.743206698	0	0.78	4.77	1	229.919995833001	229.923908062001	"15"	9901.579024503	9872.870776854	1.5	0.1
0.01	1	0.0838136719994509	1	120	NA	231.743206698	0	0.78	4.77	1	230.153762928001	230.2375766	"15"	9901.579024503	9872.870776854	1.5	0.1
0.01	1	0.00233395400027803	1	120	NA	231.743206698	0	0.78	4.77	1	230.470974743001	230.473308697001	"15"	9901.579024503	9872.870776854	1.5	0.1
0.01	1	0.085225487999196	1	120	NA	231.743206698	0	0.78	4.77	1	230.704766118	230.789991606	"15"	9901.579024503	9872.870776854	1.5	0.1
0.01	1	0.00849791200016625	1	120	NA	231.743206698	0	0.78	4.77	1	231.021863193	231.030361105	"15"	9901.579024503	9872.870776854	1.5	0.1
0.01	1	0.485979868000868	2	120	NA	231.743206698	0	0.78	4.77	1	231.255559608	231.741539476001	"15"	9901.579024503	9872.870776854	1.5	0.1
0.01	1	0.00391970599957858	1	109	NA	254.856050673001	0	0.74	5.51	1	233.793227238	233.797146944	"16"	9901.579024503	9872.870776854	1.5	0.1
0.01	1	0.114293647000522	1	109	NA	254.856050673001	0	0.74	5.51	1	234.02691438	234.141208027	"16"	9901.579024503	9872.870776854	1.5	0.1
0.01	1	0.00216179399831162	1	109	NA	254.856050673001	0	0.74	5.51	1	234.377574334001	234.379736127999	"16"	9901.579024503	9872.870776854	1.5	0.1
0.01	1	0.106981679000455	1	109	NA	254.856050673001	0	0.74	5.51	1	234.611238558	234.718220237	"16"	9901.579024503	9872.870776854	1.5	0.1
0.01	1	0.00205001299946161	1	109	NA	254.856050673001	0	0.74	5.51	1	234.945148458	234.947198471	"16"	9901.579024503	9872.870776854	1.5	0.1
0.01	1	0.00393753199932689	1	109	NA	254.856050673001	0	0.74	5.51	1	235.178794638001	235.18273217	"16"	9901.579024503	9872.870776854	1.5	0.1
0.01	1	0.0966944560004777	1	109	NA	254.856050673001	0	0.74	5.51	1	235.412696473	235.509390929001	"16"	9901.579024503	9872.870776854	1.5	0.1
0.01	1	0.00225721199967666	1	109	NA	254.856050673001	0	0.74	5.51	1	235.746579431001	235.748836643001	"16"	9901.579024503	9872.870776854	1.5	0.1
0.01	1	0.0664305020000029	1	109	NA	254.856050673001	0	0.74	5.51	1	235.980201253	236.046631755	"16"	9901.579024503	9872.870776854	1.5	0.1
0.01	1	0.00381592700068722	1	109	NA	254.856050673001	0	0.74	5.51	1	236.280719394999	236.284535322	"16"	9901.579024503	9872.870776854	1.5	0.1
0.01	1	0.10744737999994	1	109	NA	254.856050673001	0	0.74	5.51	1	236.514401478	236.621848858	"16"	9901.579024503	9872.870776854	1.5	0.1
0.01	1	0.0022871290002513	1	109	NA	254.856050673001	0	0.74	5.51	1	236.848285774	236.850572903	"16"	9901.579024503	9872.870776854	1.5	0.1
0.01	1	0.0912168810009462	1	109	NA	254.856050673001	0	0.74	5.51	1	237.082106868	237.173323749001	"16"	9901.579024503	9872.870776854	1.5	0.1
0.01	1	0.00464013000055274	1	109	NA	254.856050673001	0	0.74	5.51	1	237.399274963	237.403915093	"16"	9901.579024503	9872.870776854	1.5	0.1
0.01	1	0.00477797999883478	1	109	NA	254.856050673001	0	0.74	5.51	1	237.633106958001	237.637884938	"16"	9901.579024503	9872.870776854	1.5	0.1
0.01	1	0.0822631219998584	1	109	NA	254.856050673001	0	0.74	5.51	1	237.866781575	237.949044696999	"16"	9901.579024503	9872.870776854	1.5	0.1
0.01	1	0.00829964900003688	1	109	NA	254.856050673001	0	0.74	5.51	1	238.183974683001	238.192274332001	"16"	9901.579024503	9872.870776854	1.5	0.1
0.01	1	0.0121095169997716	1	109	NA	254.856050673001	0	0.74	5.51	1	238.417688813	238.42979833	"16"	9901.579024503	9872.870776854	1.5	0.1
0.01	1	0.0898400249989209	1	109	NA	254.856050673001	0	0.74	5.51	1	238.651398128	238.741238152999	"16"	9901.579024503	9872.870776854	1.5	0.1
0.01	1	0.100916219000283	1	109	NA	254.856050673001	0	0.74	5.51	1	238.968576738	239.069492957	"16"	9901.579024503	9872.870776854	1.5	0.1
0.01	1	0.838829205000366	1	109	NA	254.856050673001	0	0.74	5.51	1	239.302489848	240.141319053	"16"	9901.579024503	9872.870776854	1.5	0.1
0.01	1	0.0507913210003608	1	109	NA	254.856050673001	0	0.74	5.51	1	240.370992157999	240.421783479	"16"	9901.579024503	9872.870776854	1.5	0.1
0.01	1	0.0798383780002041	1	109	NA	254.856050673001	0	0.74	5.51	1	240.654745113001	240.734583491001	"16"	9901.579024503	9872.870776854	1.5	0.1
0.01	1	0.00208399400071357	1	109	NA	254.856050673001	0	0.74	5.51	1	240.972034216	240.974118210001	"16"	9901.579024503	9872.870776854	1.5	0.1
0.01	1	0.0802674429996841	1	109	NA	254.856050673001	0	0.74	5.51	1	241.205760733001	241.286028176	"16"	9901.579024503	9872.870776854	1.5	0.1
0.01	1	0.00211003099866502	1	109	NA	254.856050673001	0	0.74	5.51	1	241.522917595001	241.525027625999	"16"	9901.579024503	9872.870776854	1.5	0.1
0.01	1	0.0820366900006775	1	109	NA	254.856050673001	0	0.74	5.51	1	241.756536075	241.838572765	"16"	9901.579024503	9872.870776854	1.5	0.1
0.01	1	0.0047068420008145	1	109	NA	254.856050673001	0	0.74	5.51	1	242.073848272999	242.078555115	"16"	9901.579024503	9872.870776854	1.5	0.1
0.01	1	0.00377555500017479	1	109	NA	254.856050673001	0	0.74	5.51	1	242.307458185	242.31123374	"16"	9901.579024503	9872.870776854	1.5	0.1
0.01	1	0.10565767999833	1	109	NA	254.856050673001	0	0.74	5.51	1	242.541270953001	242.646928632999	"16"	9901.579024503	9872.870776854	1.5	0.1
0.01	1	0.00215178600046784	1	109	NA	254.856050673001	0	0.74	5.51	1	242.875241632	242.877393418001	"16"	9901.579024503	9872.870776854	1.5	0.1
0.01	1	0.0041312339999422	1	109	NA	254.856050673001	0	0.74	5.51	1	243.108823228	243.112954462	"16"	9901.579024503	9872.870776854	1.5	0.1
0.01	1	0.110236446998897	1	109	NA	254.856050673001	0	0.74	5.51	1	243.342614233001	243.45285068	"16"	9901.579024503	9872.870776854	1.5	0.1
0.01	1	0.00237593599922548	1	109	NA	254.856050673001	0	0.74	5.51	1	243.676555398	243.678931334	"16"	9901.579024503	9872.870776854	1.5	0.1
0.01	1	0.00212689100044372	1	109	NA	254.856050673001	0	0.74	5.51	1	243.910215383999	243.912342275	"16"	9901.579024503	9872.870776854	1.5	0.1
0.01	1	0.101959509998778	1	109	NA	254.856050673001	0	0.74	5.51	1	244.143922110001	244.24588162	"16"	9901.579024503	9872.870776854	1.5	0.1
0.01	1	0.00240135500098404	1	109	NA	254.856050673001	0	0.74	5.51	1	244.477764922	244.480166277001	"16"	9901.579024503	9872.870776854	1.5	0.1
0.01	1	0.00472901200009801	1	109	NA	254.856050673001	0	0.74	5.51	1	244.711556163	244.716285175	"16"	9901.579024503	9872.870776854	1.5	0.1
0.01	1	0.125210674999835	1	109	NA	254.856050673001	0	0.74	5.51	1	244.945297223001	245.070507898001	"16"	9901.579024503	9872.870776854	1.5	0.1
0.01	1	0.00237347099937324	1	109	NA	254.856050673001	0	0.74	5.51	1	245.295861876	245.298235347	"16"	9901.579024503	9872.870776854	1.5	0.1
0.01	1	0.00223387599908165	1	109	NA	254.856050673001	0	0.74	5.51	1	245.529653538	245.531887413999	"16"	9901.579024503	9872.870776854	1.5	0.1
0.01	1	0.00456042999940109	1	109	NA	254.856050673001	0	0.74	5.51	1	245.763398913001	245.767959343	"16"	9901.579024503	9872.870776854	1.5	0.1
0.01	1	0.00397698499909893	1	109	NA	254.856050673001	0	0.74	5.51	1	245.997132783001	246.001109768	"16"	9901.579024503	9872.870776854	1.5	0.1
0.01	1	0.00471944999844709	1	109	NA	254.856050673001	0	0.74	5.51	1	246.230861383001	246.235580832999	"16"	9901.579024503	9872.870776854	1.5	0.1
0.01	1	0.132998123999641	1	109	NA	254.856050673001	0	0.74	5.51	1	246.464487263	246.597485386999	"16"	9901.579024503	9872.870776854	1.5	0.1
0.01	1	0.00829974299995229	1	109	NA	254.856050673001	0	0.74	5.51	1	246.831896003001	246.840195746001	"16"	9901.579024503	9872.870776854	1.5	0.1
0.01	1	0.00805283899899223	1	109	NA	254.856050673001	0	0.74	5.51	1	247.065545043	247.073597881999	"16"	9901.579024503	9872.870776854	1.5	0.1
0.01	1	0.00303257399900758	1	109	NA	254.856050673001	0	0.74	5.51	1	247.299223120001	247.302255694	"16"	9901.579024503	9872.870776854	1.5	0.1
0.01	1	0.00479201499911142	1	109	NA	254.856050673001	0	0.74	5.51	1	247.533022138001	247.537814153	"16"	9901.579024503	9872.870776854	1.5	0.1
0.01	1	0.00390897100078291	1	109	NA	254.856050673001	0	0.74	5.51	1	247.766681693	247.770590664	"16"	9901.579024503	9872.870776854	1.5	0.1
0.01	1	0.00378256200019678	1	109	NA	254.856050673001	0	0.74	5.51	1	248.000453168001	248.004235730001	"16"	9901.579024503	9872.870776854	1.5	0.1
0.01	1	0.123064258999875	1	109	NA	254.856050673001	0	0.74	5.51	1	248.234161228	248.357225487	"16"	9901.579024503	9872.870776854	1.5	0.1
0.01	1	0.00223251400166191	1	109	NA	254.856050673001	0	0.74	5.51	1	248.584807765999	248.587040280001	"16"	9901.579024503	9872.870776854	1.5	0.1
0.01	1	0.00478092699995614	1	109	NA	254.856050673001	0	0.74	5.51	1	248.818549053	248.823329979999	"16"	9901.579024503	9872.870776854	1.5	0.1
0.01	1	0.00474012699851301	1	109	NA	254.856050673001	0	0.74	5.51	1	249.052159193001	249.05689932	"16"	9901.579024503	9872.870776854	1.5	0.1
0.01	1	0.00464185200144129	1	109	NA	254.856050673001	0	0.74	5.51	1	249.285931132999	249.290572985001	"16"	9901.579024503	9872.870776854	1.5	0.1
0.01	1	0.110757234999255	1	109	NA	254.856050673001	0	0.74	5.51	1	249.519668893001	249.630426128	"16"	9901.579024503	9872.870776854	1.5	0.1
0.01	1	0.00212626400025329	1	109	NA	254.856050673001	0	0.74	5.51	1	249.853618313	249.855744577	"16"	9901.579024503	9872.870776854	1.5	0.1
0.01	1	0.00211979400046403	1	109	NA	254.856050673001	0	0.74	5.51	1	250.087305933001	250.089425727001	"16"	9901.579024503	9872.870776854	1.5	0.1
0.01	1	0.00366681800005608	1	109	NA	254.856050673001	0	0.74	5.51	1	250.32102374	250.324690558	"16"	9901.579024503	9872.870776854	1.5	0.1
0.01	1	0.00371230299970193	1	109	NA	254.856050673001	0	0.74	5.51	1	250.554795933	250.558508235999	"16"	9901.579024503	9872.870776854	1.5	0.1
0.01	1	0.104357522999635	1	109	NA	254.856050673001	0	0.74	5.51	1	250.788537648001	250.892895171	"16"	9901.579024503	9872.870776854	1.5	0.1
0.01	1	0.00402617399959126	1	109	NA	254.856050673001	0	0.74	5.51	1	251.122328128	251.126354302	"16"	9901.579024503	9872.870776854	1.5	0.1
0.01	1	0.0261073349993239	1	109	NA	254.856050673001	0	0.74	5.51	1	251.356126963001	251.382234298	"16"	9901.579024503	9872.870776854	1.5	0.1
0.01	1	0.00214858999970602	1	109	NA	254.856050673001	0	0.74	5.51	1	251.606591594	251.608740184	"16"	9901.579024503	9872.870776854	1.5	0.1
0.01	1	0.0021408109987533	1	109	NA	254.856050673001	0	0.74	5.51	1	251.840257912001	251.842398723	"16"	9901.579024503	9872.870776854	1.5	0.1
0.01	1	0.00383375300043554	1	109	NA	254.856050673001	0	0.74	5.51	1	252.074011485	252.077845238	"16"	9901.579024503	9872.870776854	1.5	0.1
0.01	1	0.385542095000346	1	109	NA	254.856050673001	0	0.74	5.51	1	252.307731808	252.693273903	"16"	9901.579024503	9872.870776854	1.5	0.1
0.01	1	0.00213972999881662	1	109	NA	254.856050673001	0	0.74	5.51	1	252.925416976001	252.927556705999	"16"	9901.579024503	9872.870776854	1.5	0.1
0.01	1	0.00390356800016889	1	109	NA	254.856050673001	0	0.74	5.51	1	253.159133798001	253.163037366001	"16"	9901.579024503	9872.870776854	1.5	0.1
0.01	1	0.00395186700006889	1	109	NA	254.856050673001	0	0.74	5.51	1	253.392890945001	253.396842812001	"16"	9901.579024503	9872.870776854	1.5	0.1
0.01	1	0.106496071999572	1	109	NA	254.856050673001	0	0.74	5.51	1	253.626638383001	253.733134455	"16"	9901.579024503	9872.870776854	1.5	0.1
0.01	1	0.00209890199948859	1	109	NA	254.856050673001	0	0.74	5.51	1	253.960649404	253.962748305999	"16"	9901.579024503	9872.870776854	1.5	0.1
0.01	1	0.00208845300039684	1	109	NA	254.856050673001	0	0.74	5.51	1	254.194160568	254.196249021001	"16"	9901.579024503	9872.870776854	1.5	0.1
0.01	1	0.426504548000594	2	109	NA	254.856050673001	0	0.74	5.51	1	254.427944839999	254.854449388	"16"	9901.579024503	9872.870776854	1.5	0.1
0.01	1	0.00395637699875806	1	71	274.464151708	NA	1	0	5.51	1	256.882039083001	256.885995459999	"17"	9901.579024503	9872.870776854	1.5	0.1
0.01	1	0.0736120319998008	1	71	274.464151708	NA	1	0	5.51	1	257.115738578001	257.18935061	"17"	9901.579024503	9872.870776854	1.5	0.1
0.01	1	0.00218833200051449	1	71	274.464151708	NA	1	0	5.51	1	257.416303046	257.418491378001	"17"	9901.579024503	9872.870776854	1.5	0.1
0.01	1	0.00372540799980925	1	71	274.464151708	NA	1	0	5.51	1	257.65006002	257.653785428	"17"	9901.579024503	9872.870776854	1.5	0.1
0.01	1	0.115224298999237	1	71	274.464151708	NA	1	0	5.51	1	257.883740253001	257.998964552	"17"	9901.579024503	9872.870776854	1.5	0.1
0.01	1	0.00409637799930351	1	71	274.464151708	NA	1	0	5.51	1	258.234278758	258.238375135999	"17"	9901.579024503	9872.870776854	1.5	0.1
0.01	1	0.00390600600076141	1	71	274.464151708	NA	1	0	5.51	1	258.46815126	258.472057266001	"17"	9901.579024503	9872.870776854	1.5	0.1
0.01	1	0.00385594900035358	1	71	274.464151708	NA	1	0	5.51	1	258.701791805001	258.705647754001	"17"	9901.579024503	9872.870776854	1.5	0.1
0.01	1	0.00414978200024052	1	71	274.464151708	NA	1	0	5.51	1	258.93552436	258.939674142001	"17"	9901.579024503	9872.870776854	1.5	0.1
0.01	1	0.00390203099959763	1	71	274.464151708	NA	1	0	5.51	1	259.169230615	259.173132645999	"17"	9901.579024503	9872.870776854	1.5	0.1
0.01	1	0.00227705200086348	1	71	274.464151708	NA	1	0	5.51	1	259.402937905999	259.405214958	"17"	9901.579024503	9872.870776854	1.5	0.1
0.01	1	0.00436445500054106	1	71	274.464151708	NA	1	0	5.51	1	259.636611693	259.640976148001	"17"	9901.579024503	9872.870776854	1.5	0.1
0.01	1	0.00226407399895834	1	71	274.464151708	NA	1	0	5.51	1	259.870431904001	259.872695978	"17"	9901.579024503	9872.870776854	1.5	0.1
0.01	1	0.00341597199985699	1	71	274.464151708	NA	1	0	5.51	1	260.1041305	260.107546472	"17"	9901.579024503	9872.870776854	1.5	0.1
0.01	1	0.00364426499982073	1	71	274.464151708	NA	1	0	5.51	1	260.337913195001	260.34155746	"17"	9901.579024503	9872.870776854	1.5	0.1
0.01	1	0.00380230700102402	1	71	274.464151708	NA	1	0	5.51	1	260.571501965	260.575304272001	"17"	9901.579024503	9872.870776854	1.5	0.1
0.01	1	0.00315675800084136	1	71	274.464151708	NA	1	0	5.51	1	260.805372068	260.808528826001	"17"	9901.579024503	9872.870776854	1.5	0.1
0.01	1	0.00405334400056745	1	71	274.464151708	NA	1	0	5.51	1	261.03908705	261.043140394	"17"	9901.579024503	9872.870776854	1.5	0.1
0.01	1	0.0035732040014409	1	71	274.464151708	NA	1	0	5.51	1	261.272792899999	261.276366104001	"17"	9901.579024503	9872.870776854	1.5	0.1
0.01	1	0.00321351599995978	1	71	274.464151708	NA	1	0	5.51	1	261.506498430001	261.509711946001	"17"	9901.579024503	9872.870776854	1.5	0.1
0.01	1	0.00398855800085585	1	71	274.464151708	NA	1	0	5.51	1	261.740163858	261.744152416	"17"	9901.579024503	9872.870776854	1.5	0.1
0.01	1	0.0043100240000058	1	71	274.464151708	NA	1	0	5.51	1	261.974001304001	261.978311328001	"17"	9901.579024503	9872.870776854	1.5	0.1
0.01	1	0.00401893699927314	1	71	274.464151708	NA	1	0	5.51	1	262.207636285	262.211655222	"17"	9901.579024503	9872.870776854	1.5	0.1
0.01	1	0.00339436399917759	1	71	274.464151708	NA	1	0	5.51	1	262.441465218	262.444859581999	"17"	9901.579024503	9872.870776854	1.5	0.1
0.01	1	0.0035551620003389	1	71	274.464151708	NA	1	0	5.51	1	262.675075487999	262.67863065	"17"	9901.579024503	9872.870776854	1.5	0.1
0.01	1	0.00399159500011592	1	71	274.464151708	NA	1	0	5.51	1	262.908856325001	262.912847920001	"17"	9901.579024503	9872.870776854	1.5	0.1
0.01	1	0.00257015999886789	1	71	274.464151708	NA	1	0	5.51	1	263.142594716001	263.145164875999	"17"	9901.579024503	9872.870776854	1.5	0.1
0.01	1	0.00215802099955908	1	71	274.464151708	NA	1	0	5.51	1	263.376415532	263.378573553	"17"	9901.579024503	9872.870776854	1.5	0.1
0.01	1	0.00343806199998653	1	71	274.464151708	NA	1	0	5.51	1	263.610123136001	263.613561198001	"17"	9901.579024503	9872.870776854	1.5	0.1
0.01	1	0.00346466500013776	1	71	274.464151708	NA	1	0	5.51	1	263.843738475	263.84720314	"17"	9901.579024503	9872.870776854	1.5	0.1
0.01	1	0.00393661799898837	1	71	274.464151708	NA	1	0	5.51	1	264.077494360001	264.081430978	"17"	9901.579024503	9872.870776854	1.5	0.1
0.01	1	0.00473889500062796	1	71	274.464151708	NA	1	0	5.51	1	264.311200103	264.315938998001	"17"	9901.579024503	9872.870776854	1.5	0.1
0.01	1	0.00331852000090294	1	71	274.464151708	NA	1	0	5.51	1	264.545018729999	264.54833725	"17"	9901.579024503	9872.870776854	1.5	0.1
0.01	1	0.00334273199950985	1	71	274.464151708	NA	1	0	5.51	1	264.778651250001	264.781993982	"17"	9901.579024503	9872.870776854	1.5	0.1
0.01	1	0.00386107200029073	1	71	274.464151708	NA	1	0	5.51	1	265.01243678	265.016297852	"17"	9901.579024503	9872.870776854	1.5	0.1
0.01	1	0.00383300399880682	1	71	274.464151708	NA	1	0	5.51	1	265.246184908001	265.250017912	"17"	9901.579024503	9872.870776854	1.5	0.1
0.01	1	0.00391514600050868	1	71	274.464151708	NA	1	0	5.51	1	265.479901208	265.483816354001	"17"	9901.579024503	9872.870776854	1.5	0.1
0.01	1	0.00475317000018549	1	71	274.464151708	NA	1	0	5.51	1	265.713705283	265.718458453	"17"	9901.579024503	9872.870776854	1.5	0.1
0.01	1	0.00373964199934562	1	71	274.464151708	NA	1	0	5.51	1	265.947337740001	265.951077382	"17"	9901.579024503	9872.870776854	1.5	0.1
0.01	1	0.00393472300129361	1	71	274.464151708	NA	1	0	5.51	1	266.181043234999	266.184977958001	"17"	9901.579024503	9872.870776854	1.5	0.1
0.01	1	0.00397073100066336	1	71	274.464151708	NA	1	0	5.51	1	266.414755585	266.418726316	"17"	9901.579024503	9872.870776854	1.5	0.1
0.01	1	0.00381468299929111	1	71	274.464151708	NA	1	0	5.51	1	266.648485445001	266.652300128	"17"	9901.579024503	9872.870776854	1.5	0.1
0.01	1	0.00470935700104747	1	71	274.464151708	NA	1	0	5.51	1	266.882327507999	266.887036865	"17"	9901.579024503	9872.870776854	1.5	0.1
0.01	1	0.00403172600090329	1	71	274.464151708	NA	1	0	5.51	1	267.116001298	267.120033024001	"17"	9901.579024503	9872.870776854	1.5	0.1
0.01	1	0.00394801100082987	1	71	274.464151708	NA	1	0	5.51	1	267.349659095	267.353607106001	"17"	9901.579024503	9872.870776854	1.5	0.1
0.01	1	0.00392372900023474	1	71	274.464151708	NA	1	0	5.51	1	267.583434725	267.587358454	"17"	9901.579024503	9872.870776854	1.5	0.1
0.01	1	0.00412540500110481	1	71	274.464151708	NA	1	0	5.51	1	267.817185854999	267.821311260001	"17"	9901.579024503	9872.870776854	1.5	0.1
0.01	1	0.00348954400033108	1	71	274.464151708	NA	1	0	5.51	1	268.050865237999	268.054354782	"17"	9901.579024503	9872.870776854	1.5	0.1
0.01	1	0.00396485999954166	1	71	274.464151708	NA	1	0	5.51	1	268.284636118	268.288600978	"17"	9901.579024503	9872.870776854	1.5	0.1
0.01	1	0.00338120600099501	1	71	274.464151708	NA	1	0	5.51	1	268.518228049999	268.521609256	"17"	9901.579024503	9872.870776854	1.5	0.1
0.01	1	0.00409300799947232	1	71	274.464151708	NA	1	0	5.51	1	268.752078380001	268.756171388	"17"	9901.579024503	9872.870776854	1.5	0.1
0.01	1	0.00408213899936527	1	71	274.464151708	NA	1	0	5.51	1	268.985756043001	268.989838182	"17"	9901.579024503	9872.870776854	1.5	0.1
0.01	1	0.00344692799990298	1	71	274.464151708	NA	1	0	5.51	1	269.219483278001	269.222930206	"17"	9901.579024503	9872.870776854	1.5	0.1
0.01	1	0.00350169500052289	1	71	274.464151708	NA	1	0	5.51	1	269.453145693	269.456647388	"17"	9901.579024503	9872.870776854	1.5	0.1
0.01	1	0.00357641600021452	1	71	274.464151708	NA	1	0	5.51	1	269.687004769999	269.690581186	"17"	9901.579024503	9872.870776854	1.5	0.1
0.01	1	0.00474278699948627	1	71	274.464151708	NA	1	0	5.51	1	269.920680498	269.925423285	"17"	9901.579024503	9872.870776854	1.5	0.1
0.01	1	0.00371583800006192	1	71	274.464151708	NA	1	0	5.51	1	270.15428422	270.158000058	"17"	9901.579024503	9872.870776854	1.5	0.1
0.01	1	0.92902819200026	1	71	274.464151708	NA	1	0	5.51	1	270.388078	271.317106192	"17"	9901.579024503	9872.870776854	1.5	0.1
0.01	1	0.00404538799921283	1	71	274.464151708	NA	1	0	5.51	1	271.540012708001	271.544058096	"17"	9901.579024503	9872.870776854	1.5	0.1
0.01	1	0.00403480299974035	1	71	274.464151708	NA	1	0	5.51	1	271.773749235001	271.777784038	"17"	9901.579024503	9872.870776854	1.5	0.1
0.01	1	0.00347022999994806	1	71	274.464151708	NA	1	0	5.51	1	272.007550468001	272.011020698001	"17"	9901.579024503	9872.870776854	1.5	0.1
0.01	1	0.00340412799960177	1	71	274.464151708	NA	1	0	5.51	1	272.241165376001	272.244569504001	"17"	9901.579024503	9872.870776854	1.5	0.1
0.01	1	0.00381980200108956	1	71	274.464151708	NA	1	0	5.51	1	272.474996819999	272.478816622001	"17"	9901.579024503	9872.870776854	1.5	0.1
0.01	1	0.00374639599976945	1	71	274.464151708	NA	1	0	5.51	1	272.70867383	272.712420226	"17"	9901.579024503	9872.870776854	1.5	0.1
0.01	1	0.00329710400001204	1	71	274.464151708	NA	1	0	5.51	1	272.942392698	272.945689802	"17"	9901.579024503	9872.870776854	1.5	0.1
