"payoff.level"	"balloon"	"rt"	"resp"	"explode.trial"	"explode.time"	"finish.time"	"exploded"	"trial.total"	"cumulative.total"	"finished"	"trial.start"	"trial.end"	"trial.num"	"secs"	"start.time"	"iti"	"isi"
0.01	1	1.76161796699998	1	64	NA	22.364957695	0	0.2	0.2	1	0.016992522999999	1.77861048999998	"1"	592.421854222	586.764357419	1.5	0.1
0.01	1	0.633480467999988	1	64	NA	22.364957695	0	0.2	0.2	1	2.15387923599999	2.78735970399998	"1"	592.421854222	586.764357419	1.5	0.1
0.01	1	0.68691465500001	1	64	NA	22.364957695	0	0.2	0.2	1	3.02199548599998	3.70891014099999	"1"	592.421854222	586.764357419	1.5	0.1
0.01	1	0.551682413000009	1	64	NA	22.364957695	0	0.2	0.2	1	3.94030471299999	4.491987126	"1"	592.421854222	586.764357419	1.5	0.1
0.01	1	0.542802638999973	1	64	NA	22.364957695	0	0.2	0.2	1	4.724912381	5.26771501999997	"1"	592.421854222	586.764357419	1.5	0.1
0.01	1	0.566168421999976	1	64	NA	22.364957695	0	0.2	0.2	1	5.49288968100001	6.05905810299998	"1"	592.421854222	586.764357419	1.5	0.1
0.01	1	0.502089080000019	1	64	NA	22.364957695	0	0.2	0.2	1	6.29416383799997	6.79625291799999	"1"	592.421854222	586.764357419	1.5	0.1
0.01	1	0.503709055000002	1	64	NA	22.364957695	0	0.2	0.2	1	7.02878669799998	7.53249575299998	"1"	592.421854222	586.764357419	1.5	0.1
0.01	1	0.687820294000005	1	64	NA	22.364957695	0	0.2	0.2	1	7.76319359600001	8.45101389000001	"1"	592.421854222	586.764357419	1.5	0.1
0.01	1	0.577867327999968	1	64	NA	22.364957695	0	0.2	0.2	1	8.68146659600001	9.25933392399998	"1"	592.421854222	586.764357419	1.5	0.1
0.01	1	0.704772252999987	1	64	NA	22.364957695	0	0.2	0.2	1	9.49959666799998	10.204368921	"1"	592.421854222	586.764357419	1.5	0.1
0.01	1	0.521167890000015	1	64	NA	22.364957695	0	0.2	0.2	1	10.434464981	10.955632871	"1"	592.421854222	586.764357419	1.5	0.1
0.01	1	0.530613414000015	1	64	NA	22.364957695	0	0.2	0.2	1	11.185623363	11.716236777	"1"	592.421854222	586.764357419	1.5	0.1
0.01	1	0.513048246999972	1	64	NA	22.364957695	0	0.2	0.2	1	11.953616888	12.466665135	"1"	592.421854222	586.764357419	1.5	0.1
0.01	1	1.529841046	1	64	NA	22.364957695	0	0.2	0.2	1	12.704902383	14.234743429	"1"	592.421854222	586.764357419	1.5	0.1
0.01	1	1.13024598800001	1	64	NA	22.364957695	0	0.2	0.2	1	14.457904161	15.588150149	"1"	592.421854222	586.764357419	1.5	0.1
0.01	1	0.993544522000036	1	64	NA	22.364957695	0	0.2	0.2	1	15.826857267	16.820401789	"1"	592.421854222	586.764357419	1.5	0.1
0.01	1	0.765365849999966	1	64	NA	22.364957695	0	0.2	0.2	1	17.045617213	17.810983063	"1"	592.421854222	586.764357419	1.5	0.1
0.01	1	1.45956164799998	1	64	NA	22.364957695	0	0.2	0.2	1	18.047304161	19.506865809	"1"	592.421854222	586.764357419	1.5	0.1
0.01	1	0.597795392000023	1	64	NA	22.364957695	0	0.2	0.2	1	19.733512751	20.331308143	"1"	592.421854222	586.764357419	1.5	0.1
0.01	1	1.79504970900001	2	64	NA	22.364957695	0	0.2	0.2	1	20.568248246	22.363297955	"1"	592.421854222	586.764357419	1.5	0.1
0.01	1	0.634954033999975	1	102	NA	48.389438375	0	0.3	0.5	1	24.408058981	25.043013015	"2"	592.421854222	586.764357419	1.5	0.1
0.01	1	0.262750554000036	1	102	NA	48.389438375	0	0.3	0.5	1	25.276056581	25.538807135	"2"	592.421854222	586.764357419	1.5	0.1
0.01	1	0.531660875	1	102	NA	48.389438375	0	0.3	0.5	1	25.776848201	26.308509076	"2"	592.421854222	586.764357419	1.5	0.1
0.01	1	0.322637960000009	1	102	NA	48.389438375	0	0.3	0.5	1	26.544879781	26.867517741	"2"	592.421854222	586.764357419	1.5	0.1
0.01	1	0.372528114999966	1	102	NA	48.389438375	0	0.3	0.5	1	27.095852036	27.468380151	"2"	592.421854222	586.764357419	1.5	0.1
0.01	1	1.03473132300002	1	102	NA	48.389438375	0	0.3	0.5	1	27.696757118	28.731488441	"2"	592.421854222	586.764357419	1.5	0.1
0.01	1	0.278784673999951	1	102	NA	48.389438375	0	0.3	0.5	1	28.965684521	29.244469195	"2"	592.421854222	586.764357419	1.5	0.1
0.01	1	0.264598603000024	1	102	NA	48.389438375	0	0.3	0.5	1	29.466478936	29.731077539	"2"	592.421854222	586.764357419	1.5	0.1
0.01	1	0.259484950000001	1	102	NA	48.389438375	0	0.3	0.5	1	29.967295408	30.226780358	"2"	592.421854222	586.764357419	1.5	0.1
0.01	1	0.296077337999975	1	102	NA	48.389438375	0	0.3	0.5	1	30.451450578	30.747527916	"2"	592.421854222	586.764357419	1.5	0.1
0.01	1	0.33869126999997	1	102	NA	48.389438375	0	0.3	0.5	1	30.985627776	31.324319046	"2"	592.421854222	586.764357419	1.5	0.1
0.01	1	0.361601059999998	1	102	NA	48.389438375	0	0.3	0.5	1	31.553262743	31.914863803	"2"	592.421854222	586.764357419	1.5	0.1
0.01	1	1.11302651800003	1	102	NA	48.389438375	0	0.3	0.5	1	32.154290159	33.267316677	"2"	592.421854222	586.764357419	1.5	0.1
0.01	1	0.706083381999974	1	102	NA	48.389438375	0	0.3	0.5	1	33.489935113	34.196018495	"2"	592.421854222	586.764357419	1.5	0.1
0.01	1	0.571451534000005	1	102	NA	48.389438375	0	0.3	0.5	1	34.424852818	34.996304352	"2"	592.421854222	586.764357419	1.5	0.1
0.01	1	0.521462892000045	1	102	NA	48.389438375	0	0.3	0.5	1	35.226209276	35.747672168	"2"	592.421854222	586.764357419	1.5	0.1
0.01	1	0.481285186999969	1	102	NA	48.389438375	0	0.3	0.5	1	35.977545286	36.458830473	"2"	592.421854222	586.764357419	1.5	0.1
0.01	1	0.909020935000001	1	102	NA	48.389438375	0	0.3	0.5	1	36.695368061	37.604388996	"2"	592.421854222	586.764357419	1.5	0.1
0.01	1	0.493731841999988	1	102	NA	48.389438375	0	0.3	0.5	1	37.830457616	38.324189458	"2"	592.421854222	586.764357419	1.5	0.1
0.01	1	0.774252528000034	1	102	NA	48.389438375	0	0.3	0.5	1	38.548397021	39.322649549	"2"	592.421854222	586.764357419	1.5	0.1
0.01	1	0.822103891999973	1	102	NA	48.389438375	0	0.3	0.5	1	39.550117451	40.372221343	"2"	592.421854222	586.764357419	1.5	0.1
0.01	1	0.737137687000029	1	102	NA	48.389438375	0	0.3	0.5	1	40.601981026	41.339118713	"2"	592.421854222	586.764357419	1.5	0.1
0.01	1	0.873731604999989	1	102	NA	48.389438375	0	0.3	0.5	1	41.570169141	42.443900746	"2"	592.421854222	586.764357419	1.5	0.1
0.01	1	0.611604048999993	1	102	NA	48.389438375	0	0.3	0.5	1	42.672073086	43.283677135	"2"	592.421854222	586.764357419	1.5	0.1
0.01	1	0.59230577400001	1	102	NA	48.389438375	0	0.3	0.5	1	43.523472276	44.11577805	"2"	592.421854222	586.764357419	1.5	0.1
0.01	1	0.549630159999992	1	102	NA	48.389438375	0	0.3	0.5	1	44.341494243	44.891124403	"2"	592.421854222	586.764357419	1.5	0.1
0.01	1	0.542017240999996	1	102	NA	48.389438375	0	0.3	0.5	1	45.126095399	45.66811264	"2"	592.421854222	586.764357419	1.5	0.1
0.01	1	0.540490604000013	1	102	NA	48.389438375	0	0.3	0.5	1	45.894162586	46.43465319	"2"	592.421854222	586.764357419	1.5	0.1
0.01	1	0.485458436999977	1	102	NA	48.389438375	0	0.3	0.5	1	46.662022596	47.147481033	"2"	592.421854222	586.764357419	1.5	0.1
0.01	1	0.494906168999989	1	102	NA	48.389438375	0	0.3	0.5	1	47.380025036	47.874931205	"2"	592.421854222	586.764357419	1.5	0.1
0.01	1	0.289931757999966	2	102	NA	48.389438375	0	0.3	0.5	1	48.097826891	48.387758649	"2"	592.421854222	586.764357419	1.5	0.1
0.01	1	0.368229827999983	1	97	NA	73.51808405	0	0.35	0.85	1	50.418489541	50.786719369	"3"	592.421854222	586.764357419	1.5	0.1
0.01	1	0.888840438000045	1	97	NA	73.51808405	0	0.35	0.85	1	51.019474691	51.908315129	"3"	592.421854222	586.764357419	1.5	0.1
0.01	1	0.45010920499999	1	97	NA	73.51808405	0	0.35	0.85	1	52.137967511	52.588076716	"3"	592.421854222	586.764357419	1.5	0.1
0.01	1	0.238081279000028	1	97	NA	73.51808405	0	0.35	0.85	1	52.822450701	53.06053198	"3"	592.421854222	586.764357419	1.5	0.1
0.01	1	0.194318995000003	1	97	NA	73.51808405	0	0.35	0.85	1	53.289965958	53.484284953	"3"	592.421854222	586.764357419	1.5	0.1
0.01	1	0.168153277000044	1	97	NA	73.51808405	0	0.35	0.85	1	53.707219278	53.875372555	"3"	592.421854222	586.764357419	1.5	0.1
0.01	1	0.191573633000019	1	97	NA	73.51808405	0	0.35	0.85	1	54.108024578	54.299598211	"3"	592.421854222	586.764357419	1.5	0.1
0.01	1	0.173263212999984	1	97	NA	73.51808405	0	0.35	0.85	1	54.525350048	54.698613261	"3"	592.421854222	586.764357419	1.5	0.1
0.01	1	0.197367100000008	1	97	NA	73.51808405	0	0.35	0.85	1	54.926077668	55.123444768	"3"	592.421854222	586.764357419	1.5	0.1
0.01	1	0.187988639000025	1	97	NA	73.51808405	0	0.35	0.85	1	55.360071701	55.54806034	"3"	592.421854222	586.764357419	1.5	0.1
0.01	1	0.154487635999999	1	97	NA	73.51808405	0	0.35	0.85	1	55.777450551	55.931938187	"3"	592.421854222	586.764357419	1.5	0.1
0.01	1	0.162591787999986	1	97	NA	73.51808405	0	0.35	0.85	1	56.161447309	56.324039097	"3"	592.421854222	586.764357419	1.5	0.1
0.01	1	0.137967853000021	1	97	NA	73.51808405	0	0.35	0.85	1	56.562047546	56.700015399	"3"	592.421854222	586.764357419	1.5	0.1
0.01	1	0.194580192999979	1	97	NA	73.51808405	0	0.35	0.85	1	56.929382267	57.12396246	"3"	592.421854222	586.764357419	1.5	0.1
0.01	1	0.12026795700001	1	97	NA	73.51808405	0	0.35	0.85	1	57.346667801	57.466935758	"3"	592.421854222	586.764357419	1.5	0.1
0.01	1	0.169877116000009	1	97	NA	73.51808405	0	0.35	0.85	1	57.697284386	57.867161502	"3"	592.421854222	586.764357419	1.5	0.1
0.01	1	0.177239519000011	1	97	NA	73.51808405	0	0.35	0.85	1	58.097986216	58.275225735	"3"	592.421854222	586.764357419	1.5	0.1
0.01	1	0.185125298000003	1	97	NA	73.51808405	0	0.35	0.85	1	58.498689618	58.683814916	"3"	592.421854222	586.764357419	1.5	0.1
0.01	1	0.152402161999987	1	97	NA	73.51808405	0	0.35	0.85	1	58.916102256	59.068504418	"3"	592.421854222	586.764357419	1.5	0.1
0.01	1	0.17581715700004	1	97	NA	73.51808405	0	0.35	0.85	1	59.300088263	59.47590542	"3"	592.421854222	586.764357419	1.5	0.1
0.01	1	1.02317249199996	1	97	NA	73.51808405	0	0.35	0.85	1	59.700789266	60.723961758	"3"	592.421854222	586.764357419	1.5	0.1
0.01	1	0.00349357800001826	1	97	NA	73.51808405	0	0.35	0.85	1	60.952804943	60.956298521	"3"	592.421854222	586.764357419	1.5	0.1
0.01	1	0.704576750999991	1	97	NA	73.51808405	0	0.35	0.85	1	61.186531841	61.891108592	"3"	592.421854222	586.764357419	1.5	0.1
0.01	1	0.962899293000021	1	97	NA	73.51808405	0	0.35	0.85	1	62.121481986	63.084381279	"3"	592.421854222	586.764357419	1.5	0.1
0.01	1	0.945239087999994	1	97	NA	73.51808405	0	0.35	0.85	1	63.306687151	64.251926239	"3"	592.421854222	586.764357419	1.5	0.1
0.01	1	0.710954405999985	1	97	NA	73.51808405	0	0.35	0.85	1	64.492009009	65.202963415	"3"	592.421854222	586.764357419	1.5	0.1
0.01	1	0.76773672500002	1	97	NA	73.51808405	0	0.35	0.85	1	65.426994267	66.194730992	"3"	592.421854222	586.764357419	1.5	0.1
0.01	1	1.61507884100001	1	97	NA	73.51808405	0	0.35	0.85	1	66.428723725	68.043802566	"3"	592.421854222	586.764357419	1.5	0.1
0.01	1	0.26559526799997	1	97	NA	73.51808405	0	0.35	0.85	1	68.281709251	68.547304519	"3"	592.421854222	586.764357419	1.5	0.1
0.01	1	0.781078958000023	1	97	NA	73.51808405	0	0.35	0.85	1	68.782611898	69.563690856	"3"	592.421854222	586.764357419	1.5	0.1
0.01	1	0.217895253999984	1	97	NA	73.51808405	0	0.35	0.85	1	69.801000291	70.018895545	"3"	592.421854222	586.764357419	1.5	0.1
0.01	1	0.503369871000018	1	97	NA	73.51808405	0	0.35	0.85	1	70.25179455	70.755164421	"3"	592.421854222	586.764357419	1.5	0.1
0.01	1	0.424163045	1	97	NA	73.51808405	0	0.35	0.85	1	70.986380576	71.410543621	"3"	592.421854222	586.764357419	1.5	0.1
0.01	1	0.870022254999981	1	97	NA	73.51808405	0	0.35	0.85	1	71.637426018	72.507448273	"3"	592.421854222	586.764357419	1.5	0.1
0.01	1	0.465135895999992	1	97	NA	73.51808405	0	0.35	0.85	1	72.739298636	73.204434532	"3"	592.421854222	586.764357419	1.5	0.1
0.01	1	0.075954046999982	2	97	NA	73.51808405	0	0.35	0.85	1	73.440442226	73.516396273	"3"	592.421854222	586.764357419	1.5	0.1
0.01	1	0.707102136999993	1	51	91.023229346	NA	1	0	0.85	1	75.560674481	76.267776618	"4"	592.421854222	586.764357419	1.5	0.1
0.01	1	0.268549470000039	1	51	91.023229346	NA	1	0	0.85	1	76.495589179	76.764138649	"4"	592.421854222	586.764357419	1.5	0.1
0.01	1	0.0798665780000078	1	51	91.023229346	NA	1	0	0.85	1	76.996394898	77.076261476	"4"	592.421854222	586.764357419	1.5	0.1
0.01	1	0.00471397699999443	1	51	91.023229346	NA	1	0	0.85	1	77.313702206	77.318416183	"4"	592.421854222	586.764357419	1.5	0.1
0.01	1	0.00410569799998939	1	51	91.023229346	NA	1	0	0.85	1	77.547403891	77.551509589	"4"	592.421854222	586.764357419	1.5	0.1
0.01	1	0.807304563000002	1	51	91.023229346	NA	1	0	0.85	1	77.781061381	78.588365944	"4"	592.421854222	586.764357419	1.5	0.1
0.01	1	0.0825421849999657	1	51	91.023229346	NA	1	0	0.85	1	78.816276378	78.898818563	"4"	592.421854222	586.764357419	1.5	0.1
0.01	1	0.062966938000045	1	51	91.023229346	NA	1	0	0.85	1	79.133395568	79.196362506	"4"	592.421854222	586.764357419	1.5	0.1
0.01	1	0.0570608790000051	1	51	91.023229346	NA	1	0	0.85	1	79.433933061	79.49099394	"4"	592.421854222	586.764357419	1.5	0.1
0.01	1	0.0289335360000109	1	51	91.023229346	NA	1	0	0.85	1	79.717775783	79.746709319	"4"	592.421854222	586.764357419	1.5	0.1
0.01	1	0.433696396999949	1	51	91.023229346	NA	1	0	0.85	1	79.984872756	80.418569153	"4"	592.421854222	586.764357419	1.5	0.1
0.01	1	0.134954385000015	1	51	91.023229346	NA	1	0	0.85	1	80.652519607	80.787473992	"4"	592.421854222	586.764357419	1.5	0.1
0.01	1	0.096131473000014	1	51	91.023229346	NA	1	0	0.85	1	81.019912171	81.116043644	"4"	592.421854222	586.764357419	1.5	0.1
0.01	1	0.138622993000013	1	51	91.023229346	NA	1	0	0.85	1	81.353881798	81.492504791	"4"	592.421854222	586.764357419	1.5	0.1
0.01	1	0.00472032999999783	1	51	91.023229346	NA	1	0	0.85	1	81.721164976	81.725885306	"4"	592.421854222	586.764357419	1.5	0.1
0.01	1	0.137594264000029	1	51	91.023229346	NA	1	0	0.85	1	81.954846623	82.092440887	"4"	592.421854222	586.764357419	1.5	0.1
0.01	1	0.00228780600002665	1	51	91.023229346	NA	1	0	0.85	1	82.322110558	82.324398364	"4"	592.421854222	586.764357419	1.5	0.1
0.01	1	0.00452362100003256	1	51	91.023229346	NA	1	0	0.85	1	82.555871387	82.560395008	"4"	592.421854222	586.764357419	1.5	0.1
0.01	1	0.00206263200004742	1	51	91.023229346	NA	1	0	0.85	1	82.789596483	82.791659115	"4"	592.421854222	586.764357419	1.5	0.1
0.01	1	0.125324372000023	1	51	91.023229346	NA	1	0	0.85	1	83.023256181	83.148580553	"4"	592.421854222	586.764357419	1.5	0.1
0.01	1	0.00385860800003002	1	51	91.023229346	NA	1	0	0.85	1	83.373874051	83.377732659	"4"	592.421854222	586.764357419	1.5	0.1
0.01	1	0.00404477399996495	1	51	91.023229346	NA	1	0	0.85	1	83.607665231	83.611710005	"4"	592.421854222	586.764357419	1.5	0.1
0.01	1	0.0105459160000123	1	51	91.023229346	NA	1	0	0.85	1	83.841267743	83.851813659	"4"	592.421854222	586.764357419	1.5	0.1
0.01	1	0.00337865400001647	1	51	91.023229346	NA	1	0	0.85	1	84.075063401	84.078442055	"4"	592.421854222	586.764357419	1.5	0.1
0.01	1	0.0864581000000157	1	51	91.023229346	NA	1	0	0.85	1	84.308834926	84.395293026	"4"	592.421854222	586.764357419	1.5	0.1
0.01	1	0.00394497299998875	1	51	91.023229346	NA	1	0	0.85	1	84.626015076	84.629960049	"4"	592.421854222	586.764357419	1.5	0.1
0.01	1	0.080640935999952	1	51	91.023229346	NA	1	0	0.85	1	84.859760503	84.940401439	"4"	592.421854222	586.764357419	1.5	0.1
0.01	1	0.00386013100001037	1	51	91.023229346	NA	1	0	0.85	1	85.176835908	85.180696039	"4"	592.421854222	586.764357419	1.5	0.1
0.01	1	0.112357169000006	1	51	91.023229346	NA	1	0	0.85	1	85.410606217	85.522963386	"4"	592.421854222	586.764357419	1.5	0.1
0.01	1	0.00364186100000552	1	51	91.023229346	NA	1	0	0.85	1	85.761100566	85.764742427	"4"	592.421854222	586.764357419	1.5	0.1
0.01	1	0.00339480799999592	1	51	91.023229346	NA	1	0	0.85	1	85.994926951	85.998321759	"4"	592.421854222	586.764357419	1.5	0.1
0.01	1	0.00329987200001369	1	51	91.023229346	NA	1	0	0.85	1	86.228692691	86.231992563	"4"	592.421854222	586.764357419	1.5	0.1
0.01	1	0.00227631900003189	1	51	91.023229346	NA	1	0	0.85	1	86.462340899	86.464617218	"4"	592.421854222	586.764357419	1.5	0.1
0.01	1	0.00216201199998522	1	51	91.023229346	NA	1	0	0.85	1	86.696109056	86.698271068	"4"	592.421854222	586.764357419	1.5	0.1
0.01	1	0.00396453600001223	1	51	91.023229346	NA	1	0	0.85	1	86.929795061	86.933759597	"4"	592.421854222	586.764357419	1.5	0.1
0.01	1	0.00367372499999874	1	51	91.023229346	NA	1	0	0.85	1	87.163597298	87.167271023	"4"	592.421854222	586.764357419	1.5	0.1
0.01	1	0.0216677849999769	1	51	91.023229346	NA	1	0	0.85	1	87.397332096	87.418999881	"4"	592.421854222	586.764357419	1.5	0.1
0.01	1	0.00347671299999774	1	51	91.023229346	NA	1	0	0.85	1	87.647621846	87.651098559	"4"	592.421854222	586.764357419	1.5	0.1
0.01	1	0.00381946099997776	1	51	91.023229346	NA	1	0	0.85	1	87.881373188	87.885192649	"4"	592.421854222	586.764357419	1.5	0.1
0.01	1	0.00406690599999138	1	51	91.023229346	NA	1	0	0.85	1	88.115182771	88.119249677	"4"	592.421854222	586.764357419	1.5	0.1
0.01	1	0.00668584000004557	1	51	91.023229346	NA	1	0	0.85	1	88.348969063	88.355654903	"4"	592.421854222	586.764357419	1.5	0.1
0.01	1	0.044613280999954	1	51	91.023229346	NA	1	0	0.85	1	88.582599403	88.627212684	"4"	592.421854222	586.764357419	1.5	0.1
0.01	1	0.0331635959999517	1	51	91.023229346	NA	1	0	0.85	1	88.849752388	88.882915984	"4"	592.421854222	586.764357419	1.5	0.1
0.01	1	0.00382192099999656	1	51	91.023229346	NA	1	0	0.85	1	89.116851078	89.120672999	"4"	592.421854222	586.764357419	1.5	0.1
0.01	1	0.00375715300003776	1	51	91.023229346	NA	1	0	0.85	1	89.350593148	89.354350301	"4"	592.421854222	586.764357419	1.5	0.1
0.01	1	0.0115936409999904	1	51	91.023229346	NA	1	0	0.85	1	89.584293018	89.595886659	"4"	592.421854222	586.764357419	1.5	0.1
0.01	1	0.00453876599999603	1	51	91.023229346	NA	1	0	0.85	1	89.81798852	89.822527286	"4"	592.421854222	586.764357419	1.5	0.1
0.01	1	0.0476373179999996	1	51	91.023229346	NA	1	0	0.85	1	90.051671806	90.099309124	"4"	592.421854222	586.764357419	1.5	0.1
0.01	1	0.00395191100000147	1	51	91.023229346	NA	1	0	0.85	1	90.335572126	90.339524037	"4"	592.421854222	586.764357419	1.5	0.1
0.01	1	0.0424516830000243	1	51	91.023229346	NA	1	0	0.85	1	90.569278146	90.611729829	"4"	592.421854222	586.764357419	1.5	0.1
0.01	1	0.0720344860000068	1	51	91.023229346	NA	1	0	0.85	1	90.836317909	90.908352395	"4"	592.421854222	586.764357419	1.5	0.1
0.01	1	0.337263693000011	1	116	NA	104.416003801	0	0.28	1.13	1	93.073562116	93.410825809	"5"	592.421854222	586.764357419	1.5	0.1
0.01	1	0.00379549199999474	1	116	NA	104.416003801	0	0.28	1.13	1	93.641196721	93.644992213	"5"	592.421854222	586.764357419	1.5	0.1
0.01	1	0.0960699089999935	1	116	NA	104.416003801	0	0.28	1.13	1	93.874877036	93.970946945	"5"	592.421854222	586.764357419	1.5	0.1
0.01	1	0.0909588819999954	1	116	NA	104.416003801	0	0.28	1.13	1	94.208794657	94.299753539	"5"	592.421854222	586.764357419	1.5	0.1
0.01	1	0.517359410999973	1	116	NA	104.416003801	0	0.28	1.13	1	94.525967681	95.043327092	"5"	592.421854222	586.764357419	1.5	0.1
0.01	1	0.00331973200002267	1	116	NA	104.416003801	0	0.28	1.13	1	95.277263341	95.280583073	"5"	592.421854222	586.764357419	1.5	0.1
0.01	1	0.0456533149999814	1	116	NA	104.416003801	0	0.28	1.13	1	95.510884841	95.556538156	"5"	592.421854222	586.764357419	1.5	0.1
0.01	1	0.0567384299999958	1	116	NA	104.416003801	0	0.28	1.13	1	95.794759046	95.851497476	"5"	592.421854222	586.764357419	1.5	0.1
0.01	1	0.0610699099999579	1	116	NA	104.416003801	0	0.28	1.13	1	96.078735106	96.139805016	"5"	592.421854222	586.764357419	1.5	0.1
0.01	1	0.06530098799999	1	116	NA	104.416003801	0	0.28	1.13	1	96.362371581	96.427672569	"5"	592.421854222	586.764357419	1.5	0.1
0.01	1	0.437149782000006	1	116	NA	104.416003801	0	0.28	1.13	1	96.662973621	97.100123403	"5"	592.421854222	586.764357419	1.5	0.1
0.01	1	0.00399173699997846	1	116	NA	104.416003801	0	0.28	1.13	1	97.330612616	97.334604353	"5"	592.421854222	586.764357419	1.5	0.1
0.01	1	0.00943522300002542	1	116	NA	104.416003801	0	0.28	1.13	1	97.564375268	97.573810491	"5"	592.421854222	586.764357419	1.5	0.1
0.01	1	0.0620918970000162	1	116	NA	104.416003801	0	0.28	1.13	1	97.798167306	97.860259203	"5"	592.421854222	586.764357419	1.5	0.1
0.01	1	0.0321656180000218	1	116	NA	104.416003801	0	0.28	1.13	1	98.098704598	98.130870216	"5"	592.421854222	586.764357419	1.5	0.1
0.01	1	1.11775642999999	1	116	NA	104.416003801	0	0.28	1.13	1	98.365755616	99.483512046	"5"	592.421854222	586.764357419	1.5	0.1
0.01	1	0.542362723999986	1	116	NA	104.416003801	0	0.28	1.13	1	99.718066111	100.260428835	"5"	592.421854222	586.764357419	1.5	0.1
0.01	1	0.212570274999962	1	116	NA	104.416003801	0	0.28	1.13	1	100.486006841	100.698577116	"5"	592.421854222	586.764357419	1.5	0.1
0.01	1	0.00441733999997496	1	116	NA	104.416003801	0	0.28	1.13	1	100.936746256	100.941163596	"5"	592.421854222	586.764357419	1.5	0.1
0.01	1	0.0565147039999943	1	116	NA	104.416003801	0	0.28	1.13	1	101.170561646	101.22707635	"5"	592.421854222	586.764357419	1.5	0.1
0.01	1	0.278137447999995	1	116	NA	104.416003801	0	0.28	1.13	1	101.454324821	101.732462269	"5"	592.421854222	586.764357419	1.5	0.1
0.01	1	0.26347143800001	1	116	NA	104.416003801	0	0.28	1.13	1	101.955162241	102.218633679	"5"	592.421854222	586.764357419	1.5	0.1
0.01	1	0.107582462999972	1	116	NA	104.416003801	0	0.28	1.13	1	102.455992128	102.563574591	"5"	592.421854222	586.764357419	1.5	0.1
0.01	1	0.261549393999985	1	116	NA	104.416003801	0	0.28	1.13	1	102.789842981	103.051392375	"5"	592.421854222	586.764357419	1.5	0.1
0.01	1	0.11363119400005	1	116	NA	104.416003801	0	0.28	1.13	1	103.274039096	103.38767029	"5"	592.421854222	586.764357419	1.5	0.1
0.01	1	0.0514560920000235	1	116	NA	104.416003801	0	0.28	1.13	1	103.624682546	103.676138638	"5"	592.421854222	586.764357419	1.5	0.1
0.01	1	0.022284151000008	1	116	NA	104.416003801	0	0.28	1.13	1	103.90838891	103.930673061	"5"	592.421854222	586.764357419	1.5	0.1
0.01	1	0.0136981590000005	1	116	NA	104.416003801	0	0.28	1.13	1	104.158768441	104.1724666	"5"	592.421854222	586.764357419	1.5	0.1
0.01	1	0.00468954000001531	2	116	NA	104.416003801	0	0.28	1.13	1	104.409377106	104.414066646	"5"	592.421854222	586.764357419	1.5	0.1
0.01	1	0.253016464999973	1	118	NA	111.810800015	0	0.2	1.33	1	106.462736426	106.715752891	"6"	592.421854222	586.764357419	1.5	0.1
0.01	1	0.0558639070000027	1	118	NA	111.810800015	0	0.2	1.33	1	106.946831696	107.002695603	"6"	592.421854222	586.764357419	1.5	0.1
0.01	1	0.0451070580000419	1	118	NA	111.810800015	0	0.2	1.33	1	107.230680901	107.275787959	"6"	592.421854222	586.764357419	1.5	0.1
0.01	1	0.0579330820000337	1	118	NA	111.810800015	0	0.2	1.33	1	107.514481179	107.572414261	"6"	592.421854222	586.764357419	1.5	0.1
0.01	1	0.0370227399999976	1	118	NA	111.810800015	0	0.2	1.33	1	107.798247156	107.835269896	"6"	592.421854222	586.764357419	1.5	0.1
0.01	1	0.00919413799999802	1	118	NA	111.810800015	0	0.2	1.33	1	108.065407757	108.074601895	"6"	592.421854222	586.764357419	1.5	0.1
0.01	1	0.0484853529999896	1	118	NA	111.810800015	0	0.2	1.33	1	108.29910223	108.347587583	"6"	592.421854222	586.764357419	1.5	0.1
0.01	1	0.03638644199998	1	118	NA	111.810800015	0	0.2	1.33	1	108.583015956	108.619402398	"6"	592.421854222	586.764357419	1.5	0.1
0.01	1	0.0415124190000142	1	118	NA	111.810800015	0	0.2	1.33	1	108.850076293	108.891588712	"6"	592.421854222	586.764357419	1.5	0.1
0.01	1	0.0227383029999828	1	118	NA	111.810800015	0	0.2	1.33	1	109.117197638	109.139935941	"6"	592.421854222	586.764357419	1.5	0.1
0.01	1	0.0364682879999805	1	118	NA	111.810800015	0	0.2	1.33	1	109.367545231	109.404013519	"6"	592.421854222	586.764357419	1.5	0.1
0.01	1	0.0172988870000381	1	118	NA	111.810800015	0	0.2	1.33	1	109.634713608	109.652012495	"6"	592.421854222	586.764357419	1.5	0.1
0.01	1	0.0213549129999819	1	118	NA	111.810800015	0	0.2	1.33	1	109.885175731	109.906530644	"6"	592.421854222	586.764357419	1.5	0.1
0.01	1	0.0285408340000117	1	118	NA	111.810800015	0	0.2	1.33	1	110.135525376	110.16406621	"6"	592.421854222	586.764357419	1.5	0.1
0.01	1	0.00393488700001399	1	118	NA	111.810800015	0	0.2	1.33	1	110.402764798	110.406699685	"6"	592.421854222	586.764357419	1.5	0.1
0.01	1	0.00945639300005041	1	118	NA	111.810800015	0	0.2	1.33	1	110.636426038	110.645882431	"6"	592.421854222	586.764357419	1.5	0.1
0.01	1	0.00817435600004046	1	118	NA	111.810800015	0	0.2	1.33	1	110.870203751	110.878378107	"6"	592.421854222	586.764357419	1.5	0.1
0.01	1	0.00701216499999191	1	118	NA	111.810800015	0	0.2	1.33	1	111.103843306	111.110855471	"6"	592.421854222	586.764357419	1.5	0.1
0.01	1	0.0040303060000042	1	118	NA	111.810800015	0	0.2	1.33	1	111.337531353	111.341561659	"6"	592.421854222	586.764357419	1.5	0.1
0.01	1	0.00383967099998017	1	118	NA	111.810800015	0	0.2	1.33	1	111.571344086	111.575183757	"6"	592.421854222	586.764357419	1.5	0.1
0.01	1	0.00399171900005513	2	118	NA	111.810800015	0	0.2	1.33	1	111.804972156	111.808963875	"6"	592.421854222	586.764357419	1.5	0.1
0.01	1	0.409774711000011	1	87	NA	117.813024916	0	0.14	1.47	1	113.858600693	114.268375404	"7"	592.421854222	586.764357419	1.5	0.1
0.01	1	0.00465667700001404	1	87	NA	117.813024916	0	0.14	1.47	1	114.509690641	114.514347318	"7"	592.421854222	586.764357419	1.5	0.1
0.01	1	0.00464489200004436	1	87	NA	117.813024916	0	0.14	1.47	1	114.743371736	114.748016628	"7"	592.421854222	586.764357419	1.5	0.1
0.01	1	0.00401217199998882	1	87	NA	117.813024916	0	0.14	1.47	1	114.977030091	114.981042263	"7"	592.421854222	586.764357419	1.5	0.1
0.01	1	0.00409733999998707	1	87	NA	117.813024916	0	0.14	1.47	1	115.210878091	115.214975431	"7"	592.421854222	586.764357419	1.5	0.1
0.01	1	0.00372469600000613	1	87	NA	117.813024916	0	0.14	1.47	1	115.444518163	115.448242859	"7"	592.421854222	586.764357419	1.5	0.1
0.01	1	0.0212510599999973	1	87	NA	117.813024916	0	0.14	1.47	1	115.678214563	115.699465623	"7"	592.421854222	586.764357419	1.5	0.1
0.01	1	0.0343153200000188	1	87	NA	117.813024916	0	0.14	1.47	1	115.928652056	115.962967376	"7"	592.421854222	586.764357419	1.5	0.1
0.01	1	0.0234300209999674	1	87	NA	117.813024916	0	0.14	1.47	1	116.195830226	116.219260247	"7"	592.421854222	586.764357419	1.5	0.1
0.01	1	0.02880359400001	1	87	NA	117.813024916	0	0.14	1.47	1	116.446144581	116.474948175	"7"	592.421854222	586.764357419	1.5	0.1
0.01	1	0.010028788999989	1	87	NA	117.813024916	0	0.14	1.47	1	116.713418888	116.723447677	"7"	592.421854222	586.764357419	1.5	0.1
0.01	1	0.0172783030000119	1	87	NA	117.813024916	0	0.14	1.47	1	116.947066143	116.964344446	"7"	592.421854222	586.764357419	1.5	0.1
0.01	1	0.0224478979999958	1	87	NA	117.813024916	0	0.14	1.47	1	117.197523303	117.219971201	"7"	592.421854222	586.764357419	1.5	0.1
0.01	1	0.100552361000041	1	87	NA	117.813024916	0	0.14	1.47	1	117.447921847	117.548474208	"7"	592.421854222	586.764357419	1.5	0.1
0.01	1	0.0295223019999753	2	87	NA	117.813024916	0	0.14	1.47	1	117.781810673	117.811332975	"7"	592.421854222	586.764357419	1.5	0.1
0.01	1	1.11962027200002	1	6	122.360127131	NA	1	0	1.47	1	119.851904566	120.971524838	"8"	592.421854222	586.764357419	1.5	0.1
0.01	1	0.00400523799999064	1	6	122.360127131	NA	1	0	1.47	1	121.204225761	121.208230999	"8"	592.421854222	586.764357419	1.5	0.1
0.01	1	0.0290836599999693	1	6	122.360127131	NA	1	0	1.47	1	121.437887381	121.466971041	"8"	592.421854222	586.764357419	1.5	0.1
0.01	1	0.011429991	1	6	122.360127131	NA	1	0	1.47	1	121.705056581	121.716486572	"8"	592.421854222	586.764357419	1.5	0.1
0.01	1	0.0252267719999963	1	6	122.360127131	NA	1	0	1.47	1	121.938682766	121.963909538	"8"	592.421854222	586.764357419	1.5	0.1
0.01	1	0.0535136259999831	1	6	122.360127131	NA	1	0	1.47	1	122.189253426	122.242767052	"8"	592.421854222	586.764357419	1.5	0.1
0.01	1	0.275308644999996	1	106	NA	127.133304307	0	0.03	1.5	1	124.392876573	124.668185218	"9"	592.421854222	586.764357419	1.5	0.1
0.01	1	0.213966954999989	1	106	NA	127.133304307	0	0.03	1.5	1	124.893760021	125.107726976	"9"	592.421854222	586.764357419	1.5	0.1
0.01	1	1.46721363400002	1	106	NA	127.133304307	0	0.03	1.5	1	125.344636661	126.811850295	"9"	592.421854222	586.764357419	1.5	0.1
0.01	1	0.0842009820000271	2	106	NA	127.133304307	0	0.03	1.5	1	127.047414351	127.131615333	"9"	592.421854222	586.764357419	1.5	0.1
0.01	1	0.347418225000013	1	21	135.465337028	NA	1	0	1.5	1	129.184326541	129.531744766	"10"	592.421854222	586.764357419	1.5	0.1
0.01	1	0.00334585199999538	1	21	135.465337028	NA	1	0	1.5	1	129.768549571	129.771895423	"10"	592.421854222	586.764357419	1.5	0.1
0.01	1	0.00384359999998196	1	21	135.465337028	NA	1	0	1.5	1	130.002325901	130.006169501	"10"	592.421854222	586.764357419	1.5	0.1
0.01	1	0.00388202699997464	1	21	135.465337028	NA	1	0	1.5	1	130.236005708	130.239887735	"10"	592.421854222	586.764357419	1.5	0.1
0.01	1	0.00393575299995064	1	21	135.465337028	NA	1	0	1.5	1	130.469754108	130.473689861	"10"	592.421854222	586.764357419	1.5	0.1
0.01	1	0.0840523699999949	1	21	135.465337028	NA	1	0	1.5	1	130.703533546	130.787585916	"10"	592.421854222	586.764357419	1.5	0.1
0.01	1	0.00475051699999085	1	21	135.465337028	NA	1	0	1.5	1	131.020712001	131.025462518	"10"	592.421854222	586.764357419	1.5	0.1
0.01	1	0.0535235670000134	1	21	135.465337028	NA	1	0	1.5	1	131.254414818	131.307938385	"10"	592.421854222	586.764357419	1.5	0.1
0.01	1	0.728378303	1	21	135.465337028	NA	1	0	1.5	1	131.538197827	132.26657613	"10"	592.421854222	586.764357419	1.5	0.1
0.01	1	0.00399772999998049	1	21	135.465337028	NA	1	0	1.5	1	132.489781171	132.493778901	"10"	592.421854222	586.764357419	1.5	0.1
0.01	1	0.11160225399999	1	21	135.465337028	NA	1	0	1.5	1	132.723507416	132.83510967	"10"	592.421854222	586.764357419	1.5	0.1
0.01	1	0.00391317399999025	1	21	135.465337028	NA	1	0	1.5	1	133.074127623	133.078040797	"10"	592.421854222	586.764357419	1.5	0.1
0.01	1	0.00464087000000291	1	21	135.465337028	NA	1	0	1.5	1	133.307927181	133.312568051	"10"	592.421854222	586.764357419	1.5	0.1
0.01	1	0.00404123399999889	1	21	135.465337028	NA	1	0	1.5	1	133.541634311	133.545675545	"10"	592.421854222	586.764357419	1.5	0.1
0.01	1	0.00356966800001146	1	21	135.465337028	NA	1	0	1.5	1	133.775309031	133.778878699	"10"	592.421854222	586.764357419	1.5	0.1
0.01	1	0.00401922600002536	1	21	135.465337028	NA	1	0	1.5	1	134.009101301	134.013120527	"10"	592.421854222	586.764357419	1.5	0.1
0.01	1	0.00333420600003365	1	21	135.465337028	NA	1	0	1.5	1	134.242777717	134.246111923	"10"	592.421854222	586.764357419	1.5	0.1
0.01	1	0.00389935300000843	1	21	135.465337028	NA	1	0	1.5	1	134.476475898	134.480375251	"10"	592.421854222	586.764357419	1.5	0.1
0.01	1	0.00403343200002837	1	21	135.465337028	NA	1	0	1.5	1	134.710213003	134.714246435	"10"	592.421854222	586.764357419	1.5	0.1
0.01	1	0.171071013000017	1	21	135.465337028	NA	1	0	1.5	1	134.944036768	135.115107781	"10"	592.421854222	586.764357419	1.5	0.1
0.01	1	0.00437776399996892	1	21	135.465337028	NA	1	0	1.5	1	135.344590627	135.348968391	"10"	592.421854222	586.764357419	1.5	0.1
0.01	1	0.911596510999971	1	19	146.783518491	NA	1	0	1.5	1	137.515014768	138.426611279	"11"	592.421854222	586.764357419	1.5	0.1
0.01	1	0.103967086000011	1	19	146.783518491	NA	1	0	1.5	1	138.666933081	138.770900167	"11"	592.421854222	586.764357419	1.5	0.1
0.01	1	0.115164864999997	1	19	146.783518491	NA	1	0	1.5	1	139.000798528	139.115963393	"11"	592.421854222	586.764357419	1.5	0.1
0.01	1	0.0687765560000457	1	19	146.783518491	NA	1	0	1.5	1	139.351354956	139.420131512	"11"	592.421854222	586.764357419	1.5	0.1
0.01	1	0.103198598999995	1	19	146.783518491	NA	1	0	1.5	1	139.651922156	139.755120755	"11"	592.421854222	586.764357419	1.5	0.1
0.01	1	0.0743301579999525	1	19	146.783518491	NA	1	0	1.5	1	139.985846228	140.060176386	"11"	592.421854222	586.764357419	1.5	0.1
0.01	1	0.0841754250000122	1	19	146.783518491	NA	1	0	1.5	1	140.286378979	140.370554404	"11"	592.421854222	586.764357419	1.5	0.1
0.01	1	0.111923106999996	1	19	146.783518491	NA	1	0	1.5	1	140.603468828	140.715391935	"11"	592.421854222	586.764357419	1.5	0.1
0.01	1	0.0980458930000054	1	19	146.783518491	NA	1	0	1.5	1	140.954083266	141.052129159	"11"	592.421854222	586.764357419	1.5	0.1
0.01	1	0.0746881139999687	1	19	146.783518491	NA	1	0	1.5	1	141.288004101	141.362692215	"11"	592.421854222	586.764357419	1.5	0.1
0.01	1	0.111377500000003	1	19	146.783518491	NA	1	0	1.5	1	141.588455823	141.699833323	"11"	592.421854222	586.764357419	1.5	0.1
0.01	1	0.128555909999989	1	19	146.783518491	NA	1	0	1.5	1	141.939148531	142.067704441	"11"	592.421854222	586.764357419	1.5	0.1
0.01	1	0.137260045999994	1	19	146.783518491	NA	1	0	1.5	1	142.289619923	142.426879969	"11"	592.421854222	586.764357419	1.5	0.1
0.01	1	0.11428226999999	1	19	146.783518491	NA	1	0	1.5	1	142.656941656	142.771223926	"11"	592.421854222	586.764357419	1.5	0.1
0.01	1	0.156708123999977	1	19	146.783518491	NA	1	0	1.5	1	143.007563231	143.164271355	"11"	592.421854222	586.764357419	1.5	0.1
0.01	1	1.21240221700003	1	19	146.783518491	NA	1	0	1.5	1	143.391593266	144.603995483	"11"	592.421854222	586.764357419	1.5	0.1
0.01	1	0.559447120000016	1	19	146.783518491	NA	1	0	1.5	1	144.844006366	145.403453486	"11"	592.421854222	586.764357419	1.5	0.1
0.01	1	0.431584153000017	1	19	146.783518491	NA	1	0	1.5	1	145.628622126	146.060206279	"11"	592.421854222	586.764357419	1.5	0.1
0.01	1	0.378548188000025	1	19	146.783518491	NA	1	0	1.5	1	146.296490507	146.675038695	"11"	592.421854222	586.764357419	1.5	0.1
0.01	1	0.353368517999968	1	63	NA	153.332309465	0	0.15	1.65	1	148.834060986	149.187429504	"12"	592.421854222	586.764357419	1.5	0.1
0.01	1	0.0244171430000506	1	63	NA	153.332309465	0	0.15	1.65	1	149.418325066	149.442742209	"12"	592.421854222	586.764357419	1.5	0.1
0.01	1	0.00740429699999368	1	63	NA	153.332309465	0	0.15	1.65	1	149.66870678	149.676111077	"12"	592.421854222	586.764357419	1.5	0.1
0.01	1	0.00811597200004144	1	63	NA	153.332309465	0	0.15	1.65	1	149.902559051	149.910675023	"12"	592.421854222	586.764357419	1.5	0.1
0.01	1	0.0195308639999894	1	63	NA	153.332309465	0	0.15	1.65	1	150.136240151	150.155771015	"12"	592.421854222	586.764357419	1.5	0.1
0.01	1	0.00929571800003259	1	63	NA	153.332309465	0	0.15	1.65	1	150.386717311	150.396013029	"12"	592.421854222	586.764357419	1.5	0.1
0.01	1	0.0713898569999856	1	63	NA	153.332309465	0	0.15	1.65	1	150.620280579	150.691670436	"12"	592.421854222	586.764357419	1.5	0.1
0.01	1	0.0348897260000172	1	63	NA	153.332309465	0	0.15	1.65	1	150.920788906	150.955678632	"12"	592.421854222	586.764357419	1.5	0.1
0.01	1	0.0158998479999468	1	63	NA	153.332309465	0	0.15	1.65	1	151.187939571	151.203839419	"12"	592.421854222	586.764357419	1.5	0.1
0.01	1	0.0531250309999791	1	63	NA	153.332309465	0	0.15	1.65	1	151.438351881	151.491476912	"12"	592.421854222	586.764357419	1.5	0.1
0.01	1	0.026358426999991	1	63	NA	153.332309465	0	0.15	1.65	1	151.722165566	151.748523993	"12"	592.421854222	586.764357419	1.5	0.1
0.01	1	0.0559782240000004	1	63	NA	153.332309465	0	0.15	1.65	1	151.972560186	152.02853841	"12"	592.421854222	586.764357419	1.5	0.1
0.01	1	0.059659100000033	1	63	NA	153.332309465	0	0.15	1.65	1	152.256526599	152.316185699	"12"	592.421854222	586.764357419	1.5	0.1
0.01	1	0.0715985890000184	1	63	NA	153.332309465	0	0.15	1.65	1	152.556906418	152.628505007	"12"	592.421854222	586.764357419	1.5	0.1
0.01	1	0.201921217000006	1	63	NA	153.332309465	0	0.15	1.65	1	152.857515581	153.059436798	"12"	592.421854222	586.764357419	1.5	0.1
0.01	1	0.039182889000017	2	63	NA	153.332309465	0	0.15	1.65	1	153.291435241	153.33061813	"12"	592.421854222	586.764357419	1.5	0.1
0.01	1	0.00392845499999339	1	54	NA	165.052833083	0	0.31	1.96	1	155.378356798	155.382285253	"13"	592.421854222	586.764357419	1.5	0.1
0.01	1	0.15193117299998	1	54	NA	165.052833083	0	0.31	1.96	1	155.612041228	155.763972401	"13"	592.421854222	586.764357419	1.5	0.1
0.01	1	0.00407903000001397	1	54	NA	165.052833083	0	0.31	1.96	1	155.995992533	156.000071563	"13"	592.421854222	586.764357419	1.5	0.1
0.01	1	0.00390956200004666	1	54	NA	165.052833083	0	0.31	1.96	1	156.229866671	156.233776233	"13"	592.421854222	586.764357419	1.5	0.1
0.01	1	0.0121184529999709	1	54	NA	165.052833083	0	0.31	1.96	1	156.463544376	156.475662829	"13"	592.421854222	586.764357419	1.5	0.1
0.01	1	0.0176258210000242	1	54	NA	165.052833083	0	0.31	1.96	1	156.697221648	156.714847469	"13"	592.421854222	586.764357419	1.5	0.1
0.01	1	0.015954488000034	1	54	NA	165.052833083	0	0.31	1.96	1	156.947645311	156.963599799	"13"	592.421854222	586.764357419	1.5	0.1
0.01	1	0.021436226999981	1	54	NA	165.052833083	0	0.31	1.96	1	157.197986548	157.219422775	"13"	592.421854222	586.764357419	1.5	0.1
0.01	1	0.00376275800005033	1	54	NA	165.052833083	0	0.31	1.96	1	157.448492061	157.452254819	"13"	592.421854222	586.764357419	1.5	0.1
0.01	1	0.00391669799995498	1	54	NA	165.052833083	0	0.31	1.96	1	157.682139881	157.686056579	"13"	592.421854222	586.764357419	1.5	0.1
0.01	1	0.0235600589999763	1	54	NA	165.052833083	0	0.31	1.96	1	157.915934638	157.939494697	"13"	592.421854222	586.764357419	1.5	0.1
0.01	1	0.0287015469999687	1	54	NA	165.052833083	0	0.31	1.96	1	158.166464916	158.195166463	"13"	592.421854222	586.764357419	1.5	0.1
0.01	1	0.00379420499996286	1	54	NA	165.052833083	0	0.31	1.96	1	158.433494918	158.437289123	"13"	592.421854222	586.764357419	1.5	0.1
0.01	1	0.00954845999996223	1	54	NA	165.052833083	0	0.31	1.96	1	158.667215661	158.676764121	"13"	592.421854222	586.764357419	1.5	0.1
0.01	1	0.0313019339999983	1	54	NA	165.052833083	0	0.31	1.96	1	158.900956193	158.932258127	"13"	592.421854222	586.764357419	1.5	0.1
0.01	1	0.0278351460000295	1	54	NA	165.052833083	0	0.31	1.96	1	159.167998063	159.195833209	"13"	592.421854222	586.764357419	1.5	0.1
0.01	1	0.0338239529999669	1	54	NA	165.052833083	0	0.31	1.96	1	159.418476381	159.452300334	"13"	592.421854222	586.764357419	1.5	0.1
0.01	1	0.0696618759999978	1	54	NA	165.052833083	0	0.31	1.96	1	159.685608863	159.755270739	"13"	592.421854222	586.764357419	1.5	0.1
0.01	1	0.0423761179999929	1	54	NA	165.052833083	0	0.31	1.96	1	159.986121851	160.028497969	"13"	592.421854222	586.764357419	1.5	0.1
0.01	1	0.0455403070000102	1	54	NA	165.052833083	0	0.31	1.96	1	160.253224871	160.298765178	"13"	592.421854222	586.764357419	1.5	0.1
0.01	1	0.0174618959999862	1	54	NA	165.052833083	0	0.31	1.96	1	160.537124748	160.554586644	"13"	592.421854222	586.764357419	1.5	0.1
0.01	1	0.0328312350000033	1	54	NA	165.052833083	0	0.31	1.96	1	160.787423951	160.820255186	"13"	592.421854222	586.764357419	1.5	0.1
0.01	1	0.0680264679999709	1	54	NA	165.052833083	0	0.31	1.96	1	161.054571136	161.122597604	"13"	592.421854222	586.764357419	1.5	0.1
0.01	1	0.0487086850000082	1	54	NA	165.052833083	0	0.31	1.96	1	161.355159668	161.403868353	"13"	592.421854222	586.764357419	1.5	0.1
0.01	1	0.0602319960000273	1	54	NA	165.052833083	0	0.31	1.96	1	161.638948328	161.699180324	"13"	592.421854222	586.764357419	1.5	0.1
0.01	1	0.0642273130000035	1	54	NA	165.052833083	0	0.31	1.96	1	161.922696851	161.986924164	"13"	592.421854222	586.764357419	1.5	0.1
0.01	1	0.0278602469999782	1	54	NA	165.052833083	0	0.31	1.96	1	162.223196036	162.251056283	"13"	592.421854222	586.764357419	1.5	0.1
0.01	1	0.0588323390000483	1	54	NA	165.052833083	0	0.31	1.96	1	162.473546971	162.53237931	"13"	592.421854222	586.764357419	1.5	0.1
0.01	1	0.0377981260000411	1	54	NA	165.052833083	0	0.31	1.96	1	162.757423698	162.795221824	"13"	592.421854222	586.764357419	1.5	0.1
0.01	1	0.0910074800000302	1	54	NA	165.052833083	0	0.31	1.96	1	163.024598521	163.115606001	"13"	592.421854222	586.764357419	1.5	0.1
0.01	1	0.0928199090000135	1	54	NA	165.052833083	0	0.31	1.96	1	163.341840286	163.434660195	"13"	592.421854222	586.764357419	1.5	0.1
0.01	1	1.39230496500005	2	54	NA	165.052833083	0	0.31	1.96	1	163.658924456	165.051229421	"13"	592.421854222	586.764357419	1.5	0.1
0.01	1	2.06339184200004	2	103	NA	169.163212231	0	0	1.96	1	167.098105791	169.161497633	"14"	592.421854222	586.764357419	1.5	0.1
0.01	1	0.771856221999997	1	120	NA	178.05034253	0	0.08	2.04	1	171.221709598	171.99356582	"15"	592.421854222	586.764357419	1.5	0.1
0.01	1	0.426040363000027	1	120	NA	178.05034253	0	0.08	2.04	1	172.223366196	172.649406559	"15"	592.421854222	586.764357419	1.5	0.1
0.01	1	0.398809329000017	1	120	NA	178.05034253	0	0.08	2.04	1	172.874374898	173.273184227	"15"	592.421854222	586.764357419	1.5	0.1
0.01	1	0.48391746499999	1	120	NA	178.05034253	0	0.08	2.04	1	173.508830231	173.992747696	"15"	592.421854222	586.764357419	1.5	0.1
0.01	1	1.00601178999995	1	120	NA	178.05034253	0	0.08	2.04	1	174.226823651	175.232835441	"15"	592.421854222	586.764357419	1.5	0.1
0.01	1	0.507876988000021	1	120	NA	178.05034253	0	0.08	2.04	1	175.462141441	175.970018429	"15"	592.421854222	586.764357419	1.5	0.1
0.01	1	0.533856069999956	1	120	NA	178.05034253	0	0.08	2.04	1	176.196757111	176.730613181	"15"	592.421854222	586.764357419	1.5	0.1
0.01	1	0.477724993999971	1	120	NA	178.05034253	0	0.08	2.04	1	176.964606581	177.442331575	"15"	592.421854222	586.764357419	1.5	0.1
0.01	1	0.382800975999999	2	120	NA	178.05034253	0	0.08	2.04	1	177.665864008	178.048664984	"15"	592.421854222	586.764357419	1.5	0.1
0.01	1	0.53918516799996	1	109	NA	189.28394016	0	0.16	2.2	1	180.086619056	180.625804224	"16"	592.421854222	586.764357419	1.5	0.1
0.01	1	0.29114195599999	1	109	NA	189.28394016	0	0.16	2.2	1	180.854508876	181.145650832	"16"	592.421854222	586.764357419	1.5	0.1
0.01	1	0.260492720999991	1	109	NA	189.28394016	0	0.16	2.2	1	181.372089674	181.632582395	"16"	592.421854222	586.764357419	1.5	0.1
0.01	1	0.216135784000016	1	109	NA	189.28394016	0	0.16	2.2	1	181.872975011	182.089110795	"16"	592.421854222	586.764357419	1.5	0.1
0.01	1	0.214716649999957	1	109	NA	189.28394016	0	0.16	2.2	1	182.32365576	182.53837241	"16"	592.421854222	586.764357419	1.5	0.1
0.01	1	0.211428082999987	1	109	NA	189.28394016	0	0.16	2.2	1	182.774473878	182.985901961	"16"	592.421854222	586.764357419	1.5	0.1
0.01	1	0.224059490000002	1	109	NA	189.28394016	0	0.16	2.2	1	183.208497651	183.432557141	"16"	592.421854222	586.764357419	1.5	0.1
0.01	1	0.222711548999996	1	109	NA	189.28394016	0	0.16	2.2	1	183.659266506	183.881978055	"16"	592.421854222	586.764357419	1.5	0.1
0.01	1	0.203157075000036	1	109	NA	189.28394016	0	0.16	2.2	1	184.109973081	184.313130156	"16"	592.421854222	586.764357419	1.5	0.1
0.01	1	0.202317281999967	1	109	NA	189.28394016	0	0.16	2.2	1	184.544134218	184.7464515	"16"	592.421854222	586.764357419	1.5	0.1
0.01	1	0.21490079299997	1	109	NA	189.28394016	0	0.16	2.2	1	184.978128911	185.193029704	"16"	592.421854222	586.764357419	1.5	0.1
0.01	1	0.243814565000037	1	109	NA	189.28394016	0	0.16	2.2	1	185.428949791	185.672764356	"16"	592.421854222	586.764357419	1.5	0.1
0.01	1	0.233192642000006	1	109	NA	189.28394016	0	0.16	2.2	1	185.896361461	186.129554103	"16"	592.421854222	586.764357419	1.5	0.1
0.01	1	1.62156230200003	1	109	NA	189.28394016	0	0.16	2.2	1	186.363742491	187.985304793	"16"	592.421854222	586.764357419	1.5	0.1
0.01	1	0.167880389999993	1	109	NA	189.28394016	0	0.16	2.2	1	188.216890606	188.384770996	"16"	592.421854222	586.764357419	1.5	0.1
0.01	1	0.192056186000002	1	109	NA	189.28394016	0	0.16	2.2	1	188.617638281	188.809694467	"16"	592.421854222	586.764357419	1.5	0.1
0.01	1	0.247278532999985	2	109	NA	189.28394016	0	0.16	2.2	1	189.034974536	189.282253069	"16"	592.421854222	586.764357419	1.5	0.1
0.01	1	1.44263734500004	1	71	NA	202.454715059	0	0.34	2.54	1	191.322171451	192.764808796	"17"	592.421854222	586.764357419	1.5	0.1
0.01	1	0.229756361999989	1	71	NA	202.454715059	0	0.34	2.54	1	192.991670558	193.22142692	"17"	592.421854222	586.764357419	1.5	0.1
0.01	1	0.00397917700001926	1	71	NA	202.454715059	0	0.34	2.54	1	193.459092398	193.463071575	"17"	592.421854222	586.764357419	1.5	0.1
0.01	1	0.0160605049999845	1	71	NA	202.454715059	0	0.34	2.54	1	193.692846418	193.708906923	"17"	592.421854222	586.764357419	1.5	0.1
0.01	1	0.078489014000013	1	71	NA	202.454715059	0	0.34	2.54	1	193.943302653	194.021791667	"17"	592.421854222	586.764357419	1.5	0.1
0.01	1	0.0166373469999712	1	71	NA	202.454715059	0	0.34	2.54	1	194.260455588	194.277092935	"17"	592.421854222	586.764357419	1.5	0.1
0.01	1	0.0154677900000024	1	71	NA	202.454715059	0	0.34	2.54	1	194.510810466	194.526278256	"17"	592.421854222	586.764357419	1.5	0.1
0.01	1	0.228369240999996	1	71	NA	202.454715059	0	0.34	2.54	1	194.761255068	194.989624309	"17"	592.421854222	586.764357419	1.5	0.1
0.01	1	0.106010161000029	1	71	NA	202.454715059	0	0.34	2.54	1	195.212020126	195.318030287	"17"	592.421854222	586.764357419	1.5	0.1
0.01	1	0.0361716840000099	1	71	NA	202.454715059	0	0.34	2.54	1	195.545925331	195.582097015	"17"	592.421854222	586.764357419	1.5	0.1
0.01	1	0.00961761300004582	1	71	NA	202.454715059	0	0.34	2.54	1	195.813108831	195.822726444	"17"	592.421854222	586.764357419	1.5	0.1
0.01	1	0.00379221999997981	1	71	NA	202.454715059	0	0.34	2.54	1	196.046730611	196.050522831	"17"	592.421854222	586.764357419	1.5	0.1
0.01	1	0.00396981299996924	1	71	NA	202.454715059	0	0.34	2.54	1	196.280583706	196.284553519	"17"	592.421854222	586.764357419	1.5	0.1
0.01	1	0.00391196900000068	1	71	NA	202.454715059	0	0.34	2.54	1	196.514222068	196.518134037	"17"	592.421854222	586.764357419	1.5	0.1
0.01	1	0.105842842000015	1	71	NA	202.454715059	0	0.34	2.54	1	196.748050316	196.853893158	"17"	592.421854222	586.764357419	1.5	0.1
0.01	1	0.00462206199995308	1	71	NA	202.454715059	0	0.34	2.54	1	197.081906531	197.086528593	"17"	592.421854222	586.764357419	1.5	0.1
0.01	1	0.113588155000002	1	71	NA	202.454715059	0	0.34	2.54	1	197.315516651	197.429104806	"17"	592.421854222	586.764357419	1.5	0.1
0.01	1	0.00400532999998404	1	71	NA	202.454715059	0	0.34	2.54	1	197.666225741	197.670231071	"17"	592.421854222	586.764357419	1.5	0.1
0.01	1	0.00451252800002067	1	71	NA	202.454715059	0	0.34	2.54	1	197.899932043	197.904444571	"17"	592.421854222	586.764357419	1.5	0.1
0.01	1	0.120788446000006	1	71	NA	202.454715059	0	0.34	2.54	1	198.133643823	198.254432269	"17"	592.421854222	586.764357419	1.5	0.1
0.01	1	0.00385077999999339	1	71	NA	202.454715059	0	0.34	2.54	1	198.484206431	198.488057211	"17"	592.421854222	586.764357419	1.5	0.1
0.01	1	0.126856508999992	1	71	NA	202.454715059	0	0.34	2.54	1	198.717947878	198.844804387	"17"	592.421854222	586.764357419	1.5	0.1
0.01	1	0.00352960500003974	1	71	NA	202.454715059	0	0.34	2.54	1	199.068478796	199.072008401	"17"	592.421854222	586.764357419	1.5	0.1
0.01	1	0.00399616300001071	1	71	NA	202.454715059	0	0.34	2.54	1	199.302302226	199.306298389	"17"	592.421854222	586.764357419	1.5	0.1
0.01	1	0.126205765999998	1	71	NA	202.454715059	0	0.34	2.54	1	199.536042496	199.662248262	"17"	592.421854222	586.764357419	1.5	0.1
0.01	1	0.0038871230000268	1	71	NA	202.454715059	0	0.34	2.54	1	199.903284478	199.907171601	"17"	592.421854222	586.764357419	1.5	0.1
0.01	1	0.00403782300003286	1	71	NA	202.454715059	0	0.34	2.54	1	200.137055576	200.141093399	"17"	592.421854222	586.764357419	1.5	0.1
0.01	1	0.0981458560000306	1	71	NA	202.454715059	0	0.34	2.54	1	200.370755243	200.468901099	"17"	592.421854222	586.764357419	1.5	0.1
0.01	1	0.00389474499996822	1	71	NA	202.454715059	0	0.34	2.54	1	200.704614896	200.708509641	"17"	592.421854222	586.764357419	1.5	0.1
0.01	1	0.10678083900001	1	71	NA	202.454715059	0	0.34	2.54	1	200.938399296	201.045180135	"17"	592.421854222	586.764357419	1.5	0.1
0.01	1	0.00466480199997932	1	71	NA	202.454715059	0	0.34	2.54	1	201.272321396	201.276986198	"17"	592.421854222	586.764357419	1.5	0.1
0.01	1	0.115080021999972	1	71	NA	202.454715059	0	0.34	2.54	1	201.505970316	201.621050338	"17"	592.421854222	586.764357419	1.5	0.1
0.01	1	0.00341235399997686	1	71	NA	202.454715059	0	0.34	2.54	1	201.856635175	201.860047529	"17"	592.421854222	586.764357419	1.5	0.1
0.01	1	0.00402161699997805	1	71	NA	202.454715059	0	0.34	2.54	1	202.090341146	202.094362763	"17"	592.421854222	586.764357419	1.5	0.1
0.01	1	0.128992304999997	2	71	NA	202.454715059	0	0.34	2.54	1	202.324027731	202.453020036	"17"	592.421854222	586.764357419	1.5	0.1
0.01	1	1.15147935700003	1	96	NA	211.384019551	0	0.2	2.74	1	204.494374556	205.645853913	"18"	592.421854222	586.764357419	1.5	0.1
0.01	1	0.0287609389999943	1	96	NA	211.384019551	0	0.2	2.74	1	205.879939588	205.908700527	"18"	592.421854222	586.764357419	1.5	0.1
0.01	1	0.0121823009999957	1	96	NA	211.384019551	0	0.2	2.74	1	206.130501771	206.142684072	"18"	592.421854222	586.764357419	1.5	0.1
0.01	1	0.00394906700000774	1	96	NA	211.384019551	0	0.2	2.74	1	206.380749176	206.384698243	"18"	592.421854222	586.764357419	1.5	0.1
0.01	1	0.046228659999997	1	96	NA	211.384019551	0	0.2	2.74	1	206.614552358	206.660781018	"18"	592.421854222	586.764357419	1.5	0.1
0.01	1	0.0505719439999552	1	96	NA	211.384019551	0	0.2	2.74	1	206.898279123	206.948851067	"18"	592.421854222	586.764357419	1.5	0.1
0.01	1	0.00400764799996978	1	96	NA	211.384019551	0	0.2	2.74	1	207.182183671	207.186191319	"18"	592.421854222	586.764357419	1.5	0.1
0.01	1	0.00699726800002054	1	96	NA	211.384019551	0	0.2	2.74	1	207.415948551	207.422945819	"18"	592.421854222	586.764357419	1.5	0.1
0.01	1	0.00705788300001586	1	96	NA	211.384019551	0	0.2	2.74	1	207.649597748	207.656655631	"18"	592.421854222	586.764357419	1.5	0.1
0.01	1	0.00359415999997736	1	96	NA	211.384019551	0	0.2	2.74	1	207.883327523	207.886921683	"18"	592.421854222	586.764357419	1.5	0.1
0.01	1	0.00402798100003565	1	96	NA	211.384019551	0	0.2	2.74	1	208.117103168	208.121131149	"18"	592.421854222	586.764357419	1.5	0.1
0.01	1	0.00328929599999128	1	96	NA	211.384019551	0	0.2	2.74	1	208.350903331	208.354192627	"18"	592.421854222	586.764357419	1.5	0.1
0.01	1	0.00473408999999947	1	96	NA	211.384019551	0	0.2	2.74	1	208.584580236	208.589314326	"18"	592.421854222	586.764357419	1.5	0.1
0.01	1	0.00382814700003564	1	96	NA	211.384019551	0	0.2	2.74	1	208.818289088	208.822117235	"18"	592.421854222	586.764357419	1.5	0.1
0.01	1	0.00460461000000123	1	96	NA	211.384019551	0	0.2	2.74	1	209.051956321	209.056560931	"18"	592.421854222	586.764357419	1.5	0.1
0.01	1	0.00387874500000862	1	96	NA	211.384019551	0	0.2	2.74	1	209.285760146	209.289638891	"18"	592.421854222	586.764357419	1.5	0.1
0.01	1	0.00400658800003839	1	96	NA	211.384019551	0	0.2	2.74	1	209.519466961	209.523473549	"18"	592.421854222	586.764357419	1.5	0.1
0.01	1	0.0196711819999678	1	96	NA	211.384019551	0	0.2	2.74	1	209.753134171	209.772805353	"18"	592.421854222	586.764357419	1.5	0.1
0.01	1	0.177621861000034	1	96	NA	211.384019551	0	0.2	2.74	1	210.003616611	210.181238472	"18"	592.421854222	586.764357419	1.5	0.1
0.01	1	0.400860792999993	1	96	NA	211.384019551	0	0.2	2.74	1	210.404234111	210.805094904	"18"	592.421854222	586.764357419	1.5	0.1
0.01	1	0.343693674000008	2	96	NA	211.384019551	0	0.2	2.74	1	211.038636883	211.382330557	"18"	592.421854222	586.764357419	1.5	0.1
0.01	1	0.636441601000001	1	91	NA	222.559158489	0	0.18	2.92	1	213.425988751	214.062430352	"19"	592.421854222	586.764357419	1.5	0.1
0.01	1	0.223970930999997	1	91	NA	222.559158489	0	0.18	2.92	1	214.294180277	214.518151208	"19"	592.421854222	586.764357419	1.5	0.1
0.01	1	0.205168909000008	1	91	NA	222.559158489	0	0.18	2.92	1	214.74488862	214.950057529	"19"	592.421854222	586.764357419	1.5	0.1
0.01	1	0.442888497000013	1	91	NA	222.559158489	0	0.18	2.92	1	215.179013206	215.621901703	"19"	592.421854222	586.764357419	1.5	0.1
0.01	1	0.166201742999988	1	91	NA	222.559158489	0	0.18	2.92	1	215.846773386	216.012975129	"19"	592.421854222	586.764357419	1.5	0.1
0.01	1	0.110240293999993	1	91	NA	222.559158489	0	0.18	2.92	1	216.247511858	216.357752152	"19"	592.421854222	586.764357419	1.5	0.1
0.01	1	0.200753115999987	1	91	NA	222.559158489	0	0.18	2.92	1	216.581376886	216.782130002	"19"	592.421854222	586.764357419	1.5	0.1
0.01	1	0.183096435000039	1	91	NA	222.559158489	0	0.18	2.92	1	217.015397891	217.198494326	"19"	592.421854222	586.764357419	1.5	0.1
0.01	1	0.204390572999955	1	91	NA	222.559158489	0	0.18	2.92	1	217.432752203	217.637142776	"19"	592.421854222	586.764357419	1.5	0.1
0.01	1	0.306314984999972	1	91	NA	222.559158489	0	0.18	2.92	1	217.866810739	218.173125724	"19"	592.421854222	586.764357419	1.5	0.1
0.01	1	0.16477795000003	1	91	NA	222.559158489	0	0.18	2.92	1	218.401093326	218.565871276	"19"	592.421854222	586.764357419	1.5	0.1
0.01	1	0.140270143000009	1	91	NA	222.559158489	0	0.18	2.92	1	218.801751701	218.942021844	"19"	592.421854222	586.764357419	1.5	0.1
0.01	1	0.212283017000004	1	91	NA	222.559158489	0	0.18	2.92	1	219.169030518	219.381313535	"19"	592.421854222	586.764357419	1.5	0.1
0.01	1	0.370482766000009	1	91	NA	222.559158489	0	0.18	2.92	1	219.619775646	219.990258412	"19"	592.421854222	586.764357419	1.5	0.1
0.01	1	0.209852355999999	1	91	NA	222.559158489	0	0.18	2.92	1	220.220836951	220.430689307	"19"	592.421854222	586.764357419	1.5	0.1
0.01	1	0.237619257999995	1	91	NA	222.559158489	0	0.18	2.92	1	220.671581763	220.909201021	"19"	592.421854222	586.764357419	1.5	0.1
0.01	1	0.337979433999976	1	91	NA	222.559158489	0	0.18	2.92	1	221.138970896	221.47695033	"19"	592.421854222	586.764357419	1.5	0.1
0.01	1	0.43540545999997	1	91	NA	222.559158489	0	0.18	2.92	1	221.706621358	222.142026818	"19"	592.421854222	586.764357419	1.5	0.1
0.01	1	0.183138464000024	2	91	NA	222.559158489	0	0.18	2.92	1	222.374376386	222.55751485	"19"	592.421854222	586.764357419	1.5	0.1
0.01	1	0.225612834000003	1	5	226.951765213	NA	1	0	2.92	1	224.611519986	224.83713282	"20"	592.421854222	586.764357419	1.5	0.1
0.01	1	0.256139729999973	1	5	226.951765213	NA	1	0	2.92	1	225.062266906	225.318406636	"20"	592.421854222	586.764357419	1.5	0.1
0.01	1	0.282728715000019	1	5	226.951765213	NA	1	0	2.92	1	225.546450076	225.829178791	"20"	592.421854222	586.764357419	1.5	0.1
0.01	1	0.261669406999999	1	5	226.951765213	NA	1	0	2.92	1	226.063964176	226.325633583	"20"	592.421854222	586.764357419	1.5	0.1
0.01	1	0.289875810000012	1	5	226.951765213	NA	1	0	2.92	1	226.548176448	226.838052258	"20"	592.421854222	586.764357419	1.5	0.1
0.01	1	0.428207064999981	1	123	NA	239.318619967	0	0.28	3.2	1	228.985570853	229.413777918	"21"	592.421854222	586.764357419	1.5	0.1
0.01	1	0.113101590999975	1	123	NA	239.318619967	0	0.28	3.2	1	229.653315861	229.766417452	"21"	592.421854222	586.764357419	1.5	0.1
0.01	1	0.0250288210000349	1	123	NA	239.318619967	0	0.28	3.2	1	230.003862951	230.028891772	"21"	592.421854222	586.764357419	1.5	0.1
0.01	1	0.270468328999982	1	123	NA	239.318619967	0	0.28	3.2	1	230.254351086	230.524819415	"21"	592.421854222	586.764357419	1.5	0.1
0.01	1	0.353959240999984	1	123	NA	239.318619967	0	0.28	3.2	1	230.755207623	231.109166864	"21"	592.421854222	586.764357419	1.5	0.1
0.01	1	0.00386704799996096	1	123	NA	239.318619967	0	0.28	3.2	1	231.339423661	231.343290709	"21"	592.421854222	586.764357419	1.5	0.1
0.01	1	0.00395156300004373	1	123	NA	239.318619967	0	0.28	3.2	1	231.573198738	231.577150301	"21"	592.421854222	586.764357419	1.5	0.1
0.01	1	0.390653353000005	1	123	NA	239.318619967	0	0.28	3.2	1	231.807005151	232.197658504	"21"	592.421854222	586.764357419	1.5	0.1
0.01	1	0.525226121000003	1	123	NA	239.318619967	0	0.28	3.2	1	232.424784686	232.950010807	"21"	592.421854222	586.764357419	1.5	0.1
0.01	1	0.021334061999994	1	123	NA	239.318619967	0	0.28	3.2	1	233.175878691	233.197212753	"21"	592.421854222	586.764357419	1.5	0.1
0.01	1	0.00393065800000159	1	123	NA	239.318619967	0	0.28	3.2	1	233.426274733	233.430205391	"21"	592.421854222	586.764357419	1.5	0.1
0.01	1	0.0111456010000097	1	123	NA	239.318619967	0	0.28	3.2	1	233.66005457	233.671200171	"21"	592.421854222	586.764357419	1.5	0.1
0.01	1	0.0248730850000243	1	123	NA	239.318619967	0	0.28	3.2	1	233.893790778	233.918663863	"21"	592.421854222	586.764357419	1.5	0.1
0.01	1	0.00396839000001137	1	123	NA	239.318619967	0	0.28	3.2	1	234.144176831	234.148145221	"21"	592.421854222	586.764357419	1.5	0.1
0.01	1	0.0365659630000437	1	123	NA	239.318619967	0	0.28	3.2	1	234.377936226	234.414502189	"21"	592.421854222	586.764357419	1.5	0.1
0.01	1	0.0159287989999939	1	123	NA	239.318619967	0	0.28	3.2	1	234.645110156	234.661038955	"21"	592.421854222	586.764357419	1.5	0.1
0.01	1	0.0215886380000256	1	123	NA	239.318619967	0	0.28	3.2	1	234.895509138	234.917097776	"21"	592.421854222	586.764357419	1.5	0.1
0.01	1	0.0194659100000081	1	123	NA	239.318619967	0	0.28	3.2	1	235.145887491	235.165353401	"21"	592.421854222	586.764357419	1.5	0.1
0.01	1	0.0571815850000235	1	123	NA	239.318619967	0	0.28	3.2	1	235.396310858	235.453492443	"21"	592.421854222	586.764357419	1.5	0.1
0.01	1	0.0452999139999974	1	123	NA	239.318619967	0	0.28	3.2	1	235.680108716	235.72540863	"21"	592.421854222	586.764357419	1.5	0.1
0.01	1	0.0182229710000001	1	123	NA	239.318619967	0	0.28	3.2	1	235.963987988	235.982210959	"21"	592.421854222	586.764357419	1.5	0.1
0.01	1	0.0161454980000144	1	123	NA	239.318619967	0	0.28	3.2	1	236.214335223	236.230480721	"21"	592.421854222	586.764357419	1.5	0.1
0.01	1	0.0205389970000169	1	123	NA	239.318619967	0	0.28	3.2	1	236.464756036	236.485295033	"21"	592.421854222	586.764357419	1.5	0.1
0.01	1	0.0272814200000084	1	123	NA	239.318619967	0	0.28	3.2	1	236.715190876	236.742472296	"21"	592.421854222	586.764357419	1.5	0.1
0.01	1	0.0249324629999705	1	123	NA	239.318619967	0	0.28	3.2	1	236.965567898	236.990500361	"21"	592.421854222	586.764357419	1.5	0.1
0.01	1	0.0138548680000099	1	123	NA	239.318619967	0	0.28	3.2	1	237.216129831	237.229984699	"21"	592.421854222	586.764357419	1.5	0.1
0.01	1	1.07569593700003	1	123	NA	239.318619967	0	0.28	3.2	1	237.466501851	238.542197788	"21"	592.421854222	586.764357419	1.5	0.1
0.01	1	0.228210358000013	1	123	NA	239.318619967	0	0.28	3.2	1	238.768680346	238.996890704	"21"	592.421854222	586.764357419	1.5	0.1
0.01	1	0.0975322709999773	2	123	NA	239.318619967	0	0.28	3.2	1	239.219399045	239.316931316	"21"	592.421854222	586.764357419	1.5	0.1
0.01	1	0.432251927000038	1	81	NA	256.392061363	0	0.44	3.64	1	241.373089254	241.805341181	"22"	592.421854222	586.764357419	1.5	0.1
0.01	1	0.277527480000003	1	81	NA	256.392061363	0	0.44	3.64	1	242.041000126	242.318527606	"22"	592.421854222	586.764357419	1.5	0.1
0.01	1	0.36054399599999	1	81	NA	256.392061363	0	0.44	3.64	1	242.541794053	242.902338049	"22"	592.421854222	586.764357419	1.5	0.1
0.01	1	0.126668044999974	1	81	NA	256.392061363	0	0.44	3.64	1	243.126167296	243.252835341	"22"	592.421854222	586.764357419	1.5	0.1
0.01	1	0.0963432089999969	1	81	NA	256.392061363	0	0.44	3.64	1	243.476595301	243.57293851	"22"	592.421854222	586.764357419	1.5	0.1
0.01	1	0.051008717000002	1	81	NA	256.392061363	0	0.44	3.64	1	243.810446733	243.86145545	"22"	592.421854222	586.764357419	1.5	0.1
0.01	1	0.167722192999975	1	81	NA	256.392061363	0	0.44	3.64	1	244.094296728	244.262018921	"22"	592.421854222	586.764357419	1.5	0.1
0.01	1	0.0388492430000156	1	81	NA	256.392061363	0	0.44	3.64	1	244.494953088	244.533802331	"22"	592.421854222	586.764357419	1.5	0.1
0.01	1	0.059550296999987	1	81	NA	256.392061363	0	0.44	3.64	1	244.762106966	244.821657263	"22"	592.421854222	586.764357419	1.5	0.1
0.01	1	0.0472041929999705	1	81	NA	256.392061363	0	0.44	3.64	1	245.062520806	245.109724999	"22"	592.421854222	586.764357419	1.5	0.1
0.01	1	0.163544118000004	1	81	NA	256.392061363	0	0.44	3.64	1	245.346365163	245.509909281	"22"	592.421854222	586.764357419	1.5	0.1
0.01	1	0.139610660000017	1	81	NA	256.392061363	0	0.44	3.64	1	245.747135416	245.886746076	"22"	592.421854222	586.764357419	1.5	0.1
0.01	1	0.0672285849999525	1	81	NA	256.392061363	0	0.44	3.64	1	246.114335588	246.181564173	"22"	592.421854222	586.764357419	1.5	0.1
0.01	1	0.00394496399997024	1	81	NA	256.392061363	0	0.44	3.64	1	246.414833961	246.418778925	"22"	592.421854222	586.764357419	1.5	0.1
0.01	1	0.380176033999987	1	81	NA	256.392061363	0	0.44	3.64	1	246.648499758	247.028675792	"22"	592.421854222	586.764357419	1.5	0.1
0.01	1	0.538838913000006	1	81	NA	256.392061363	0	0.44	3.64	1	247.266227287	247.8050662	"22"	592.421854222	586.764357419	1.5	0.1
0.01	1	0.0676322580000033	1	81	NA	256.392061363	0	0.44	3.64	1	248.034247025	248.101879283	"22"	592.421854222	586.764357419	1.5	0.1
0.01	1	0.078636428999971	1	81	NA	256.392061363	0	0.44	3.64	1	248.334821841	248.41345827	"22"	592.421854222	586.764357419	1.5	0.1
0.01	1	0.0572576939999863	1	81	NA	256.392061363	0	0.44	3.64	1	248.651870958	248.709128652	"22"	592.421854222	586.764357419	1.5	0.1
0.01	1	0.0304758329999686	1	81	NA	256.392061363	0	0.44	3.64	1	248.935854123	248.966329956	"22"	592.421854222	586.764357419	1.5	0.1
0.01	1	0.0196135059999847	1	81	NA	256.392061363	0	0.44	3.64	1	249.202901786	249.222515292	"22"	592.421854222	586.764357419	1.5	0.1
0.01	1	0.0325354650000236	1	81	NA	256.392061363	0	0.44	3.64	1	249.453341621	249.485877086	"22"	592.421854222	586.764357419	1.5	0.1
0.01	1	0.00712461299997358	1	81	NA	256.392061363	0	0.44	3.64	1	249.720466106	249.727590719	"22"	592.421854222	586.764357419	1.5	0.1
0.01	1	0.035063158000014	1	81	NA	256.392061363	0	0.44	3.64	1	249.954251301	249.989314459	"22"	592.421854222	586.764357419	1.5	0.1
0.01	1	0.0233404840000162	1	81	NA	256.392061363	0	0.44	3.64	1	250.221335771	250.244676255	"22"	592.421854222	586.764357419	1.5	0.1
0.01	1	0.0215841369999907	1	81	NA	256.392061363	0	0.44	3.64	1	250.471696546	250.493280683	"22"	592.421854222	586.764357419	1.5	0.1
0.01	1	0.0268496859999914	1	81	NA	256.392061363	0	0.44	3.64	1	250.722127158	250.748976844	"22"	592.421854222	586.764357419	1.5	0.1
0.01	1	0.009912896000003	1	81	NA	256.392061363	0	0.44	3.64	1	250.972525748	250.982438644	"22"	592.421854222	586.764357419	1.5	0.1
0.01	1	0.0156361169999855	1	81	NA	256.392061363	0	0.44	3.64	1	251.222887943	251.23852406	"22"	592.421854222	586.764357419	1.5	0.1
0.01	1	0.0363448850000054	1	81	NA	256.392061363	0	0.44	3.64	1	251.473354556	251.509699441	"22"	592.421854222	586.764357419	1.5	0.1
0.01	1	0.00392329500004962	1	81	NA	256.392061363	0	0.44	3.64	1	251.740442936	251.744366231	"22"	592.421854222	586.764357419	1.5	0.1
0.01	1	0.00826947100000552	1	81	NA	256.392061363	0	0.44	3.64	1	251.974250266	251.982519737	"22"	592.421854222	586.764357419	1.5	0.1
0.01	1	0.0296710349999785	1	81	NA	256.392061363	0	0.44	3.64	1	252.208049384	252.237720419	"22"	592.421854222	586.764357419	1.5	0.1
0.01	1	0.0261685019999618	1	81	NA	256.392061363	0	0.44	3.64	1	252.474983381	252.501151883	"22"	592.421854222	586.764357419	1.5	0.1
0.01	1	0.0155181869999979	1	81	NA	256.392061363	0	0.44	3.64	1	252.725467628	252.740985815	"22"	592.421854222	586.764357419	1.5	0.1
0.01	1	0.038962319999996	1	81	NA	256.392061363	0	0.44	3.64	1	252.975826966	253.014789286	"22"	592.421854222	586.764357419	1.5	0.1
0.01	1	0.082083128000022	1	81	NA	256.392061363	0	0.44	3.64	1	253.243056253	253.325139381	"22"	592.421854222	586.764357419	1.5	0.1
0.01	1	0.0693852139999649	1	81	NA	256.392061363	0	0.44	3.64	1	253.560250197	253.629635411	"22"	592.421854222	586.764357419	1.5	0.1
0.01	1	0.0966257740000174	1	81	NA	256.392061363	0	0.44	3.64	1	253.860802456	253.95742823	"22"	592.421854222	586.764357419	1.5	0.1
0.01	1	0.507631142999969	1	81	NA	256.392061363	0	0.44	3.64	1	254.194641741	254.702272884	"22"	592.421854222	586.764357419	1.5	0.1
0.01	1	0.0932056780000039	1	81	NA	256.392061363	0	0.44	3.64	1	254.929205846	255.022411524	"22"	592.421854222	586.764357419	1.5	0.1
0.01	1	0.120162735999997	1	81	NA	256.392061363	0	0.44	3.64	1	255.246279096	255.366441832	"22"	592.421854222	586.764357419	1.5	0.1
0.01	1	0.0972405069999809	1	81	NA	256.392061363	0	0.44	3.64	1	255.597076528	255.694317035	"22"	592.421854222	586.764357419	1.5	0.1
0.01	1	0.10738747900001	1	81	NA	256.392061363	0	0.44	3.64	1	255.930844148	256.038231627	"22"	592.421854222	586.764357419	1.5	0.1
0.01	1	0.125589934999994	2	81	NA	256.392061363	0	0.44	3.64	1	256.264801116	256.390391051	"22"	592.421854222	586.764357419	1.5	0.1
0.01	1	0.233918188000018	1	117	NA	263.071855399	0	0.14	3.78	1	258.435082536	258.669000724	"23"	592.421854222	586.764357419	1.5	0.1
0.01	1	0.0042361629999732	1	117	NA	263.071855399	0	0.14	3.78	1	258.90247086	258.906707023	"23"	592.421854222	586.764357419	1.5	0.1
0.01	1	0.100435805000018	1	117	NA	263.071855399	0	0.14	3.78	1	259.136293161	259.236728966	"23"	592.421854222	586.764357419	1.5	0.1
0.01	1	0.00364475899999661	1	117	NA	263.071855399	0	0.14	3.78	1	259.470210076	259.473854835	"23"	592.421854222	586.764357419	1.5	0.1
0.01	1	0.478837732999978	1	117	NA	263.071855399	0	0.14	3.78	1	259.703887996	260.182725729	"23"	592.421854222	586.764357419	1.5	0.1
0.01	1	0.00433203799997273	1	117	NA	263.071855399	0	0.14	3.78	1	260.405095523	260.409427561	"23"	592.421854222	586.764357419	1.5	0.1
0.01	1	0.00465844500001822	1	117	NA	263.071855399	0	0.14	3.78	1	260.638804191	260.643462636	"23"	592.421854222	586.764357419	1.5	0.1
0.01	1	0.0453513079999652	1	117	NA	263.071855399	0	0.14	3.78	1	260.872491841	260.917843149	"23"	592.421854222	586.764357419	1.5	0.1
0.01	1	0.401208965000023	1	117	NA	263.071855399	0	0.14	3.78	1	261.156348108	261.557557073	"23"	592.421854222	586.764357419	1.5	0.1
0.01	1	0.00389520599992466	1	117	NA	263.071855399	0	0.14	3.78	1	261.790735281	261.794630487	"23"	592.421854222	586.764357419	1.5	0.1
0.01	1	0.00351840500002254	1	117	NA	263.071855399	0	0.14	3.78	1	262.024400748	262.027919153	"23"	592.421854222	586.764357419	1.5	0.1
0.01	1	0.00473263200001384	1	117	NA	263.071855399	0	0.14	3.78	1	262.258251406	262.262984038	"23"	592.421854222	586.764357419	1.5	0.1
0.01	1	0.00378732999990916	1	117	NA	263.071855399	0	0.14	3.78	1	262.491925311	262.495712641	"23"	592.421854222	586.764357419	1.5	0.1
0.01	1	0.00832367700002123	1	117	NA	263.071855399	0	0.14	3.78	1	262.725720716	262.734044393	"23"	592.421854222	586.764357419	1.5	0.1
0.01	1	0.110767058000079	2	117	NA	263.071855399	0	0.14	3.78	1	262.959399626	263.070166684	"23"	592.421854222	586.764357419	1.5	0.1
0.01	1	0.485333841000056	1	84	NA	271.77641711	0	0.13	3.91	1	265.096313866	265.581647707	"24"	592.421854222	586.764357419	1.5	0.1
0.01	1	0.00402813799996693	1	84	NA	271.77641711	0	0.13	3.91	1	265.814056113	265.818084251	"24"	592.421854222	586.764357419	1.5	0.1
0.01	1	0.0693145770000001	1	84	NA	271.77641711	0	0.13	3.91	1	266.047973606	266.117288183	"24"	592.421854222	586.764357419	1.5	0.1
0.01	1	0.072495756999956	1	84	NA	271.77641711	0	0.13	3.91	1	266.348368101	266.420863858	"24"	592.421854222	586.764357419	1.5	0.1
0.01	1	0.0849582979999468	1	84	NA	271.77641711	0	0.13	3.91	1	266.648928738	266.733887036	"24"	592.421854222	586.764357419	1.5	0.1
0.01	1	0.0796769149999363	1	84	NA	271.77641711	0	0.13	3.91	1	266.966109143	267.045786058	"24"	592.421854222	586.764357419	1.5	0.1
0.01	1	0.113832782000031	1	84	NA	271.77641711	0	0.13	3.91	1	267.283287968	267.39712075	"24"	592.421854222	586.764357419	1.5	0.1
0.01	1	0.067848142999992	1	84	NA	271.77641711	0	0.13	3.91	1	267.633867961	267.701716104	"24"	592.421854222	586.764357419	1.5	0.1
0.01	1	0.166475117999994	1	84	NA	271.77641711	0	0.13	3.91	1	267.934388038	268.100863156	"24"	592.421854222	586.764357419	1.5	0.1
0.01	1	0.133648479000044	1	84	NA	271.77641711	0	0.13	3.91	1	268.335075988	268.468724467	"24"	592.421854222	586.764357419	1.5	0.1
0.01	1	0.0630649319999748	1	84	NA	271.77641711	0	0.13	3.91	1	268.702445561	268.765510493	"24"	592.421854222	586.764357419	1.5	0.1
0.01	1	0.132210237000095	1	84	NA	271.77641711	0	0.13	3.91	1	268.986163966	269.118374203	"24"	592.421854222	586.764357419	1.5	0.1
0.01	1	2.05172537099997	1	84	NA	271.77641711	0	0.13	3.91	1	269.353471573	271.405196944	"24"	592.421854222	586.764357419	1.5	0.1
0.01	1	0.134022303999927	2	84	NA	271.77641711	0	0.13	3.91	1	271.640712826	271.77473513	"24"	592.421854222	586.764357419	1.5	0.1
0.01	1	0.763016997999898	1	22	NA	282.976076084	0	0.19	4.1	1	273.827601186	274.590618184	"25"	592.421854222	586.764357419	1.5	0.1
0.01	1	0.0875651299999163	1	22	NA	282.976076084	0	0.19	4.1	1	274.829283741	274.916848871	"25"	592.421854222	586.764357419	1.5	0.1
0.01	1	0.147299240000052	1	22	NA	282.976076084	0	0.19	4.1	1	275.146598576	275.293897816	"25"	592.421854222	586.764357419	1.5	0.1
0.01	1	0.0901849309999534	1	22	NA	282.976076084	0	0.19	4.1	1	275.530566218	275.620751149	"25"	592.421854222	586.764357419	1.5	0.1
0.01	1	0.157273588000066	1	22	NA	282.976076084	0	0.19	4.1	1	275.847666228	276.004939816	"25"	592.421854222	586.764357419	1.5	0.1
0.01	1	0.183093194999969	1	22	NA	282.976076084	0	0.19	4.1	1	276.231654531	276.414747726	"25"	592.421854222	586.764357419	1.5	0.1
0.01	1	0.236778855000011	1	22	NA	282.976076084	0	0.19	4.1	1	276.649049903	276.885828758	"25"	592.421854222	586.764357419	1.5	0.1
0.01	1	0.225269496999999	1	22	NA	282.976076084	0	0.19	4.1	1	277.116611341	277.341880838	"25"	592.421854222	586.764357419	1.5	0.1
0.01	1	0.287036797000042	1	22	NA	282.976076084	0	0.19	4.1	1	277.567291096	277.854327893	"25"	592.421854222	586.764357419	1.5	0.1
0.01	1	0.304739489999974	1	22	NA	282.976076084	0	0.19	4.1	1	278.084834028	278.389573518	"25"	592.421854222	586.764357419	1.5	0.1
0.01	1	0.32214964100001	1	22	NA	282.976076084	0	0.19	4.1	1	278.619075426	278.941225067	"25"	592.421854222	586.764357419	1.5	0.1
0.01	1	0.227190532000009	1	22	NA	282.976076084	0	0.19	4.1	1	279.169991798	279.39718233	"25"	592.421854222	586.764357419	1.5	0.1
0.01	1	0.248042913999939	1	22	NA	282.976076084	0	0.19	4.1	1	279.620689793	279.868732707	"25"	592.421854222	586.764357419	1.5	0.1
0.01	1	0.157719530000008	1	22	NA	282.976076084	0	0.19	4.1	1	280.104888931	280.262608461	"25"	592.421854222	586.764357419	1.5	0.1
0.01	1	0.212277921999998	1	22	NA	282.976076084	0	0.19	4.1	1	280.488893284	280.701171206	"25"	592.421854222	586.764357419	1.5	0.1
0.01	1	0.217443537999998	1	22	NA	282.976076084	0	0.19	4.1	1	280.939671408	281.157114946	"25"	592.421854222	586.764357419	1.5	0.1
0.01	1	0.214608365999993	1	22	NA	282.976076084	0	0.19	4.1	1	281.390414013	281.605022379	"25"	592.421854222	586.764357419	1.5	0.1
0.01	1	0.179815759999997	1	22	NA	282.976076084	0	0.19	4.1	1	281.841107538	282.020923298	"25"	592.421854222	586.764357419	1.5	0.1
0.01	1	0.179093445000035	1	22	NA	282.976076084	0	0.19	4.1	1	282.258472246	282.437565691	"25"	592.421854222	586.764357419	1.5	0.1
0.01	1	0.298482996999951	2	22	NA	282.976076084	0	0.19	4.1	1	282.675909541	282.974392538	"25"	592.421854222	586.764357419	1.5	0.1
0.01	1	0.560709013000064	1	36	296.468631906	NA	1	0	4.1	1	285.029872346	285.590581359	"26"	592.421854222	586.764357419	1.5	0.1
0.01	1	0.0619399549999571	1	36	296.468631906	NA	1	0	4.1	1	285.831205488	285.893145443	"26"	592.421854222	586.764357419	1.5	0.1
0.01	1	0.0427914610000926	1	36	296.468631906	NA	1	0	4.1	1	286.131695138	286.174486599	"26"	592.421854222	586.764357419	1.5	0.1
0.01	1	0.0876080560000219	1	36	296.468631906	NA	1	0	4.1	1	286.398797876	286.486405932	"26"	592.421854222	586.764357419	1.5	0.1
0.01	1	0.064663057999951	1	36	296.468631906	NA	1	0	4.1	1	286.716102623	286.780765681	"26"	592.421854222	586.764357419	1.5	0.1
0.01	1	0.0288570920000666	1	36	296.468631906	NA	1	0	4.1	1	287.016550073	287.045407165	"26"	592.421854222	586.764357419	1.5	0.1
0.01	1	0.106907523000018	1	36	296.468631906	NA	1	0	4.1	1	287.266890798	287.373798321	"26"	592.421854222	586.764357419	1.5	0.1
0.01	1	0.0283407570000236	1	36	296.468631906	NA	1	0	4.1	1	287.600825986	287.629166743	"26"	592.421854222	586.764357419	1.5	0.1
0.01	1	0.0177385160000085	1	36	296.468631906	NA	1	0	4.1	1	287.867864131	287.885602647	"26"	592.421854222	586.764357419	1.5	0.1
0.01	1	0.071784383000022	1	36	296.468631906	NA	1	0	4.1	1	288.118337606	288.190121989	"26"	592.421854222	586.764357419	1.5	0.1
0.01	1	0.114692045999959	1	36	296.468631906	NA	1	0	4.1	1	288.418950217	288.533642263	"26"	592.421854222	586.764357419	1.5	0.1
0.01	1	0.00374664299999949	1	36	296.468631906	NA	1	0	4.1	1	288.769451828	288.773198471	"26"	592.421854222	586.764357419	1.5	0.1
0.01	1	0.0499323989999994	1	36	296.468631906	NA	1	0	4.1	1	289.003303476	289.053235875	"26"	592.421854222	586.764357419	1.5	0.1
0.01	1	0.0230384669999921	1	36	296.468631906	NA	1	0	4.1	1	289.286955531	289.309993998	"26"	592.421854222	586.764357419	1.5	0.1
0.01	1	0.0851842299999817	1	36	296.468631906	NA	1	0	4.1	1	289.537391686	289.622575916	"26"	592.421854222	586.764357419	1.5	0.1
0.01	1	0.095068852000054	1	36	296.468631906	NA	1	0	4.1	1	289.854672526	289.949741378	"26"	592.421854222	586.764357419	1.5	0.1
0.01	1	0.00406881799995062	1	36	296.468631906	NA	1	0	4.1	1	290.188520303	290.192589121	"26"	592.421854222	586.764357419	1.5	0.1
0.01	1	0.0707752550000578	1	36	296.468631906	NA	1	0	4.1	1	290.422251001	290.493026256	"26"	592.421854222	586.764357419	1.5	0.1
0.01	1	0.0747609310000144	1	36	296.468631906	NA	1	0	4.1	1	290.722705018	290.797465949	"26"	592.421854222	586.764357419	1.5	0.1
0.01	1	0.047232491999921	1	36	296.468631906	NA	1	0	4.1	1	291.023230763	291.070463255	"26"	592.421854222	586.764357419	1.5	0.1
0.01	1	0.074264006999897	1	36	296.468631906	NA	1	0	4.1	1	291.307038623	291.38130263	"26"	592.421854222	586.764357419	1.5	0.1
0.01	1	0.0458391529999744	1	36	296.468631906	NA	1	0	4.1	1	291.607650506	291.653489659	"26"	592.421854222	586.764357419	1.5	0.1
0.01	1	0.0495003620000034	1	36	296.468631906	NA	1	0	4.1	1	291.891269316	291.940769678	"26"	592.421854222	586.764357419	1.5	0.1
0.01	1	0.126178162999963	1	36	296.468631906	NA	1	0	4.1	1	292.175131576	292.301309739	"26"	592.421854222	586.764357419	1.5	0.1
0.01	1	0.0235386730000755	1	36	296.468631906	NA	1	0	4.1	1	292.525815926	292.549354599	"26"	592.421854222	586.764357419	1.5	0.1
0.01	1	0.046259028999998	1	36	296.468631906	NA	1	0	4.1	1	292.776209181	292.82246821	"26"	592.421854222	586.764357419	1.5	0.1
0.01	1	0.049567204999903	1	36	296.468631906	NA	1	0	4.1	1	293.060072791	293.109639996	"26"	592.421854222	586.764357419	1.5	0.1
0.01	1	0.029860044999964	1	36	296.468631906	NA	1	0	4.1	1	293.343740231	293.373600276	"26"	592.421854222	586.764357419	1.5	0.1
0.01	1	0.0590335420000656	1	36	296.468631906	NA	1	0	4.1	1	293.610931728	293.66996527	"26"	592.421854222	586.764357419	1.5	0.1
0.01	1	0.0708119969999643	1	36	296.468631906	NA	1	0	4.1	1	293.894780256	293.965592253	"26"	592.421854222	586.764357419	1.5	0.1
0.01	1	0.44310560200006	1	36	296.468631906	NA	1	0	4.1	1	294.195351707	294.638457309	"26"	592.421854222	586.764357419	1.5	0.1
0.01	1	0.142068263999931	1	36	296.468631906	NA	1	0	4.1	1	294.879798991	295.021867255	"26"	592.421854222	586.764357419	1.5	0.1
0.01	1	0.110700611000084	1	36	296.468631906	NA	1	0	4.1	1	295.247031756	295.357732367	"26"	592.421854222	586.764357419	1.5	0.1
0.01	1	0.111803333000012	1	36	296.468631906	NA	1	0	4.1	1	295.580991199	295.692794532	"26"	592.421854222	586.764357419	1.5	0.1
0.01	1	0.123867322999899	1	36	296.468631906	NA	1	0	4.1	1	295.914732498	296.038599821	"26"	592.421854222	586.764357419	1.5	0.1
0.01	1	0.084122275000027	1	36	296.468631906	NA	1	0	4.1	1	296.265378998	296.349501273	"26"	592.421854222	586.764357419	1.5	0.1
0.01	1	0.343010690000028	1	124	NA	309.742545741	0	0.31	4.41	1	298.519163286	298.862173976	"27"	592.421854222	586.764357419	1.5	0.1
0.01	1	0.127699004000078	1	124	NA	309.742545741	0	0.31	4.41	1	299.086796126	299.21449513	"27"	592.421854222	586.764357419	1.5	0.1
0.01	1	0.0387605710000116	1	124	NA	309.742545741	0	0.31	4.41	1	299.454030761	299.492791332	"27"	592.421854222	586.764357419	1.5	0.1
0.01	1	0.0842114240000456	1	124	NA	309.742545741	0	0.31	4.41	1	299.721299266	299.80551069	"27"	592.421854222	586.764357419	1.5	0.1
0.01	1	0.0706698730000426	1	124	NA	309.742545741	0	0.31	4.41	1	300.038406703	300.109076576	"27"	592.421854222	586.764357419	1.5	0.1
0.01	1	0.114654277999989	1	124	NA	309.742545741	0	0.31	4.41	1	300.338868286	300.453522564	"27"	592.421854222	586.764357419	1.5	0.1
0.01	1	0.0752550720000045	1	124	NA	309.742545741	0	0.31	4.41	1	300.689526601	300.764781673	"27"	592.421854222	586.764357419	1.5	0.1
0.01	1	0.0794399149999663	1	124	NA	309.742545741	0	0.31	4.41	1	300.989992844	301.069432759	"27"	592.421854222	586.764357419	1.5	0.1
0.01	1	0.0109361539999782	1	124	NA	309.742545741	0	0.31	4.41	1	301.307154371	301.318090525	"27"	592.421854222	586.764357419	1.5	0.1
0.01	1	0.137738693000074	1	124	NA	309.742545741	0	0.31	4.41	1	301.540953976	301.678692669	"27"	592.421854222	586.764357419	1.5	0.1
0.01	1	0.0657854889999498	1	124	NA	309.742545741	0	0.31	4.41	1	301.908181847	301.973967336	"27"	592.421854222	586.764357419	1.5	0.1
0.01	1	0.108426410999982	1	124	NA	309.742545741	0	0.31	4.41	1	302.208691101	302.317117512	"27"	592.421854222	586.764357419	1.5	0.1
0.01	1	0.0704931929999475	1	124	NA	309.742545741	0	0.31	4.41	1	302.542668011	302.613161204	"27"	592.421854222	586.764357419	1.5	0.1
0.01	1	0.0419001230000049	1	124	NA	309.742545741	0	0.31	4.41	1	302.843178181	302.885078304	"27"	592.421854222	586.764357419	1.5	0.1
0.01	1	0.0644229569999197	1	124	NA	309.742545741	0	0.31	4.41	1	303.110187953	303.17461091	"27"	592.421854222	586.764357419	1.5	0.1
0.01	1	0.0179873900000302	1	124	NA	309.742545741	0	0.31	4.41	1	303.410753376	303.428740766	"27"	592.421854222	586.764357419	1.5	0.1
0.01	1	0.057536521999964	1	124	NA	309.742545741	0	0.31	4.41	1	303.661166631	303.718703153	"27"	592.421854222	586.764357419	1.5	0.1
0.01	1	0.0610478889999513	1	124	NA	309.742545741	0	0.31	4.41	1	303.944898481	304.00594637	"27"	592.421854222	586.764357419	1.5	0.1
0.01	1	0.0481303000000253	1	124	NA	309.742545741	0	0.31	4.41	1	304.228861793	304.276992093	"27"	592.421854222	586.764357419	1.5	0.1
0.01	1	0.00827773800006071	1	124	NA	309.742545741	0	0.31	4.41	1	304.512650961	304.520928699	"27"	592.421854222	586.764357419	1.5	0.1
0.01	1	0.0196053999999322	1	124	NA	309.742545741	0	0.31	4.41	1	304.746276628	304.765882028	"27"	592.421854222	586.764357419	1.5	0.1
0.01	1	0.04970137600003	1	124	NA	309.742545741	0	0.31	4.41	1	304.996648651	305.046350027	"27"	592.421854222	586.764357419	1.5	0.1
0.01	1	0.0448466199999302	1	124	NA	309.742545741	0	0.31	4.41	1	305.280550066	305.325396686	"27"	592.421854222	586.764357419	1.5	0.1
0.01	1	0.0425796509999827	1	124	NA	309.742545741	0	0.31	4.41	1	305.547622916	305.590202567	"27"	592.421854222	586.764357419	1.5	0.1
0.01	1	0.0867682169999853	1	124	NA	309.742545741	0	0.31	4.41	1	305.814853741	305.901621958	"27"	592.421854222	586.764357419	1.5	0.1
0.01	1	0.00406530099996871	1	124	NA	309.742545741	0	0.31	4.41	1	306.131975636	306.136040937	"27"	592.421854222	586.764357419	1.5	0.1
0.01	1	0.0712180829999625	1	124	NA	309.742545741	0	0.31	4.41	1	306.365750538	306.436968621	"27"	592.421854222	586.764357419	1.5	0.1
0.01	1	0.051707151999949	1	124	NA	309.742545741	0	0.31	4.41	1	306.666205731	306.717912883	"27"	592.421854222	586.764357419	1.5	0.1
0.01	1	0.879497897000078	1	124	NA	309.742545741	0	0.31	4.41	1	306.950003201	307.829501098	"27"	592.421854222	586.764357419	1.5	0.1
0.01	1	0.369867383000042	1	124	NA	309.742545741	0	0.31	4.41	1	308.051896096	308.421763479	"27"	592.421854222	586.764357419	1.5	0.1
0.01	1	0.521289508999985	1	124	NA	309.742545741	0	0.31	4.41	1	308.652903486	309.174192995	"27"	592.421854222	586.764357419	1.5	0.1
0.01	1	0.336685971000065	2	124	NA	309.742545741	0	0.31	4.41	1	309.404117748	309.740803719	"27"	592.421854222	586.764357419	1.5	0.1
0.01	1	0.470279124000058	1	13	315.568481656	NA	1	0	4.41	1	311.774785926	312.24506505	"28"	592.421854222	586.764357419	1.5	0.1
0.01	1	0.0812349770000083	1	13	315.568481656	NA	1	0	4.41	1	312.475979756	312.557214733	"28"	592.421854222	586.764357419	1.5	0.1
0.01	1	0.0290020480000521	1	13	315.568481656	NA	1	0	4.41	1	312.793283708	312.822285756	"28"	592.421854222	586.764357419	1.5	0.1
0.01	1	0.0415379190000067	1	13	315.568481656	NA	1	0	4.41	1	313.043638253	313.085176172	"28"	592.421854222	586.764357419	1.5	0.1
0.01	1	0.0379959550000422	1	13	315.568481656	NA	1	0	4.41	1	313.310669021	313.348664976	"28"	592.421854222	586.764357419	1.5	0.1
0.01	1	0.028008117000013	1	13	315.568481656	NA	1	0	4.41	1	313.577860346	313.605868463	"28"	592.421854222	586.764357419	1.5	0.1
0.01	1	0.0499882330000219	1	13	315.568481656	NA	1	0	4.41	1	313.828270186	313.878258419	"28"	592.421854222	586.764357419	1.5	0.1
0.01	1	0.0216321710000784	1	13	315.568481656	NA	1	0	4.41	1	314.112089701	314.133721872	"28"	592.421854222	586.764357419	1.5	0.1
0.01	1	0.03485706999993	1	13	315.568481656	NA	1	0	4.41	1	314.362433696	314.397290766	"28"	592.421854222	586.764357419	1.5	0.1
0.01	1	0.0402897569999823	1	13	315.568481656	NA	1	0	4.41	1	314.629631461	314.669921218	"28"	592.421854222	586.764357419	1.5	0.1
0.01	1	0.0443168509999623	1	13	315.568481656	NA	1	0	4.41	1	314.896709516	314.941026367	"28"	592.421854222	586.764357419	1.5	0.1
0.01	1	0.0338290170000164	1	13	315.568481656	NA	1	0	4.41	1	315.163817486	315.197646503	"28"	592.421854222	586.764357419	1.5	0.1
0.01	1	0.0155904330000567	1	13	315.568481656	NA	1	0	4.41	1	315.430952847	315.44654328	"28"	592.421854222	586.764357419	1.5	0.1
0.01	1	0.115026120000039	1	125	NA	326.960200451	0	0.36	4.77	1	317.617998463	317.733024583	"29"	592.421854222	586.764357419	1.5	0.1
0.01	1	0.0933830090000356	1	125	NA	326.960200451	0	0.36	4.77	1	317.968630536	318.062013545	"29"	592.421854222	586.764357419	1.5	0.1
0.01	1	0.0649766070000624	1	125	NA	326.960200451	0	0.36	4.77	1	318.285727076	318.350703683	"29"	592.421854222	586.764357419	1.5	0.1
0.01	1	0.0183430199999748	1	125	NA	326.960200451	0	0.36	4.77	1	318.586347798	318.604690818	"29"	592.421854222	586.764357419	1.5	0.1
0.01	1	0.0563027250000232	1	125	NA	326.960200451	0	0.36	4.77	1	318.836770568	318.893073293	"29"	592.421854222	586.764357419	1.5	0.1
0.01	1	0.0217290680000133	1	125	NA	326.960200451	0	0.36	4.77	1	319.120614116	319.142343184	"29"	592.421854222	586.764357419	1.5	0.1
0.01	1	0.0592872130000615	1	125	NA	326.960200451	0	0.36	4.77	1	319.37091956	319.430206773	"29"	592.421854222	586.764357419	1.5	0.1
0.01	1	0.0221387809999669	1	125	NA	326.960200451	0	0.36	4.77	1	319.654673848	319.676812629	"29"	592.421854222	586.764357419	1.5	0.1
0.01	1	0.0206877120000399	1	125	NA	326.960200451	0	0.36	4.77	1	319.905216958	319.92590467	"29"	592.421854222	586.764357419	1.5	0.1
0.01	1	0.0270063250000021	1	125	NA	326.960200451	0	0.36	4.77	1	320.155630478	320.182636803	"29"	592.421854222	586.764357419	1.5	0.1
0.01	1	0.0404129159999229	1	125	NA	326.960200451	0	0.36	4.77	1	320.406018966	320.446431882	"29"	592.421854222	586.764357419	1.5	0.1
0.01	1	0.029370278999977	1	125	NA	326.960200451	0	0.36	4.77	1	320.673155116	320.702525395	"29"	592.421854222	586.764357419	1.5	0.1
0.01	1	0.00381385800005773	1	125	NA	326.960200451	0	0.36	4.77	1	320.940246283	320.944060141	"29"	592.421854222	586.764357419	1.5	0.1
0.01	1	0.0152458140000817	1	125	NA	326.960200451	0	0.36	4.77	1	321.173972333	321.189218147	"29"	592.421854222	586.764357419	1.5	0.1
0.01	1	0.00364835300001687	1	125	NA	326.960200451	0	0.36	4.77	1	321.424461418	321.428109771	"29"	592.421854222	586.764357419	1.5	0.1
0.01	1	0.0267569159999539	1	125	NA	326.960200451	0	0.36	4.77	1	321.658192403	321.684949319	"29"	592.421854222	586.764357419	1.5	0.1
0.01	1	0.0821235089999846	1	125	NA	326.960200451	0	0.36	4.77	1	321.908476447	321.990599956	"29"	592.421854222	586.764357419	1.5	0.1
0.01	1	0.00385906100007105	1	125	NA	326.960200451	0	0.36	4.77	1	322.225664868	322.229523929	"29"	592.421854222	586.764357419	1.5	0.1
0.01	1	0.00370690700003706	1	125	NA	326.960200451	0	0.36	4.77	1	322.459440496	322.463147403	"29"	592.421854222	586.764357419	1.5	0.1
0.01	1	0.00392910499999743	1	125	NA	326.960200451	0	0.36	4.77	1	322.693143448	322.697072553	"29"	592.421854222	586.764357419	1.5	0.1
0.01	1	0.00825287500003924	1	125	NA	326.960200451	0	0.36	4.77	1	322.926898086	322.935150961	"29"	592.421854222	586.764357419	1.5	0.1
0.01	1	0.0363175399999136	1	125	NA	326.960200451	0	0.36	4.77	1	323.160625738	323.196943278	"29"	592.421854222	586.764357419	1.5	0.1
0.01	1	0.00371743899995636	1	125	NA	326.960200451	0	0.36	4.77	1	323.427774158	323.431491597	"29"	592.421854222	586.764357419	1.5	0.1
0.01	1	0.00461786100004247	1	125	NA	326.960200451	0	0.36	4.77	1	323.661466467	323.666084328	"29"	592.421854222	586.764357419	1.5	0.1
0.01	1	0.00401275399997303	1	125	NA	326.960200451	0	0.36	4.77	1	323.895083523	323.899096277	"29"	592.421854222	586.764357419	1.5	0.1
0.01	1	0.100815393999937	1	125	NA	326.960200451	0	0.36	4.77	1	324.128935841	324.229751235	"29"	592.421854222	586.764357419	1.5	0.1
0.01	1	0.00359102599998096	1	125	NA	326.960200451	0	0.36	4.77	1	324.462798851	324.466389877	"29"	592.421854222	586.764357419	1.5	0.1
0.01	1	0.00406816100007745	1	125	NA	326.960200451	0	0.36	4.77	1	324.696552508	324.700620669	"29"	592.421854222	586.764357419	1.5	0.1
0.01	1	0.0040279660000806	1	125	NA	326.960200451	0	0.36	4.77	1	324.930240963	324.934268929	"29"	592.421854222	586.764357419	1.5	0.1
0.01	1	0.00387604299999111	1	125	NA	326.960200451	0	0.36	4.77	1	325.163903466	325.167779509	"29"	592.421854222	586.764357419	1.5	0.1
0.01	1	0.0038478930000565	1	125	NA	326.960200451	0	0.36	4.77	1	325.397745506	325.401593399	"29"	592.421854222	586.764357419	1.5	0.1
0.01	1	0.00468284000010044	1	125	NA	326.960200451	0	0.36	4.77	1	325.631470031	325.636152871	"29"	592.421854222	586.764357419	1.5	0.1
0.01	1	0.00362122100000306	1	125	NA	326.960200451	0	0.36	4.77	1	325.865148396	325.868769617	"29"	592.421854222	586.764357419	1.5	0.1
0.01	1	0.0115976729999829	1	125	NA	326.960200451	0	0.36	4.77	1	326.098944888	326.110542561	"29"	592.421854222	586.764357419	1.5	0.1
0.01	1	0.0562357129999782	1	125	NA	326.960200451	0	0.36	4.77	1	326.33267843	326.388914143	"29"	592.421854222	586.764357419	1.5	0.1
0.01	1	0.0135549199999332	1	125	NA	326.960200451	0	0.36	4.77	1	326.616500986	326.630055906	"29"	592.421854222	586.764357419	1.5	0.1
0.01	1	0.0916165280000314	2	125	NA	326.960200451	0	0.36	4.77	1	326.866902068	326.958518596	"29"	592.421854222	586.764357419	1.5	0.1
0.01	1	0.369544954999924	1	105	NA	336.408327117	0	0.23	5	1	329.003776911	329.373321866	"30"	592.421854222	586.764357419	1.5	0.1
0.01	1	0.0253710680000268	1	105	NA	336.408327117	0	0.23	5	1	329.604783471	329.630154539	"30"	592.421854222	586.764357419	1.5	0.1
0.01	1	0.0464630550000038	1	105	NA	336.408327117	0	0.23	5	1	329.855353251	329.901816306	"30"	592.421854222	586.764357419	1.5	0.1
0.01	1	0.0110549749999791	1	105	NA	336.408327117	0	0.23	5	1	330.139131586	330.150186561	"30"	592.421854222	586.764357419	1.5	0.1
0.01	1	0.0562061510000831	1	105	NA	336.408327117	0	0.23	5	1	330.372766419	330.42897257	"30"	592.421854222	586.764357419	1.5	0.1
0.01	1	0.0363423769999827	1	105	NA	336.408327117	0	0.23	5	1	330.656617395	330.692959772	"30"	592.421854222	586.764357419	1.5	0.1
0.01	1	0.00402868499998021	1	105	NA	336.408327117	0	0.23	5	1	330.923644558	330.927673243	"30"	592.421854222	586.764357419	1.5	0.1
0.01	1	0.00465074500004903	1	105	NA	336.408327117	0	0.23	5	1	331.157430776	331.162081521	"30"	592.421854222	586.764357419	1.5	0.1
0.01	1	0.00761106899994957	1	105	NA	336.408327117	0	0.23	5	1	331.39113904	331.398750109	"30"	592.421854222	586.764357419	1.5	0.1
0.01	1	0.029053848999979	1	105	NA	336.408327117	0	0.23	5	1	331.624800566	331.653854415	"30"	592.421854222	586.764357419	1.5	0.1
0.01	1	0.0177263860000494	1	105	NA	336.408327117	0	0.23	5	1	331.891937561	331.909663947	"30"	592.421854222	586.764357419	1.5	0.1
0.01	1	0.0552224799999976	1	105	NA	336.408327117	0	0.23	5	1	332.142408296	332.197630776	"30"	592.421854222	586.764357419	1.5	0.1
0.01	1	0.0523616420000508	1	105	NA	336.408327117	0	0.23	5	1	332.426257181	332.478618823	"30"	592.421854222	586.764357419	1.5	0.1
0.01	1	0.0033294320001005	1	105	NA	336.408327117	0	0.23	5	1	332.709990237	332.713319669	"30"	592.421854222	586.764357419	1.5	0.1
0.01	1	0.0138272279999683	1	105	NA	336.408327117	0	0.23	5	1	332.943819966	332.957647194	"30"	592.421854222	586.764357419	1.5	0.1
0.01	1	0.0347239330000093	1	105	NA	336.408327117	0	0.23	5	1	333.194194638	333.228918571	"30"	592.421854222	586.764357419	1.5	0.1
0.01	1	0.0492486929999814	1	105	NA	336.408327117	0	0.23	5	1	333.461335911	333.510584604	"30"	592.421854222	586.764357419	1.5	0.1
0.01	1	0.0437455900000714	1	105	NA	336.408327117	0	0.23	5	1	333.745050918	333.788796508	"30"	592.421854222	586.764357419	1.5	0.1
0.01	1	0.0566396729999497	1	105	NA	336.408327117	0	0.23	5	1	334.012158248	334.068797921	"30"	592.421854222	586.764357419	1.5	0.1
0.01	1	0.0215476519999811	1	105	NA	336.408327117	0	0.23	5	1	334.296060111	334.317607763	"30"	592.421854222	586.764357419	1.5	0.1
0.01	1	0.100053860999992	1	105	NA	336.408327117	0	0.23	5	1	334.546367246	334.646421107	"30"	592.421854222	586.764357419	1.5	0.1
0.01	1	0.13285415200005	1	105	NA	336.408327117	0	0.23	5	1	334.880297311	335.013151463	"30"	592.421854222	586.764357419	1.5	0.1
0.01	1	0.534812712999951	1	105	NA	336.408327117	0	0.23	5	1	335.247650376	335.782463089	"30"	592.421854222	586.764357419	1.5	0.1
0.01	1	0.391060466999988	2	105	NA	336.408327117	0	0.23	5	1	336.015583826	336.406644293	"30"	592.421854222	586.764357419	1.5	0.1
