"payoff.level"	"balloon"	"rt"	"resp"	"explode.trial"	"explode.time"	"finish.time"	"exploded"	"trial.total"	"cumulative.total"	"finished"	"trial.start"	"trial.end"	"trial.num"	"secs"	"start.time"	"iti"	"isi"
0.01	1	1.79770848500002	1	64	NA	22.312913414	0	0.26	0.26	1	0.00927676799997812	1.80698525299999	"1"	586.719534812	584.055113876	1.5	0.1
0.01	1	1.666436605	1	64	NA	22.312913414	0	0.26	0.26	1	2.17940008299999	3.84583668799999	"1"	586.719534812	584.055113876	1.5	0.1
0.01	1	0.995804401999976	1	64	NA	22.312913414	0	0.26	0.26	1	4.0826418	5.07844620199998	"1"	586.719534812	584.055113876	1.5	0.1
0.01	1	1.55214749299998	1	64	NA	22.312913414	0	0.26	0.26	1	5.318040615	6.87018810799998	"1"	586.719534812	584.055113876	1.5	0.1
0.01	1	0.581799249000028	1	64	NA	22.312913414	0	0.26	0.26	1	7.10445355299998	7.68625280200001	"1"	586.719534812	584.055113876	1.5	0.1
0.01	1	1.50056132899999	1	64	NA	22.312913414	0	0.26	0.26	1	7.92240516999999	9.42296649899998	"1"	586.719534812	584.055113876	1.5	0.1
0.01	1	1.243377302	1	64	NA	22.312913414	0	0.26	0.26	1	9.65877112800001	10.90214843	"1"	586.719534812	584.055113876	1.5	0.1
0.01	1	0.751454783000042	1	64	NA	22.312913414	0	0.26	0.26	1	11.127891818	11.879346601	"1"	586.719534812	584.055113876	1.5	0.1
0.01	1	0.326179835999994	1	64	NA	22.312913414	0	0.26	0.26	1	12.112854103	12.439033939	"1"	586.719534812	584.055113876	1.5	0.1
0.01	1	0.325681969999948	1	64	NA	22.312913414	0	0.26	0.26	1	12.680466178	13.006148148	"1"	586.719534812	584.055113876	1.5	0.1
0.01	1	0.270447261000015	1	64	NA	22.312913414	0	0.26	0.26	1	13.231395068	13.501842329	"1"	586.719534812	584.055113876	1.5	0.1
0.01	1	0.329213959999947	1	64	NA	22.312913414	0	0.26	0.26	1	13.73216401	14.06137797	"1"	586.719534812	584.055113876	1.5	0.1
0.01	1	0.30630099199999	1	64	NA	22.312913414	0	0.26	0.26	1	14.299869523	14.606170515	"1"	586.719534812	584.055113876	1.5	0.1
0.01	1	0.221358721000001	1	64	NA	22.312913414	0	0.26	0.26	1	14.834046128	15.055404849	"1"	586.719534812	584.055113876	1.5	0.1
0.01	1	0.177351943000019	1	64	NA	22.312913414	0	0.26	0.26	1	15.284889998	15.462241941	"1"	586.719534812	584.055113876	1.5	0.1
0.01	1	0.296597538000015	1	64	NA	22.312913414	0	0.26	0.26	1	15.702233183	15.998830721	"1"	586.719534812	584.055113876	1.5	0.1
0.01	1	0.930909002999954	1	64	NA	22.312913414	0	0.26	0.26	1	16.236437968	17.167346971	"1"	586.719534812	584.055113876	1.5	0.1
0.01	1	0.105635391000021	1	64	NA	22.312913414	0	0.26	0.26	1	17.405145308	17.510780699	"1"	586.719534812	584.055113876	1.5	0.1
0.01	1	0.243541281000034	1	64	NA	22.312913414	0	0.26	0.26	1	17.73892176	17.982463041	"1"	586.719534812	584.055113876	1.5	0.1
0.01	1	0.15984539599998	1	64	NA	22.312913414	0	0.26	0.26	1	18.206460548	18.366305944	"1"	586.719534812	584.055113876	1.5	0.1
0.01	1	0.215547705000006	1	64	NA	22.312913414	0	0.26	0.26	1	18.606992088	18.822539793	"1"	586.719534812	584.055113876	1.5	0.1
0.01	1	1.419747363	1	64	NA	22.312913414	0	0.26	0.26	1	19.057807718	20.477555081	"1"	586.719534812	584.055113876	1.5	0.1
0.01	1	0.240605293000044	1	64	NA	22.312913414	0	0.26	0.26	1	20.710751392	20.951356685	"1"	586.719534812	584.055113876	1.5	0.1
0.01	1	0.140025405000017	1	64	NA	22.312913414	0	0.26	0.26	1	21.178163523	21.318188928	"1"	586.719534812	584.055113876	1.5	0.1
0.01	1	0.0526090689999705	1	64	NA	22.312913414	0	0.26	0.26	1	21.545380818	21.597989887	"1"	586.719534812	584.055113876	1.5	0.1
0.01	1	0.017806596000014	1	64	NA	22.312913414	0	0.26	0.26	1	21.829223483	21.847030079	"1"	586.719534812	584.055113876	1.5	0.1
0.01	1	0.231576749999988	2	64	NA	22.312913414	0	0.26	0.26	1	22.079617965	22.311194715	"1"	586.719534812	584.055113876	1.5	0.1
0.01	1	0.357066248000024	1	102	NA	33.920473658	0	0.32	0.58	1	24.350062983	24.707129231	"2"	586.719534812	584.055113876	1.5	0.1
0.01	1	0.00307597799996984	1	102	NA	33.920473658	0	0.32	0.58	1	24.934422803	24.937498781	"2"	586.719534812	584.055113876	1.5	0.1
0.01	1	0.093764048999958	1	102	NA	33.920473658	0	0.32	0.58	1	25.16809022	25.261854269	"2"	586.719534812	584.055113876	1.5	0.1
0.01	1	0.00375318499999366	1	102	NA	33.920473658	0	0.32	0.58	1	25.485392398	25.489145583	"2"	586.719534812	584.055113876	1.5	0.1
0.01	1	0.0632007640000438	1	102	NA	33.920473658	0	0.32	0.58	1	25.71912228	25.782323044	"2"	586.719534812	584.055113876	1.5	0.1
0.01	1	0.10715629699996	1	102	NA	33.920473658	0	0.32	0.58	1	26.019601958	26.126758255	"2"	586.719534812	584.055113876	1.5	0.1
0.01	1	0.00304262399998834	1	102	NA	33.920473658	0	0.32	0.58	1	26.353411917	26.356454541	"2"	586.719534812	584.055113876	1.5	0.1
0.01	1	0.106207969000025	1	102	NA	33.920473658	0	0.32	0.58	1	26.587216035	26.693424004	"2"	586.719534812	584.055113876	1.5	0.1
0.01	1	0.00326610799999116	1	102	NA	33.920473658	0	0.32	0.58	1	26.921124599	26.924390707	"2"	586.719534812	584.055113876	1.5	0.1
0.01	1	0.00394266399996468	1	102	NA	33.920473658	0	0.32	0.58	1	27.154764983	27.158707647	"2"	586.719534812	584.055113876	1.5	0.1
0.01	1	0.00408897900001648	1	102	NA	33.920473658	0	0.32	0.58	1	27.38863023	27.392719209	"2"	586.719534812	584.055113876	1.5	0.1
0.01	1	0.112319869000032	1	102	NA	33.920473658	0	0.32	0.58	1	27.622260392	27.734580261	"2"	586.719534812	584.055113876	1.5	0.1
0.01	1	0.00472895199999357	1	102	NA	33.920473658	0	0.32	0.58	1	27.972844543	27.977573495	"2"	586.719534812	584.055113876	1.5	0.1
0.01	1	0.00404700699999694	1	102	NA	33.920473658	0	0.32	0.58	1	28.206554188	28.210601195	"2"	586.719534812	584.055113876	1.5	0.1
0.01	1	0.0947152219999907	1	102	NA	33.920473658	0	0.32	0.58	1	28.440232478	28.5349477	"2"	586.719534812	584.055113876	1.5	0.1
0.01	1	0.00378430600000002	1	102	NA	33.920473658	0	0.32	0.58	1	28.757413255	28.761197561	"2"	586.719534812	584.055113876	1.5	0.1
0.01	1	0.00473140000002559	1	102	NA	33.920473658	0	0.32	0.58	1	28.991148583	28.995879983	"2"	586.719534812	584.055113876	1.5	0.1
0.01	1	0.00396040999999059	1	102	NA	33.920473658	0	0.32	0.58	1	29.225041923	29.229002333	"2"	586.719534812	584.055113876	1.5	0.1
0.01	1	0.0828120429999899	1	102	NA	33.920473658	0	0.32	0.58	1	29.458684088	29.541496131	"2"	586.719534812	584.055113876	1.5	0.1
0.01	1	0.00466576000002306	1	102	NA	33.920473658	0	0.32	0.58	1	29.775903423	29.780569183	"2"	586.719534812	584.055113876	1.5	0.1
0.01	1	0.0999966409999615	1	102	NA	33.920473658	0	0.32	0.58	1	30.00968093	30.109677571	"2"	586.719534812	584.055113876	1.5	0.1
0.01	1	0.0020885349999844	1	102	NA	33.920473658	0	0.32	0.58	1	30.343532013	30.345620548	"2"	586.719534812	584.055113876	1.5	0.1
0.01	1	0.00475378700002693	1	102	NA	33.920473658	0	0.32	0.58	1	30.577276048	30.582029835	"2"	586.719534812	584.055113876	1.5	0.1
0.01	1	0.0684580899999787	1	102	NA	33.920473658	0	0.32	0.58	1	30.810976083	30.879434173	"2"	586.719534812	584.055113876	1.5	0.1
0.01	1	0.00385102900003176	1	102	NA	33.920473658	0	0.32	0.58	1	31.111563378	31.115414407	"2"	586.719534812	584.055113876	1.5	0.1
0.01	1	0.0767230000000154	1	102	NA	33.920473658	0	0.32	0.58	1	31.345229658	31.421952658	"2"	586.719534812	584.055113876	1.5	0.1
0.01	1	0.00401796899996043	1	102	NA	33.920473658	0	0.32	0.58	1	31.64565541	31.649673379	"2"	586.719534812	584.055113876	1.5	0.1
0.01	1	0.159629831999951	1	102	NA	33.920473658	0	0.32	0.58	1	31.879408193	32.039038025	"2"	586.719534812	584.055113876	1.5	0.1
0.01	1	0.215936732999978	1	102	NA	33.920473658	0	0.32	0.58	1	32.2633475	32.479284233	"2"	586.719534812	584.055113876	1.5	0.1
0.01	1	0.13246679599996	1	102	NA	33.920473658	0	0.32	0.58	1	32.714147115	32.846613911	"2"	586.719534812	584.055113876	1.5	0.1
0.01	1	0.124870821000002	1	102	NA	33.920473658	0	0.32	0.58	1	33.081500478	33.206371299	"2"	586.719534812	584.055113876	1.5	0.1
0.01	1	0.101640572999997	1	102	NA	33.920473658	0	0.32	0.58	1	33.432000308	33.533640881	"2"	586.719534812	584.055113876	1.5	0.1
0.01	1	0.152831176000007	2	102	NA	33.920473658	0	0.32	0.58	1	33.765958687	33.918789863	"2"	586.719534812	584.055113876	1.5	0.1
0.01	1	0.00396123299998408	1	97	NA	42.28013672	0	0.24	0.82	1	35.969629318	35.973590551	"3"	586.719534812	584.055113876	1.5	0.1
0.01	1	0.00449553100003186	1	97	NA	42.28013672	0	0.24	0.82	1	36.203402222	36.207897753	"3"	586.719534812	584.055113876	1.5	0.1
0.01	1	0.0963420879999717	1	97	NA	42.28013672	0	0.24	0.82	1	36.4371744	36.533516488	"3"	586.719534812	584.055113876	1.5	0.1
0.01	1	0.00468246200000522	1	97	NA	42.28013672	0	0.24	0.82	1	36.770955608	36.77563807	"3"	586.719534812	584.055113876	1.5	0.1
0.01	1	0.0897578249999924	1	97	NA	42.28013672	0	0.24	0.82	1	37.004695783	37.094453608	"3"	586.719534812	584.055113876	1.5	0.1
0.01	1	0.00397415500003717	1	97	NA	42.28013672	0	0.24	0.82	1	37.321946198	37.325920353	"3"	586.719534812	584.055113876	1.5	0.1
0.01	1	0.00396431799998709	1	97	NA	42.28013672	0	0.24	0.82	1	37.555574523	37.559538841	"3"	586.719534812	584.055113876	1.5	0.1
0.01	1	0.0651139639999769	1	97	NA	42.28013672	0	0.24	0.82	1	37.789314553	37.854428517	"3"	586.719534812	584.055113876	1.5	0.1
0.01	1	0.00473788699997613	1	97	NA	42.28013672	0	0.24	0.82	1	38.089866008	38.094603895	"3"	586.719534812	584.055113876	1.5	0.1
0.01	1	0.0911931040000127	1	97	NA	42.28013672	0	0.24	0.82	1	38.323632578	38.414825682	"3"	586.719534812	584.055113876	1.5	0.1
0.01	1	0.00471132199999147	1	97	NA	42.28013672	0	0.24	0.82	1	38.640733713	38.645445035	"3"	586.719534812	584.055113876	1.5	0.1
0.01	1	0.00396189099996036	1	97	NA	42.28013672	0	0.24	0.82	1	38.87453153	38.878493421	"3"	586.719534812	584.055113876	1.5	0.1
0.01	1	0.098272436000002	1	97	NA	42.28013672	0	0.24	0.82	1	39.108239638	39.206512074	"3"	586.719534812	584.055113876	1.5	0.1
0.01	1	0.0035459030000311	1	97	NA	42.28013672	0	0.24	0.82	1	39.442135578	39.445681481	"3"	586.719534812	584.055113876	1.5	0.1
0.01	1	0.0047266050000303	1	97	NA	42.28013672	0	0.24	0.82	1	39.675865378	39.680591983	"3"	586.719534812	584.055113876	1.5	0.1
0.01	1	0.00396755799999937	1	97	NA	42.28013672	0	0.24	0.82	1	39.909688975	39.913656533	"3"	586.719534812	584.055113876	1.5	0.1
0.01	1	0.102583623999976	1	97	NA	42.28013672	0	0.24	0.82	1	40.143423698	40.246007322	"3"	586.719534812	584.055113876	1.5	0.1
0.01	1	0.00211049299997512	1	97	NA	42.28013672	0	0.24	0.82	1	40.477195859	40.479306352	"3"	586.719534812	584.055113876	1.5	0.1
0.01	1	0.00207496299998411	1	97	NA	42.28013672	0	0.24	0.82	1	40.711026606	40.713101569	"3"	586.719534812	584.055113876	1.5	0.1
0.01	1	0.00383466300002056	1	97	NA	42.28013672	0	0.24	0.82	1	40.94464465	40.948479313	"3"	586.719534812	584.055113876	1.5	0.1
0.01	1	0.00403840300003822	1	97	NA	42.28013672	0	0.24	0.82	1	41.178345328	41.182383731	"3"	586.719534812	584.055113876	1.5	0.1
0.01	1	0.0973352430000318	1	97	NA	42.28013672	0	0.24	0.82	1	41.412073778	41.509409021	"3"	586.719534812	584.055113876	1.5	0.1
0.01	1	0.00208281300001545	1	97	NA	42.28013672	0	0.24	0.82	1	41.745997478	41.748080291	"3"	586.719534812	584.055113876	1.5	0.1
0.01	1	0.00471068000001651	1	97	NA	42.28013672	0	0.24	0.82	1	41.979763538	41.984474218	"3"	586.719534812	584.055113876	1.5	0.1
0.01	1	0.0651875300000029	2	97	NA	42.28013672	0	0.24	0.82	1	42.213403743	42.278591273	"3"	586.719534812	584.055113876	1.5	0.1
0.01	1	0.375845807000019	1	51	NA	54.024631441	0	0.35	1.17	1	44.333727982	44.709573789	"4"	586.719534812	584.055113876	1.5	0.1
0.01	1	0.00212784100000363	1	51	NA	54.024631441	0	0.35	1.17	1	44.934824028	44.936951869	"4"	586.719534812	584.055113876	1.5	0.1
0.01	1	0.00232345000000578	1	51	NA	54.024631441	0	0.35	1.17	1	45.168472143	45.170795593	"4"	586.719534812	584.055113876	1.5	0.1
0.01	1	0.00208682300001328	1	51	NA	54.024631441	0	0.35	1.17	1	45.40220782	45.404294643	"4"	586.719534812	584.055113876	1.5	0.1
0.01	1	0.00392350599997826	1	51	NA	54.024631441	0	0.35	1.17	1	45.635895983	45.639819489	"4"	586.719534812	584.055113876	1.5	0.1
0.01	1	0.136188437999976	1	51	NA	54.024631441	0	0.35	1.17	1	45.869585423	46.005773861	"4"	586.719534812	584.055113876	1.5	0.1
0.01	1	0.00375274799995395	1	51	NA	54.024631441	0	0.35	1.17	1	46.236885985	46.240638733	"4"	586.719534812	584.055113876	1.5	0.1
0.01	1	0.00470155699997576	1	51	NA	54.024631441	0	0.35	1.17	1	46.470727403	46.47542896	"4"	586.719534812	584.055113876	1.5	0.1
0.01	1	0.00472281700001531	1	51	NA	54.024631441	0	0.35	1.17	1	46.704429283	46.7091521	"4"	586.719534812	584.055113876	1.5	0.1
0.01	1	0.0918554610000228	1	51	NA	54.024631441	0	0.35	1.17	1	46.93818908	47.030044541	"4"	586.719534812	584.055113876	1.5	0.1
0.01	1	0.00223524500000849	1	51	NA	54.024631441	0	0.35	1.17	1	47.255249098	47.257484343	"4"	586.719534812	584.055113876	1.5	0.1
0.01	1	0.00397816599996759	1	51	NA	54.024631441	0	0.35	1.17	1	47.489012355	47.492990521	"4"	586.719534812	584.055113876	1.5	0.1
0.01	1	0.00403903699998409	1	51	NA	54.024631441	0	0.35	1.17	1	47.72265924	47.726698277	"4"	586.719534812	584.055113876	1.5	0.1
0.01	1	0.00413205300003483	1	51	NA	54.024631441	0	0.35	1.17	1	47.95643862	47.960570673	"4"	586.719534812	584.055113876	1.5	0.1
0.01	1	0.0479047199999627	1	51	NA	54.024631441	0	0.35	1.17	1	48.190234433	48.238139153	"4"	586.719534812	584.055113876	1.5	0.1
0.01	1	0.00494671500001687	1	51	NA	54.024631441	0	0.35	1.17	1	48.474000623	48.478947338	"4"	586.719534812	584.055113876	1.5	0.1
0.01	1	0.00399977299997545	1	51	NA	54.024631441	0	0.35	1.17	1	48.70771297	48.711712743	"4"	586.719534812	584.055113876	1.5	0.1
0.01	1	0.0816723180000167	1	51	NA	54.024631441	0	0.35	1.17	1	48.941429755	49.023102073	"4"	586.719534812	584.055113876	1.5	0.1
0.01	1	0.00226423299994849	1	51	NA	54.024631441	0	0.35	1.17	1	49.258651282	49.260915515	"4"	586.719534812	584.055113876	1.5	0.1
0.01	1	0.00403976699999475	1	51	NA	54.024631441	0	0.35	1.17	1	49.492326518	49.496366285	"4"	586.719534812	584.055113876	1.5	0.1
0.01	1	0.00396453199999769	1	51	NA	54.024631441	0	0.35	1.17	1	49.726181235	49.730145767	"4"	586.719534812	584.055113876	1.5	0.1
0.01	1	0.0875396149999688	1	51	NA	54.024631441	0	0.35	1.17	1	49.959788618	50.047328233	"4"	586.719534812	584.055113876	1.5	0.1
0.01	1	0.00388002000005372	1	51	NA	54.024631441	0	0.35	1.17	1	50.276995643	50.280875663	"4"	586.719534812	584.055113876	1.5	0.1
0.01	1	0.00400793500000418	1	51	NA	54.024631441	0	0.35	1.17	1	50.5107165	50.514724435	"4"	586.719534812	584.055113876	1.5	0.1
0.01	1	0.101733609999997	1	51	NA	54.024631441	0	0.35	1.17	1	50.744474578	50.846208188	"4"	586.719534812	584.055113876	1.5	0.1
0.01	1	0.00471914700000298	1	51	NA	54.024631441	0	0.35	1.17	1	51.078359888	51.083079035	"4"	586.719534812	584.055113876	1.5	0.1
0.01	1	0.111329832000024	1	51	NA	54.024631441	0	0.35	1.17	1	51.312128715	51.423458547	"4"	586.719534812	584.055113876	1.5	0.1
0.01	1	0.00201343700001644	1	51	NA	54.024631441	0	0.35	1.17	1	51.662734851	51.664748288	"4"	586.719534812	584.055113876	1.5	0.1
0.01	1	0.0622045220000018	1	51	NA	54.024631441	0	0.35	1.17	1	51.89631878	51.958523302	"4"	586.719534812	584.055113876	1.5	0.1
0.01	1	0.00446519700000181	1	51	NA	54.024631441	0	0.35	1.17	1	52.180293033	52.18475823	"4"	586.719534812	584.055113876	1.5	0.1
0.01	1	0.056696981000016	1	51	NA	54.024631441	0	0.35	1.17	1	52.41398504	52.470682021	"4"	586.719534812	584.055113876	1.5	0.1
0.01	1	0.00405296900004259	1	51	NA	54.024631441	0	0.35	1.17	1	52.69779777	52.701850739	"4"	586.719534812	584.055113876	1.5	0.1
0.01	1	0.0425258880000001	1	51	NA	54.024631441	0	0.35	1.17	1	52.931491015	52.974016903	"4"	586.719534812	584.055113876	1.5	0.1
0.01	1	0.0021892990000083	1	51	NA	54.024631441	0	0.35	1.17	1	53.198616798	53.200806097	"4"	586.719534812	584.055113876	1.5	0.1
0.01	1	0.00330716999997094	1	51	NA	54.024631441	0	0.35	1.17	1	53.432289173	53.435596343	"4"	586.719534812	584.055113876	1.5	0.1
0.01	1	0.357032676000017	2	51	NA	54.024631441	0	0.35	1.17	1	53.666086423	54.023119099	"4"	586.719534812	584.055113876	1.5	0.1
0.01	1	0.192760319000001	1	116	NA	71.471079458	0	0.55	1.72	1	56.070177248	56.262937567	"5"	586.719534812	584.055113876	1.5	0.1
0.01	1	0.00213213199998563	1	116	NA	71.471079458	0	0.55	1.72	1	56.487512699	56.489644831	"5"	586.719534812	584.055113876	1.5	0.1
0.01	1	0.00226220500002228	1	116	NA	71.471079458	0	0.55	1.72	1	56.721189371	56.723451576	"5"	586.719534812	584.055113876	1.5	0.1
0.01	1	0.0757077210000148	1	116	NA	71.471079458	0	0.55	1.72	1	56.954946711	57.030654432	"5"	586.719534812	584.055113876	1.5	0.1
0.01	1	0.00204106899997214	1	116	NA	71.471079458	0	0.55	1.72	1	57.255525421	57.25756649	"5"	586.719534812	584.055113876	1.5	0.1
0.01	1	0.00469184000002087	1	116	NA	71.471079458	0	0.55	1.72	1	57.489249128	57.493940968	"5"	586.719534812	584.055113876	1.5	0.1
0.01	1	0.0921435110000175	1	116	NA	71.471079458	0	0.55	1.72	1	57.72292779	57.815071301	"5"	586.719534812	584.055113876	1.5	0.1
0.01	1	0.00358865300000843	1	116	NA	71.471079458	0	0.55	1.72	1	58.04011336	58.043702013	"5"	586.719534812	584.055113876	1.5	0.1
0.01	1	0.004031585000007	1	116	NA	71.471079458	0	0.55	1.72	1	58.273812508	58.277844093	"5"	586.719534812	584.055113876	1.5	0.1
0.01	1	0.0670825710000145	1	116	NA	71.471079458	0	0.55	1.72	1	58.50760516	58.574687731	"5"	586.719534812	584.055113876	1.5	0.1
0.01	1	0.00393855499999063	1	116	NA	71.471079458	0	0.55	1.72	1	58.808102228	58.812040783	"5"	586.719534812	584.055113876	1.5	0.1
0.01	1	0.0047212869999953	1	116	NA	71.471079458	0	0.55	1.72	1	59.041771573	59.04649286	"5"	586.719534812	584.055113876	1.5	0.1
0.01	1	0.0987699429999793	1	116	NA	71.471079458	0	0.55	1.72	1	59.275543861	59.374313804	"5"	586.719534812	584.055113876	1.5	0.1
0.01	1	0.00207606800000804	1	116	NA	71.471079458	0	0.55	1.72	1	59.6093668	59.611442868	"5"	586.719534812	584.055113876	1.5	0.1
0.01	1	0.0047109619999901	1	116	NA	71.471079458	0	0.55	1.72	1	59.843150713	59.847861675	"5"	586.719534812	584.055113876	1.5	0.1
0.01	1	0.00464626699999826	1	116	NA	71.471079458	0	0.55	1.72	1	60.076888988	60.081535255	"5"	586.719534812	584.055113876	1.5	0.1
0.01	1	0.00382489399999031	1	116	NA	71.471079458	0	0.55	1.72	1	60.310631295	60.314456189	"5"	586.719534812	584.055113876	1.5	0.1
0.01	1	0.109885223999981	1	116	NA	71.471079458	0	0.55	1.72	1	60.544275778	60.654161002	"5"	586.719534812	584.055113876	1.5	0.1
0.01	1	0.0022784259999753	1	116	NA	71.471079458	0	0.55	1.72	1	60.878164291	60.880442717	"5"	586.719534812	584.055113876	1.5	0.1
0.01	1	0.00215851099994779	1	116	NA	71.471079458	0	0.55	1.72	1	61.11206047	61.114218981	"5"	586.719534812	584.055113876	1.5	0.1
0.01	1	0.00481085500001655	1	116	NA	71.471079458	0	0.55	1.72	1	61.345649343	61.350460198	"5"	586.719534812	584.055113876	1.5	0.1
0.01	1	0.00317494600000146	1	116	NA	71.471079458	0	0.55	1.72	1	61.579367615	61.582542561	"5"	586.719534812	584.055113876	1.5	0.1
0.01	1	0.105431569999951	1	116	NA	71.471079458	0	0.55	1.72	1	61.81308638	61.91851795	"5"	586.719534812	584.055113876	1.5	0.1
0.01	1	0.0022493590000181	1	116	NA	71.471079458	0	0.55	1.72	1	62.146994636	62.149243995	"5"	586.719534812	584.055113876	1.5	0.1
0.01	1	0.00208538900000121	1	116	NA	71.471079458	0	0.55	1.72	1	62.380689168	62.382774557	"5"	586.719534812	584.055113876	1.5	0.1
0.01	1	0.00380998699995416	1	116	NA	71.471079458	0	0.55	1.72	1	62.614452028	62.618262015	"5"	586.719534812	584.055113876	1.5	0.1
0.01	1	0.00379111099999818	1	116	NA	71.471079458	0	0.55	1.72	1	62.84822763	62.852018741	"5"	586.719534812	584.055113876	1.5	0.1
0.01	1	0.00411782399999083	1	116	NA	71.471079458	0	0.55	1.72	1	63.081908835	63.086026659	"5"	586.719534812	584.055113876	1.5	0.1
0.01	1	0.115172253999958	1	116	NA	71.471079458	0	0.55	1.72	1	63.315594593	63.430766847	"5"	586.719534812	584.055113876	1.5	0.1
0.01	1	0.0196523339999999	1	116	NA	71.471079458	0	0.55	1.72	1	63.666201468	63.685853802	"5"	586.719534812	584.055113876	1.5	0.1
0.01	1	0.00206748000005064	1	116	NA	71.471079458	0	0.55	1.72	1	63.916611771	63.918679251	"5"	586.719534812	584.055113876	1.5	0.1
0.01	1	0.00407563100003472	1	116	NA	71.471079458	0	0.55	1.72	1	64.15038034	64.154455971	"5"	586.719534812	584.055113876	1.5	0.1
0.01	1	0.0952677079999944	1	116	NA	71.471079458	0	0.55	1.72	1	64.384075735	64.479343443	"5"	586.719534812	584.055113876	1.5	0.1
0.01	1	0.0046881320000125	1	116	NA	71.471079458	0	0.55	1.72	1	64.701225863	64.705913995	"5"	586.719534812	584.055113876	1.5	0.1
0.01	1	0.00211027999995395	1	116	NA	71.471079458	0	0.55	1.72	1	64.935062462	64.937172742	"5"	586.719534812	584.055113876	1.5	0.1
0.01	1	0.00213050199999998	1	116	NA	71.471079458	0	0.55	1.72	1	65.16880669	65.170937192	"5"	586.719534812	584.055113876	1.5	0.1
0.01	1	0.00213898000004065	1	116	NA	71.471079458	0	0.55	1.72	1	65.402548252	65.404687232	"5"	586.719534812	584.055113876	1.5	0.1
0.01	1	0.00205173099999456	1	116	NA	71.471079458	0	0.55	1.72	1	65.63629543	65.638347161	"5"	586.719534812	584.055113876	1.5	0.1
0.01	1	0.0021251229999848	1	116	NA	71.471079458	0	0.55	1.72	1	65.869901045	65.872026168	"5"	586.719534812	584.055113876	1.5	0.1
0.01	1	0.111608802000035	1	116	NA	71.471079458	0	0.55	1.72	1	66.103664888	66.21527369	"5"	586.719534812	584.055113876	1.5	0.1
0.01	1	0.00316808400003765	1	116	NA	71.471079458	0	0.55	1.72	1	66.437558171	66.440726255	"5"	586.719534812	584.055113876	1.5	0.1
0.01	1	0.0020373709999717	1	116	NA	71.471079458	0	0.55	1.72	1	66.671245967	66.673283338	"5"	586.719534812	584.055113876	1.5	0.1
0.01	1	0.00206611600003725	1	116	NA	71.471079458	0	0.55	1.72	1	66.90502773	66.907093846	"5"	586.719534812	584.055113876	1.5	0.1
0.01	1	0.124768332000031	1	116	NA	71.471079458	0	0.55	1.72	1	67.138668673	67.263437005	"5"	586.719534812	584.055113876	1.5	0.1
0.01	1	0.00206694099995275	1	116	NA	71.471079458	0	0.55	1.72	1	67.489424035	67.491490976	"5"	586.719534812	584.055113876	1.5	0.1
0.01	1	0.00207457799996291	1	116	NA	71.471079458	0	0.55	1.72	1	67.723118021	67.725192599	"5"	586.719534812	584.055113876	1.5	0.1
0.01	1	0.00400310400004855	1	116	NA	71.471079458	0	0.55	1.72	1	67.956736275	67.960739379	"5"	586.719534812	584.055113876	1.5	0.1
0.01	1	0.00392821500003038	1	116	NA	71.471079458	0	0.55	1.72	1	68.190532618	68.194460833	"5"	586.719534812	584.055113876	1.5	0.1
0.01	1	0.102932264999993	1	116	NA	71.471079458	0	0.55	1.72	1	68.424261886	68.527194151	"5"	586.719534812	584.055113876	1.5	0.1
0.01	1	0.00217096799997307	1	116	NA	71.471079458	0	0.55	1.72	1	68.758178358	68.760349326	"5"	586.719534812	584.055113876	1.5	0.1
0.01	1	0.231049586999973	1	116	NA	71.471079458	0	0.55	1.72	1	68.991783952	69.222833539	"5"	586.719534812	584.055113876	1.5	0.1
0.01	1	0.883167927999978	1	116	NA	71.471079458	0	0.55	1.72	1	69.459365623	70.342533551	"5"	586.719534812	584.055113876	1.5	0.1
0.01	1	0.00410473300001968	1	116	NA	71.471079458	0	0.55	1.72	1	70.577928888	70.582033621	"5"	586.719534812	584.055113876	1.5	0.1
0.01	1	0.0339165970000295	1	116	NA	71.471079458	0	0.55	1.72	1	70.811519413	70.84543601	"5"	586.719534812	584.055113876	1.5	0.1
0.01	1	0.0043744179999976	1	116	NA	71.471079458	0	0.55	1.72	1	71.078701252	71.08307567	"5"	586.719534812	584.055113876	1.5	0.1
0.01	1	0.15707854599998	2	116	NA	71.471079458	0	0.55	1.72	1	71.312428655	71.469507201	"5"	586.719534812	584.055113876	1.5	0.1
0.01	1	0.265251352000007	1	118	NA	96.63908194	0	0.970000000000001	2.69	1	73.51610729	73.781358642	"6"	586.719534812	584.055113876	1.5	0.1
0.01	1	0.00407875100000865	1	118	NA	96.63908194	0	0.970000000000001	2.69	1	74.01702033	74.021099081	"6"	586.719534812	584.055113876	1.5	0.1
0.01	1	0.0367302770000038	1	118	NA	96.63908194	0	0.970000000000001	2.69	1	74.250624538	74.287354815	"6"	586.719534812	584.055113876	1.5	0.1
0.01	1	0.00467402699996455	1	118	NA	96.63908194	0	0.970000000000001	2.69	1	74.517832128	74.522506155	"6"	586.719534812	584.055113876	1.5	0.1
0.01	1	0.00383570700000746	1	118	NA	96.63908194	0	0.970000000000001	2.69	1	74.75163486	74.755470567	"6"	586.719534812	584.055113876	1.5	0.1
0.01	1	0.00392930300000671	1	118	NA	96.63908194	0	0.970000000000001	2.69	1	74.98526557	74.989194873	"6"	586.719534812	584.055113876	1.5	0.1
0.01	1	0.00452595600000905	1	118	NA	96.63908194	0	0.970000000000001	2.69	1	75.219011792	75.223537748	"6"	586.719534812	584.055113876	1.5	0.1
0.01	1	0.00228684400002521	1	118	NA	96.63908194	0	0.970000000000001	2.69	1	75.452766728	75.455053572	"6"	586.719534812	584.055113876	1.5	0.1
0.01	1	0.00465352699995947	1	118	NA	96.63908194	0	0.970000000000001	2.69	1	75.686431103	75.69108463	"6"	586.719534812	584.055113876	1.5	0.1
0.01	1	0.00394451900001513	1	118	NA	96.63908194	0	0.970000000000001	2.69	1	75.9201895	75.924134019	"6"	586.719534812	584.055113876	1.5	0.1
0.01	1	0.00465851500001691	1	118	NA	96.63908194	0	0.970000000000001	2.69	1	76.153975678	76.158634193	"6"	586.719534812	584.055113876	1.5	0.1
0.01	1	0.00378738699998848	1	118	NA	96.63908194	0	0.970000000000001	2.69	1	76.387650328	76.391437715	"6"	586.719534812	584.055113876	1.5	0.1
0.01	1	0.00350544799999852	1	118	NA	96.63908194	0	0.970000000000001	2.69	1	76.621413973	76.624919421	"6"	586.719534812	584.055113876	1.5	0.1
0.01	1	0.00342836600003693	1	118	NA	96.63908194	0	0.970000000000001	2.69	1	76.855179489	76.858607855	"6"	586.719534812	584.055113876	1.5	0.1
0.01	1	0.00391482300000234	1	118	NA	96.63908194	0	0.970000000000001	2.69	1	77.088825798	77.092740621	"6"	586.719534812	584.055113876	1.5	0.1
0.01	1	0.00464179499999773	1	118	NA	96.63908194	0	0.970000000000001	2.69	1	77.322536828	77.327178623	"6"	586.719534812	584.055113876	1.5	0.1
0.01	1	0.00468058499996005	1	118	NA	96.63908194	0	0.970000000000001	2.69	1	77.556317303	77.560997888	"6"	586.719534812	584.055113876	1.5	0.1
0.01	1	0.0032741140000212	1	118	NA	96.63908194	0	0.970000000000001	2.69	1	77.790071733	77.793345847	"6"	586.719534812	584.055113876	1.5	0.1
0.01	1	0.00262086999998701	1	118	NA	96.63908194	0	0.970000000000001	2.69	1	78.023728157	78.026349027	"6"	586.719534812	584.055113876	1.5	0.1
0.01	1	0.00396493700003475	1	118	NA	96.63908194	0	0.970000000000001	2.69	1	78.25742924	78.261394177	"6"	586.719534812	584.055113876	1.5	0.1
0.01	1	0.00406065999999328	1	118	NA	96.63908194	0	0.970000000000001	2.69	1	78.491183323	78.495243983	"6"	586.719534812	584.055113876	1.5	0.1
0.01	1	0.00384314100000438	1	118	NA	96.63908194	0	0.970000000000001	2.69	1	78.724931778	78.728774919	"6"	586.719534812	584.055113876	1.5	0.1
0.01	1	0.00468146500003286	1	118	NA	96.63908194	0	0.970000000000001	2.69	1	78.958578958	78.963260423	"6"	586.719534812	584.055113876	1.5	0.1
0.01	1	0.004051244999971	1	118	NA	96.63908194	0	0.970000000000001	2.69	1	79.192322078	79.196373323	"6"	586.719534812	584.055113876	1.5	0.1
0.01	1	0.0043659560000151	1	118	NA	96.63908194	0	0.970000000000001	2.69	1	79.426018282	79.430384238	"6"	586.719534812	584.055113876	1.5	0.1
0.01	1	0.00378488800004106	1	118	NA	96.63908194	0	0.970000000000001	2.69	1	79.659768275	79.663553163	"6"	586.719534812	584.055113876	1.5	0.1
0.01	1	0.00328742399995008	1	118	NA	96.63908194	0	0.970000000000001	2.69	1	79.893507149	79.896794573	"6"	586.719534812	584.055113876	1.5	0.1
0.01	1	0.00317228400001568	1	118	NA	96.63908194	0	0.970000000000001	2.69	1	80.127268643	80.130440927	"6"	586.719534812	584.055113876	1.5	0.1
0.01	1	0.00341409199995724	1	118	NA	96.63908194	0	0.970000000000001	2.69	1	80.360998977	80.364413069	"6"	586.719534812	584.055113876	1.5	0.1
0.01	1	0.00471632500000396	1	118	NA	96.63908194	0	0.970000000000001	2.69	1	80.594660233	80.599376558	"6"	586.719534812	584.055113876	1.5	0.1
0.01	1	0.00450116399997569	1	118	NA	96.63908194	0	0.970000000000001	2.69	1	80.828435529	80.832936693	"6"	586.719534812	584.055113876	1.5	0.1
0.01	1	0.00345546699998067	1	118	NA	96.63908194	0	0.970000000000001	2.69	1	81.062158738	81.065614205	"6"	586.719534812	584.055113876	1.5	0.1
0.01	1	0.00390164199995979	1	118	NA	96.63908194	0	0.970000000000001	2.69	1	81.295872303	81.299773945	"6"	586.719534812	584.055113876	1.5	0.1
0.01	1	0.00399771300004659	1	118	NA	96.63908194	0	0.970000000000001	2.69	1	81.52959327	81.533590983	"6"	586.719534812	584.055113876	1.5	0.1
0.01	1	0.00473418999996511	1	118	NA	96.63908194	0	0.970000000000001	2.69	1	81.763344238	81.768078428	"6"	586.719534812	584.055113876	1.5	0.1
0.01	1	0.00426906900003132	1	118	NA	96.63908194	0	0.970000000000001	2.69	1	81.997116738	82.001385807	"6"	586.719534812	584.055113876	1.5	0.1
0.01	1	0.0033820480000486	1	118	NA	96.63908194	0	0.970000000000001	2.69	1	82.230813413	82.234195461	"6"	586.719534812	584.055113876	1.5	0.1
0.01	1	0.00405316000001221	1	118	NA	96.63908194	0	0.970000000000001	2.69	1	82.464469073	82.468522233	"6"	586.719534812	584.055113876	1.5	0.1
0.01	1	0.00401605100000779	1	118	NA	96.63908194	0	0.970000000000001	2.69	1	82.69821231	82.702228361	"6"	586.719534812	584.055113876	1.5	0.1
0.01	1	0.00397847099998216	1	118	NA	96.63908194	0	0.970000000000001	2.69	1	82.931963258	82.935941729	"6"	586.719534812	584.055113876	1.5	0.1
0.01	1	0.00470541700002514	1	118	NA	96.63908194	0	0.970000000000001	2.69	1	83.165769663	83.17047508	"6"	586.719534812	584.055113876	1.5	0.1
0.01	1	0.00394312200000968	1	118	NA	96.63908194	0	0.970000000000001	2.69	1	83.399386165	83.403329287	"6"	586.719534812	584.055113876	1.5	0.1
0.01	1	0.00402295099996763	1	118	NA	96.63908194	0	0.970000000000001	2.69	1	83.633128338	83.637151289	"6"	586.719534812	584.055113876	1.5	0.1
0.01	1	0.00412061299999777	1	118	NA	96.63908194	0	0.970000000000001	2.69	1	83.86696884	83.871089453	"6"	586.719534812	584.055113876	1.5	0.1
0.01	1	0.00379462099999728	1	118	NA	96.63908194	0	0.970000000000001	2.69	1	84.10064188	84.104436501	"6"	586.719534812	584.055113876	1.5	0.1
0.01	1	0.00459243899996409	1	118	NA	96.63908194	0	0.970000000000001	2.69	1	84.334280969	84.338873408	"6"	586.719534812	584.055113876	1.5	0.1
0.01	1	0.004649392000033	1	118	NA	96.63908194	0	0.970000000000001	2.69	1	84.568064078	84.57271347	"6"	586.719534812	584.055113876	1.5	0.1
0.01	1	0.00380252200000086	1	118	NA	96.63908194	0	0.970000000000001	2.69	1	84.801845675	84.805648197	"6"	586.719534812	584.055113876	1.5	0.1
0.01	1	0.00493907999998555	1	118	NA	96.63908194	0	0.970000000000001	2.69	1	85.035549873	85.040488953	"6"	586.719534812	584.055113876	1.5	0.1
0.01	1	0.00397621100000833	1	118	NA	96.63908194	0	0.970000000000001	2.69	1	85.269258668	85.273234879	"6"	586.719534812	584.055113876	1.5	0.1
0.01	1	0.0034361849999982	1	118	NA	96.63908194	0	0.970000000000001	2.69	1	85.503019788	85.506455973	"6"	586.719534812	584.055113876	1.5	0.1
0.01	1	0.00387877399998615	1	118	NA	96.63908194	0	0.970000000000001	2.69	1	85.736627623	85.740506397	"6"	586.719534812	584.055113876	1.5	0.1
0.01	1	0.00413036300000158	1	118	NA	96.63908194	0	0.970000000000001	2.69	1	85.970441618	85.974571981	"6"	586.719534812	584.055113876	1.5	0.1
0.01	1	0.00404017599998951	1	118	NA	96.63908194	0	0.970000000000001	2.69	1	86.204107893	86.208148069	"6"	586.719534812	584.055113876	1.5	0.1
0.01	1	0.00399243499998647	1	118	NA	96.63908194	0	0.970000000000001	2.69	1	86.437880438	86.441872873	"6"	586.719534812	584.055113876	1.5	0.1
0.01	1	0.00428252200003953	1	118	NA	96.63908194	0	0.970000000000001	2.69	1	86.671680093	86.675962615	"6"	586.719534812	584.055113876	1.5	0.1
0.01	1	0.00395704899995053	1	118	NA	96.63908194	0	0.970000000000001	2.69	1	86.905288938	86.909245987	"6"	586.719534812	584.055113876	1.5	0.1
0.01	1	0.00326486000000159	1	118	NA	96.63908194	0	0.970000000000001	2.69	1	87.138985179	87.142250039	"6"	586.719534812	584.055113876	1.5	0.1
0.01	1	0.00228755599999886	1	118	NA	96.63908194	0	0.970000000000001	2.69	1	87.372840066	87.375127622	"6"	586.719534812	584.055113876	1.5	0.1
0.01	1	0.00325342000002138	1	118	NA	96.63908194	0	0.970000000000001	2.69	1	87.606559173	87.609812593	"6"	586.719534812	584.055113876	1.5	0.1
0.01	1	0.00468864199996233	1	118	NA	96.63908194	0	0.970000000000001	2.69	1	87.840276958	87.8449656	"6"	586.719534812	584.055113876	1.5	0.1
0.01	1	0.00386461799996596	1	118	NA	96.63908194	0	0.970000000000001	2.69	1	88.073987235	88.077851853	"6"	586.719534812	584.055113876	1.5	0.1
0.01	1	0.00399214300000494	1	118	NA	96.63908194	0	0.970000000000001	2.69	1	88.30766702	88.311659163	"6"	586.719534812	584.055113876	1.5	0.1
0.01	1	0.00329755799998566	1	118	NA	96.63908194	0	0.970000000000001	2.69	1	88.541412133	88.544709691	"6"	586.719534812	584.055113876	1.5	0.1
0.01	1	0.00405114300002651	1	118	NA	96.63908194	0	0.970000000000001	2.69	1	88.77514387	88.779195013	"6"	586.719534812	584.055113876	1.5	0.1
0.01	1	0.00391881399997374	1	118	NA	96.63908194	0	0.970000000000001	2.69	1	89.008854503	89.012773317	"6"	586.719534812	584.055113876	1.5	0.1
0.01	1	0.00430296299998645	1	118	NA	96.63908194	0	0.970000000000001	2.69	1	89.242554328	89.246857291	"6"	586.719534812	584.055113876	1.5	0.1
0.01	1	0.00393192600000702	1	118	NA	96.63908194	0	0.970000000000001	2.69	1	89.476294323	89.480226249	"6"	586.719534812	584.055113876	1.5	0.1
0.01	1	0.00407418600002529	1	118	NA	96.63908194	0	0.970000000000001	2.69	1	89.710004193	89.714078379	"6"	586.719534812	584.055113876	1.5	0.1
0.01	1	0.00385930700002746	1	118	NA	96.63908194	0	0.970000000000001	2.69	1	89.94376135	89.947620657	"6"	586.719534812	584.055113876	1.5	0.1
0.01	1	0.00409548999999743	1	118	NA	96.63908194	0	0.970000000000001	2.69	1	90.177572455	90.181667945	"6"	586.719534812	584.055113876	1.5	0.1
0.01	1	0.00382749800002102	1	118	NA	96.63908194	0	0.970000000000001	2.69	1	90.411237913	90.415065411	"6"	586.719534812	584.055113876	1.5	0.1
0.01	1	0.00342129000000568	1	118	NA	96.63908194	0	0.970000000000001	2.69	1	90.644960707	90.648381997	"6"	586.719534812	584.055113876	1.5	0.1
0.01	1	0.00331226000002971	1	118	NA	96.63908194	0	0.970000000000001	2.69	1	90.878642347	90.881954607	"6"	586.719534812	584.055113876	1.5	0.1
0.01	1	0.00358718699999372	1	118	NA	96.63908194	0	0.970000000000001	2.69	1	91.11243602	91.116023207	"6"	586.719534812	584.055113876	1.5	0.1
0.01	1	0.00404617300000609	1	118	NA	96.63908194	0	0.970000000000001	2.69	1	91.346196098	91.350242271	"6"	586.719534812	584.055113876	1.5	0.1
0.01	1	0.00399734600000556	1	118	NA	96.63908194	0	0.970000000000001	2.69	1	91.579866033	91.583863379	"6"	586.719534812	584.055113876	1.5	0.1
0.01	1	0.003800225999953	1	118	NA	96.63908194	0	0.970000000000001	2.69	1	91.813606073	91.817406299	"6"	586.719534812	584.055113876	1.5	0.1
0.01	1	0.00350893000000951	1	118	NA	96.63908194	0	0.970000000000001	2.69	1	92.047338093	92.050847023	"6"	586.719534812	584.055113876	1.5	0.1
0.01	1	0.00400474899998926	1	118	NA	96.63908194	0	0.970000000000001	2.69	1	92.28097117	92.284975919	"6"	586.719534812	584.055113876	1.5	0.1
0.01	1	0.0039603270000157	1	118	NA	96.63908194	0	0.970000000000001	2.69	1	92.51473185	92.518692177	"6"	586.719534812	584.055113876	1.5	0.1
0.01	1	0.00420197699997971	1	118	NA	96.63908194	0	0.970000000000001	2.69	1	92.748552008	92.752753985	"6"	586.719534812	584.055113876	1.5	0.1
0.01	1	0.00406922399997711	1	118	NA	96.63908194	0	0.970000000000001	2.69	1	92.982278463	92.986347687	"6"	586.719534812	584.055113876	1.5	0.1
0.01	1	0.00409118499999295	1	118	NA	96.63908194	0	0.970000000000001	2.69	1	93.215984068	93.220075253	"6"	586.719534812	584.055113876	1.5	0.1
0.01	1	0.00412342099997431	1	118	NA	96.63908194	0	0.970000000000001	2.69	1	93.44968689	93.453810311	"6"	586.719534812	584.055113876	1.5	0.1
0.01	1	0.00370301700002074	1	118	NA	96.63908194	0	0.970000000000001	2.69	1	93.68331741	93.687020427	"6"	586.719534812	584.055113876	1.5	0.1
0.01	1	0.00403232000002163	1	118	NA	96.63908194	0	0.970000000000001	2.69	1	93.917156263	93.921188583	"6"	586.719534812	584.055113876	1.5	0.1
0.01	1	0.00407977199995457	1	118	NA	96.63908194	0	0.970000000000001	2.69	1	94.150912365	94.154992137	"6"	586.719534812	584.055113876	1.5	0.1
0.01	1	0.00335711200000333	1	118	NA	96.63908194	0	0.970000000000001	2.69	1	94.384466283	94.387823395	"6"	586.719534812	584.055113876	1.5	0.1
0.01	1	0.0037536849999924	1	118	NA	96.63908194	0	0.970000000000001	2.69	1	94.618279488	94.622033173	"6"	586.719534812	584.055113876	1.5	0.1
0.01	1	0.00409503000003042	1	118	NA	96.63908194	0	0.970000000000001	2.69	1	94.852094143	94.856189173	"6"	586.719534812	584.055113876	1.5	0.1
0.01	1	0.00400848399999632	1	118	NA	96.63908194	0	0.970000000000001	2.69	1	95.085744035	95.089752519	"6"	586.719534812	584.055113876	1.5	0.1
0.01	1	0.00356970300003923	1	118	NA	96.63908194	0	0.970000000000001	2.69	1	95.319439088	95.323008791	"6"	586.719534812	584.055113876	1.5	0.1
0.01	1	0.0038850029999935	1	118	NA	96.63908194	0	0.970000000000001	2.69	1	95.55323851	95.557123513	"6"	586.719534812	584.055113876	1.5	0.1
0.01	1	0.00399672899999359	1	118	NA	96.63908194	0	0.970000000000001	2.69	1	95.786881738	95.790878467	"6"	586.719534812	584.055113876	1.5	0.1
0.01	1	0.00389160299999958	1	118	NA	96.63908194	0	0.970000000000001	2.69	1	96.020666398	96.024558001	"6"	586.719534812	584.055113876	1.5	0.1
0.01	1	0.00385519800005341	1	118	NA	96.63908194	0	0.970000000000001	2.69	1	96.254454203	96.258309401	"6"	586.719534812	584.055113876	1.5	0.1
0.01	1	0.149165993999986	2	118	NA	96.63908194	0	0.970000000000001	2.69	1	96.488219828	96.637385822	"6"	586.719534812	584.055113876	1.5	0.1
0.01	1	0.242787787999987	1	87	119.14601927	NA	1	0	2.69	1	98.691766965	98.934554753	"7"	586.719534812	584.055113876	1.5	0.1
0.01	1	0.00471792199999754	1	87	119.14601927	NA	1	0	2.69	1	99.159245953	99.163963875	"7"	586.719534812	584.055113876	1.5	0.1
0.01	1	0.00461270499999955	1	87	119.14601927	NA	1	0	2.69	1	99.392937218	99.397549923	"7"	586.719534812	584.055113876	1.5	0.1
0.01	1	0.003556537999998	1	87	119.14601927	NA	1	0	2.69	1	99.626788793	99.630345331	"7"	586.719534812	584.055113876	1.5	0.1
0.01	1	0.00465533499999538	1	87	119.14601927	NA	1	0	2.69	1	99.860559618	99.865214953	"7"	586.719534812	584.055113876	1.5	0.1
0.01	1	0.00388436600002251	1	87	119.14601927	NA	1	0	2.69	1	100.094177895	100.098062261	"7"	586.719534812	584.055113876	1.5	0.1
0.01	1	0.00385548499997412	1	87	119.14601927	NA	1	0	2.69	1	100.327986878	100.331842363	"7"	586.719534812	584.055113876	1.5	0.1
0.01	1	0.00224053700003424	1	87	119.14601927	NA	1	0	2.69	1	100.56162619	100.563866727	"7"	586.719534812	584.055113876	1.5	0.1
0.01	1	0.00271814499996026	1	87	119.14601927	NA	1	0	2.69	1	100.795324563	100.798042708	"7"	586.719534812	584.055113876	1.5	0.1
0.01	1	0.00352716400004738	1	87	119.14601927	NA	1	0	2.69	1	101.029015515	101.032542679	"7"	586.719534812	584.055113876	1.5	0.1
0.01	1	0.00382725500003289	1	87	119.14601927	NA	1	0	2.69	1	101.262807298	101.266634553	"7"	586.719534812	584.055113876	1.5	0.1
0.01	1	0.00404920599999059	1	87	119.14601927	NA	1	0	2.69	1	101.496477335	101.500526541	"7"	586.719534812	584.055113876	1.5	0.1
0.01	1	0.00473951200001466	1	87	119.14601927	NA	1	0	2.69	1	101.730296923	101.735036435	"7"	586.719534812	584.055113876	1.5	0.1
0.01	1	0.00382656900001166	1	87	119.14601927	NA	1	0	2.69	1	101.96398557	101.967812139	"7"	586.719534812	584.055113876	1.5	0.1
0.01	1	0.00407826899999009	1	87	119.14601927	NA	1	0	2.69	1	102.197691828	102.201770097	"7"	586.719534812	584.055113876	1.5	0.1
0.01	1	0.00386463600000297	1	87	119.14601927	NA	1	0	2.69	1	102.431472875	102.435337511	"7"	586.719534812	584.055113876	1.5	0.1
0.01	1	0.00406355500001609	1	87	119.14601927	NA	1	0	2.69	1	102.66521146	102.669275015	"7"	586.719534812	584.055113876	1.5	0.1
0.01	1	0.00343443799999932	1	87	119.14601927	NA	1	0	2.69	1	102.898959899	102.902394337	"7"	586.719534812	584.055113876	1.5	0.1
0.01	1	0.00372856799998544	1	87	119.14601927	NA	1	0	2.69	1	103.132620573	103.136349141	"7"	586.719534812	584.055113876	1.5	0.1
0.01	1	0.00393329799999265	1	87	119.14601927	NA	1	0	2.69	1	103.366360863	103.370294161	"7"	586.719534812	584.055113876	1.5	0.1
0.01	1	0.00442155600001115	1	87	119.14601927	NA	1	0	2.69	1	103.600142652	103.604564208	"7"	586.719534812	584.055113876	1.5	0.1
0.01	1	0.00397066399995083	1	87	119.14601927	NA	1	0	2.69	1	103.833884623	103.837855287	"7"	586.719534812	584.055113876	1.5	0.1
0.01	1	0.00342455800000607	1	87	119.14601927	NA	1	0	2.69	1	104.067599671	104.071024229	"7"	586.719534812	584.055113876	1.5	0.1
0.01	1	0.00403857300000254	1	87	119.14601927	NA	1	0	2.69	1	104.30120506	104.305243633	"7"	586.719534812	584.055113876	1.5	0.1
0.01	1	0.00400011699997549	1	87	119.14601927	NA	1	0	2.69	1	104.534973778	104.538973895	"7"	586.719534812	584.055113876	1.5	0.1
0.01	1	0.00399487099997486	1	87	119.14601927	NA	1	0	2.69	1	104.768711188	104.772706059	"7"	586.719534812	584.055113876	1.5	0.1
0.01	1	0.00430253600001151	1	87	119.14601927	NA	1	0	2.69	1	105.002422392	105.006724928	"7"	586.719534812	584.055113876	1.5	0.1
0.01	1	0.00366026799997599	1	87	119.14601927	NA	1	0	2.69	1	105.236148453	105.239808721	"7"	586.719534812	584.055113876	1.5	0.1
0.01	1	0.00337536199998567	1	87	119.14601927	NA	1	0	2.69	1	105.469875443	105.473250805	"7"	586.719534812	584.055113876	1.5	0.1
0.01	1	0.00471450999998524	1	87	119.14601927	NA	1	0	2.69	1	105.703666328	105.708380838	"7"	586.719534812	584.055113876	1.5	0.1
0.01	1	0.00408721000002288	1	87	119.14601927	NA	1	0	2.69	1	105.937408093	105.941495303	"7"	586.719534812	584.055113876	1.5	0.1
0.01	1	0.00350451200000634	1	87	119.14601927	NA	1	0	2.69	1	106.171042979	106.174547491	"7"	586.719534812	584.055113876	1.5	0.1
0.01	1	0.00371518600002219	1	87	119.14601927	NA	1	0	2.69	1	106.404715433	106.408430619	"7"	586.719534812	584.055113876	1.5	0.1
0.01	1	0.00428515200002266	1	87	119.14601927	NA	1	0	2.69	1	106.638512185	106.642797337	"7"	586.719534812	584.055113876	1.5	0.1
0.01	1	0.00398089700001947	1	87	119.14601927	NA	1	0	2.69	1	106.87223329	106.876214187	"7"	586.719534812	584.055113876	1.5	0.1
0.01	1	0.00401159199998347	1	87	119.14601927	NA	1	0	2.69	1	107.106006685	107.110018277	"7"	586.719534812	584.055113876	1.5	0.1
0.01	1	0.00343965799999069	1	87	119.14601927	NA	1	0	2.69	1	107.339736109	107.343175767	"7"	586.719534812	584.055113876	1.5	0.1
0.01	1	0.00367365599998948	1	87	119.14601927	NA	1	0	2.69	1	107.573399603	107.577073259	"7"	586.719534812	584.055113876	1.5	0.1
0.01	1	0.00433581999999433	1	87	119.14601927	NA	1	0	2.69	1	107.807181633	107.811517453	"7"	586.719534812	584.055113876	1.5	0.1
0.01	1	0.0038249450000194	1	87	119.14601927	NA	1	0	2.69	1	108.04089472	108.044719665	"7"	586.719534812	584.055113876	1.5	0.1
0.01	1	0.00475778200001287	1	87	119.14601927	NA	1	0	2.69	1	108.274783988	108.27954177	"7"	586.719534812	584.055113876	1.5	0.1
0.01	1	0.00470489700001053	1	87	119.14601927	NA	1	0	2.69	1	108.508451753	108.51315665	"7"	586.719534812	584.055113876	1.5	0.1
0.01	1	0.00464864200000648	1	87	119.14601927	NA	1	0	2.69	1	108.742121368	108.74677001	"7"	586.719534812	584.055113876	1.5	0.1
0.01	1	0.00403727799999842	1	87	119.14601927	NA	1	0	2.69	1	108.975732853	108.979770131	"7"	586.719534812	584.055113876	1.5	0.1
0.01	1	0.00389331500002754	1	87	119.14601927	NA	1	0	2.69	1	109.209555488	109.213448803	"7"	586.719534812	584.055113876	1.5	0.1
0.01	1	0.00367528900000025	1	87	119.14601927	NA	1	0	2.69	1	109.443199608	109.446874897	"7"	586.719534812	584.055113876	1.5	0.1
0.01	1	0.00399416499999461	1	87	119.14601927	NA	1	0	2.69	1	109.67697149	109.680965655	"7"	586.719534812	584.055113876	1.5	0.1
0.01	1	0.00392023800003471	1	87	119.14601927	NA	1	0	2.69	1	109.910667975	109.914588213	"7"	586.719534812	584.055113876	1.5	0.1
0.01	1	0.00407485800002405	1	87	119.14601927	NA	1	0	2.69	1	110.144397253	110.148472111	"7"	586.719534812	584.055113876	1.5	0.1
0.01	1	0.00337727599998061	1	87	119.14601927	NA	1	0	2.69	1	110.378163573	110.381540849	"7"	586.719534812	584.055113876	1.5	0.1
0.01	1	0.00470833700001094	1	87	119.14601927	NA	1	0	2.69	1	110.611844078	110.616552415	"7"	586.719534812	584.055113876	1.5	0.1
0.01	1	0.00367747899997539	1	87	119.14601927	NA	1	0	2.69	1	110.845622708	110.849300187	"7"	586.719534812	584.055113876	1.5	0.1
0.01	1	0.00430751299995791	1	87	119.14601927	NA	1	0	2.69	1	111.079251235	111.083558748	"7"	586.719534812	584.055113876	1.5	0.1
0.01	1	0.00377542000001085	1	87	119.14601927	NA	1	0	2.69	1	111.313039763	111.316815183	"7"	586.719534812	584.055113876	1.5	0.1
0.01	1	0.00422662400001173	1	87	119.14601927	NA	1	0	2.69	1	111.546781675	111.551008299	"7"	586.719534812	584.055113876	1.5	0.1
0.01	1	0.00406895300000087	1	87	119.14601927	NA	1	0	2.69	1	111.780463228	111.784532181	"7"	586.719534812	584.055113876	1.5	0.1
0.01	1	0.00351797700000134	1	87	119.14601927	NA	1	0	2.69	1	112.01419397	112.017711947	"7"	586.719534812	584.055113876	1.5	0.1
0.01	1	0.00394158199998174	1	87	119.14601927	NA	1	0	2.69	1	112.247964563	112.251906145	"7"	586.719534812	584.055113876	1.5	0.1
0.01	1	0.00455277999998316	1	87	119.14601927	NA	1	0	2.69	1	112.481706115	112.486258895	"7"	586.719534812	584.055113876	1.5	0.1
0.01	1	0.00422433599999295	1	87	119.14601927	NA	1	0	2.69	1	112.715424643	112.719648979	"7"	586.719534812	584.055113876	1.5	0.1
0.01	1	0.003967222999961	1	87	119.14601927	NA	1	0	2.69	1	112.94909702	112.953064243	"7"	586.719534812	584.055113876	1.5	0.1
0.01	1	0.00350466099996538	1	87	119.14601927	NA	1	0	2.69	1	113.182869438	113.186374099	"7"	586.719534812	584.055113876	1.5	0.1
0.01	1	0.00411614899996948	1	87	119.14601927	NA	1	0	2.69	1	113.41648993	113.420606079	"7"	586.719534812	584.055113876	1.5	0.1
0.01	1	0.0039961879999737	1	87	119.14601927	NA	1	0	2.69	1	113.650379075	113.654375263	"7"	586.719534812	584.055113876	1.5	0.1
0.01	1	0.00394777500002874	1	87	119.14601927	NA	1	0	2.69	1	113.88408573	113.888033505	"7"	586.719534812	584.055113876	1.5	0.1
0.01	1	0.00340338799998108	1	87	119.14601927	NA	1	0	2.69	1	114.117788223	114.121191611	"7"	586.719534812	584.055113876	1.5	0.1
0.01	1	0.00360702400001855	1	87	119.14601927	NA	1	0	2.69	1	114.351556993	114.355164017	"7"	586.719534812	584.055113876	1.5	0.1
0.01	1	0.00404068500000676	1	87	119.14601927	NA	1	0	2.69	1	114.58520117	114.589241855	"7"	586.719534812	584.055113876	1.5	0.1
0.01	1	0.00398371199997882	1	87	119.14601927	NA	1	0	2.69	1	114.818962595	114.822946307	"7"	586.719534812	584.055113876	1.5	0.1
0.01	1	0.00470533500003967	1	87	119.14601927	NA	1	0	2.69	1	115.052692323	115.057397658	"7"	586.719534812	584.055113876	1.5	0.1
0.01	1	0.00373953000001848	1	87	119.14601927	NA	1	0	2.69	1	115.286352053	115.290091583	"7"	586.719534812	584.055113876	1.5	0.1
0.01	1	0.00379863099999511	1	87	119.14601927	NA	1	0	2.69	1	115.520055088	115.523853719	"7"	586.719534812	584.055113876	1.5	0.1
0.01	1	0.00463110599997663	1	87	119.14601927	NA	1	0	2.69	1	115.753893409	115.758524515	"7"	586.719534812	584.055113876	1.5	0.1
0.01	1	0.00384969700002102	1	87	119.14601927	NA	1	0	2.69	1	115.98765135	115.991501047	"7"	586.719534812	584.055113876	1.5	0.1
0.01	1	0.00396004999998922	1	87	119.14601927	NA	1	0	2.69	1	116.221321895	116.225281945	"7"	586.719534812	584.055113876	1.5	0.1
0.01	1	0.0039654930000097	1	87	119.14601927	NA	1	0	2.69	1	116.454988248	116.458953741	"7"	586.719534812	584.055113876	1.5	0.1
0.01	1	0.00378251600000112	1	87	119.14601927	NA	1	0	2.69	1	116.688772463	116.692554979	"7"	586.719534812	584.055113876	1.5	0.1
0.01	1	0.00357042100000626	1	87	119.14601927	NA	1	0	2.69	1	116.92241235	116.925982771	"7"	586.719534812	584.055113876	1.5	0.1
0.01	1	0.00401639699998668	1	87	119.14601927	NA	1	0	2.69	1	117.156258488	117.160274885	"7"	586.719534812	584.055113876	1.5	0.1
0.01	1	0.00342444000000341	1	87	119.14601927	NA	1	0	2.69	1	117.389926365	117.393350805	"7"	586.719534812	584.055113876	1.5	0.1
0.01	1	0.00288952799996878	1	87	119.14601927	NA	1	0	2.69	1	117.623684835	117.626574363	"7"	586.719534812	584.055113876	1.5	0.1
0.01	1	0.00225833000001785	1	87	119.14601927	NA	1	0	2.69	1	117.857363618	117.859621948	"7"	586.719534812	584.055113876	1.5	0.1
0.01	1	0.00491799700000684	1	87	119.14601927	NA	1	0	2.69	1	118.091060823	118.09597882	"7"	586.719534812	584.055113876	1.5	0.1
0.01	1	0.00394053200000144	1	87	119.14601927	NA	1	0	2.69	1	118.324893135	118.328833667	"7"	586.719534812	584.055113876	1.5	0.1
0.01	1	0.00357955499998752	1	87	119.14601927	NA	1	0	2.69	1	118.55861082	118.562190375	"7"	586.719534812	584.055113876	1.5	0.1
0.01	1	0.00402561700002479	1	87	119.14601927	NA	1	0	2.69	1	118.792229348	118.796254965	"7"	586.719534812	584.055113876	1.5	0.1
0.01	1	0.00394891999997071	1	87	119.14601927	NA	1	0	2.69	1	119.026014743	119.029963663	"7"	586.719534812	584.055113876	1.5	0.1
0.01	1	1.04900710200002	1	6	123.53656333	NA	1	0	2.69	1	121.19639704	122.245404142	"8"	586.719534812	584.055113876	1.5	0.1
0.01	1	0.00470076200002723	1	6	123.53656333	NA	1	0	2.69	1	122.481924043	122.486624805	"8"	586.719534812	584.055113876	1.5	0.1
0.01	1	0.00405931199998122	1	6	123.53656333	NA	1	0	2.69	1	122.715521393	122.719580705	"8"	586.719534812	584.055113876	1.5	0.1
0.01	1	0.00405989600000112	1	6	123.53656333	NA	1	0	2.69	1	122.949284273	122.953344169	"8"	586.719534812	584.055113876	1.5	0.1
0.01	1	0.00398250299997471	1	6	123.53656333	NA	1	0	2.69	1	123.18297127	123.186953773	"8"	586.719534812	584.055113876	1.5	0.1
0.01	1	0.00407954399997834	1	6	123.53656333	NA	1	0	2.69	1	123.416655923	123.420735467	"8"	586.719534812	584.055113876	1.5	0.1
0.01	1	0.0196755909999524	1	106	NA	133.556215807	0	0.34	3.03	1	125.587037118	125.606712709	"9"	586.719534812	584.055113876	1.5	0.1
0.01	1	0.00397287200001983	1	106	NA	133.556215807	0	0.34	3.03	1	125.837451575	125.841424447	"9"	586.719534812	584.055113876	1.5	0.1
0.01	1	0.00454951299997219	1	106	NA	133.556215807	0	0.34	3.03	1	126.071266642	126.075816155	"9"	586.719534812	584.055113876	1.5	0.1
0.01	1	0.00355738199999678	1	106	NA	133.556215807	0	0.34	3.03	1	126.304968513	126.308525895	"9"	586.719534812	584.055113876	1.5	0.1
0.01	1	0.00380887199997915	1	106	NA	133.556215807	0	0.34	3.03	1	126.538627213	126.542436085	"9"	586.719534812	584.055113876	1.5	0.1
0.01	1	0.00401254899998094	1	106	NA	133.556215807	0	0.34	3.03	1	126.772391518	126.776404067	"9"	586.719534812	584.055113876	1.5	0.1
0.01	1	0.00449516800000538	1	106	NA	133.556215807	0	0.34	3.03	1	127.006174075	127.010669243	"9"	586.719534812	584.055113876	1.5	0.1
0.01	1	0.00406701100001783	1	106	NA	133.556215807	0	0.34	3.03	1	127.23983152	127.243898531	"9"	586.719534812	584.055113876	1.5	0.1
0.01	1	0.0035108179999952	1	106	NA	133.556215807	0	0.34	3.03	1	127.473544323	127.477055141	"9"	586.719534812	584.055113876	1.5	0.1
0.01	1	0.00376976600000489	1	106	NA	133.556215807	0	0.34	3.03	1	127.707311385	127.711081151	"9"	586.719534812	584.055113876	1.5	0.1
0.01	1	0.00397081599999183	1	106	NA	133.556215807	0	0.34	3.03	1	127.940989395	127.944960211	"9"	586.719534812	584.055113876	1.5	0.1
0.01	1	0.00401682899996558	1	106	NA	133.556215807	0	0.34	3.03	1	128.174791728	128.178808557	"9"	586.719534812	584.055113876	1.5	0.1
0.01	1	0.00401716799996166	1	106	NA	133.556215807	0	0.34	3.03	1	128.408506133	128.412523301	"9"	586.719534812	584.055113876	1.5	0.1
0.01	1	0.00396888300002729	1	106	NA	133.556215807	0	0.34	3.03	1	128.642280328	128.646249211	"9"	586.719534812	584.055113876	1.5	0.1
0.01	1	0.00374753200003397	1	106	NA	133.556215807	0	0.34	3.03	1	128.875954103	128.879701635	"9"	586.719534812	584.055113876	1.5	0.1
0.01	1	0.00474235500001896	1	106	NA	133.556215807	0	0.34	3.03	1	129.109661948	129.114404303	"9"	586.719534812	584.055113876	1.5	0.1
0.01	1	0.00392353500001263	1	106	NA	133.556215807	0	0.34	3.03	1	129.343373428	129.347296963	"9"	586.719534812	584.055113876	1.5	0.1
0.01	1	0.00342104599997128	1	106	NA	133.556215807	0	0.34	3.03	1	129.577149099	129.580570145	"9"	586.719534812	584.055113876	1.5	0.1
0.01	1	0.0047239799999943	1	106	NA	133.556215807	0	0.34	3.03	1	129.810878693	129.815602673	"9"	586.719534812	584.055113876	1.5	0.1
0.01	1	0.00455378299994891	1	106	NA	133.556215807	0	0.34	3.03	1	130.044650395	130.049204178	"9"	586.719534812	584.055113876	1.5	0.1
0.01	1	0.00445367500003613	1	106	NA	133.556215807	0	0.34	3.03	1	130.278350265	130.28280394	"9"	586.719534812	584.055113876	1.5	0.1
0.01	1	0.00466837199996917	1	106	NA	133.556215807	0	0.34	3.03	1	130.512051223	130.516719595	"9"	586.719534812	584.055113876	1.5	0.1
0.01	1	0.0038966650000134	1	106	NA	133.556215807	0	0.34	3.03	1	130.745815168	130.749711833	"9"	586.719534812	584.055113876	1.5	0.1
0.01	1	0.00374676499995985	1	106	NA	133.556215807	0	0.34	3.03	1	130.979381928	130.983128693	"9"	586.719534812	584.055113876	1.5	0.1
0.01	1	0.00475054700001465	1	106	NA	133.556215807	0	0.34	3.03	1	131.213311973	131.21806252	"9"	586.719534812	584.055113876	1.5	0.1
0.01	1	0.00408140299998649	1	106	NA	133.556215807	0	0.34	3.03	1	131.44695312	131.451034523	"9"	586.719534812	584.055113876	1.5	0.1
0.01	1	0.00388911199996755	1	106	NA	133.556215807	0	0.34	3.03	1	131.680747353	131.684636465	"9"	586.719534812	584.055113876	1.5	0.1
0.01	1	0.00348893300002828	1	106	NA	133.556215807	0	0.34	3.03	1	131.91447881	131.917967743	"9"	586.719534812	584.055113876	1.5	0.1
0.01	1	0.0035219540000071	1	106	NA	133.556215807	0	0.34	3.03	1	132.148026883	132.151548837	"9"	586.719534812	584.055113876	1.5	0.1
0.01	1	0.00389346800000112	1	106	NA	133.556215807	0	0.34	3.03	1	132.381849535	132.385743003	"9"	586.719534812	584.055113876	1.5	0.1
0.01	1	0.00408045500000753	1	106	NA	133.556215807	0	0.34	3.03	1	132.61561277	132.619693225	"9"	586.719534812	584.055113876	1.5	0.1
0.01	1	0.00473505999997315	1	106	NA	133.556215807	0	0.34	3.03	1	132.849294358	132.854029418	"9"	586.719534812	584.055113876	1.5	0.1
0.01	1	0.00396025999998528	1	106	NA	133.556215807	0	0.34	3.03	1	133.082933563	133.086893823	"9"	586.719534812	584.055113876	1.5	0.1
0.01	1	0.00399670699999888	1	106	NA	133.556215807	0	0.34	3.03	1	133.31666239	133.320659097	"9"	586.719534812	584.055113876	1.5	0.1
0.01	1	0.0038896810000324	2	106	NA	133.556215807	0	0.34	3.03	1	133.550495728	133.554385409	"9"	586.719534812	584.055113876	1.5	0.1
0.01	1	0.0038963869999975	1	21	140.398245093	NA	1	0	3.03	1	135.603905048	135.607801435	"10"	586.719534812	584.055113876	1.5	0.1
0.01	1	0.00425079999996569	1	21	140.398245093	NA	1	0	3.03	1	135.837620023	135.841870823	"10"	586.719534812	584.055113876	1.5	0.1
0.01	1	0.00494314999997414	1	21	140.398245093	NA	1	0	3.03	1	136.071386323	136.076329473	"10"	586.719534812	584.055113876	1.5	0.1
0.01	1	0.00465920499999584	1	21	140.398245093	NA	1	0	3.03	1	136.305037093	136.309696298	"10"	586.719534812	584.055113876	1.5	0.1
0.01	1	0.00394958300000781	1	21	140.398245093	NA	1	0	3.03	1	136.53873193	136.542681513	"10"	586.719534812	584.055113876	1.5	0.1
0.01	1	0.00364993800002367	1	21	140.398245093	NA	1	0	3.03	1	136.772572215	136.776222153	"10"	586.719534812	584.055113876	1.5	0.1
0.01	1	0.00407400799997504	1	21	140.398245093	NA	1	0	3.03	1	137.006215043	137.010289051	"10"	586.719534812	584.055113876	1.5	0.1
0.01	1	0.00468012199996792	1	21	140.398245093	NA	1	0	3.03	1	137.240010638	137.24469076	"10"	586.719534812	584.055113876	1.5	0.1
0.01	1	0.00398631300004126	1	21	140.398245093	NA	1	0	3.03	1	137.47369501	137.477681323	"10"	586.719534812	584.055113876	1.5	0.1
0.01	1	0.00351740400003564	1	21	140.398245093	NA	1	0	3.03	1	137.707403943	137.710921347	"10"	586.719534812	584.055113876	1.5	0.1
0.01	1	0.0037782090000178	1	21	140.398245093	NA	1	0	3.03	1	137.941168098	137.944946307	"10"	586.719534812	584.055113876	1.5	0.1
0.01	1	0.00369951099997934	1	21	140.398245093	NA	1	0	3.03	1	138.17496382	138.178663331	"10"	586.719534812	584.055113876	1.5	0.1
0.01	1	0.00403757899999846	1	21	140.398245093	NA	1	0	3.03	1	138.408630988	138.412668567	"10"	586.719534812	584.055113876	1.5	0.1
0.01	1	0.00406147000001056	1	21	140.398245093	NA	1	0	3.03	1	138.642339463	138.646400933	"10"	586.719534812	584.055113876	1.5	0.1
0.01	1	0.00371221599999672	1	21	140.398245093	NA	1	0	3.03	1	138.876048555	138.879760771	"10"	586.719534812	584.055113876	1.5	0.1
0.01	1	0.00384519100003899	1	21	140.398245093	NA	1	0	3.03	1	139.109785818	139.113631009	"10"	586.719534812	584.055113876	1.5	0.1
0.01	1	0.00470474200000126	1	21	140.398245093	NA	1	0	3.03	1	139.343499033	139.348203775	"10"	586.719534812	584.055113876	1.5	0.1
0.01	1	0.00454865799997606	1	21	140.398245093	NA	1	0	3.03	1	139.577288285	139.581836943	"10"	586.719534812	584.055113876	1.5	0.1
0.01	1	0.00396353800005045	1	21	140.398245093	NA	1	0	3.03	1	139.810961333	139.814924871	"10"	586.719534812	584.055113876	1.5	0.1
0.01	1	0.0040605840000012	1	21	140.398245093	NA	1	0	3.03	1	140.044693095	140.048753679	"10"	586.719534812	584.055113876	1.5	0.1
0.01	1	0.00396388799998704	1	21	140.398245093	NA	1	0	3.03	1	140.278504953	140.282468841	"10"	586.719534812	584.055113876	1.5	0.1
0.01	1	0.00408086799995999	1	19	146.758957808	NA	1	0	3.03	1	142.432078783	142.436159651	"11"	586.719534812	584.055113876	1.5	0.1
0.01	1	0.00391958199998044	1	19	146.758957808	NA	1	0	3.03	1	142.665904553	142.669824135	"11"	586.719534812	584.055113876	1.5	0.1
0.01	1	0.00409026199997697	1	19	146.758957808	NA	1	0	3.03	1	142.899629193	142.903719455	"11"	586.719534812	584.055113876	1.5	0.1
0.01	1	0.00449821700004804	1	19	146.758957808	NA	1	0	3.03	1	143.133241653	143.13773987	"11"	586.719534812	584.055113876	1.5	0.1
0.01	1	0.00386686600000985	1	19	146.758957808	NA	1	0	3.03	1	143.366907213	143.370774079	"11"	586.719534812	584.055113876	1.5	0.1
0.01	1	0.00426254900003187	1	19	146.758957808	NA	1	0	3.03	1	143.60061747	143.604880019	"11"	586.719534812	584.055113876	1.5	0.1
0.01	1	0.00408060500001284	1	19	146.758957808	NA	1	0	3.03	1	143.834422288	143.838502893	"11"	586.719534812	584.055113876	1.5	0.1
0.01	1	0.00403497700000344	1	19	146.758957808	NA	1	0	3.03	1	144.068058568	144.072093545	"11"	586.719534812	584.055113876	1.5	0.1
0.01	1	0.00394667299997309	1	19	146.758957808	NA	1	0	3.03	1	144.30180795	144.305754623	"11"	586.719534812	584.055113876	1.5	0.1
0.01	1	0.00393075499999895	1	19	146.758957808	NA	1	0	3.03	1	144.53561635	144.539547105	"11"	586.719534812	584.055113876	1.5	0.1
0.01	1	0.00403452699998752	1	19	146.758957808	NA	1	0	3.03	1	144.76930408	144.773338607	"11"	586.719534812	584.055113876	1.5	0.1
0.01	1	0.0034624010000357	1	19	146.758957808	NA	1	0	3.03	1	145.003117328	145.006579729	"11"	586.719534812	584.055113876	1.5	0.1
0.01	1	0.00388309999999592	1	19	146.758957808	NA	1	0	3.03	1	145.236808023	145.240691123	"11"	586.719534812	584.055113876	1.5	0.1
0.01	1	0.00379874500004007	1	19	146.758957808	NA	1	0	3.03	1	145.47052188	145.474320625	"11"	586.719534812	584.055113876	1.5	0.1
0.01	1	0.00474813200003155	1	19	146.758957808	NA	1	0	3.03	1	145.704285538	145.70903367	"11"	586.719534812	584.055113876	1.5	0.1
0.01	1	0.00434126300001481	1	19	146.758957808	NA	1	0	3.03	1	145.937998668	145.942339931	"11"	586.719534812	584.055113876	1.5	0.1
0.01	1	0.00407565000000432	1	19	146.758957808	NA	1	0	3.03	1	146.171628543	146.175704193	"11"	586.719534812	584.055113876	1.5	0.1
0.01	1	0.00371875300004376	1	19	146.758957808	NA	1	0	3.03	1	146.40542362	146.409142373	"11"	586.719534812	584.055113876	1.5	0.1
0.01	1	0.00405527000003758	1	19	146.758957808	NA	1	0	3.03	1	146.639148415	146.643203685	"11"	586.719534812	584.055113876	1.5	0.1
0.01	1	0.00390773899999886	1	63	NA	153.238563595	0	0.19	3.22	1	148.79270908	148.796616819	"12"	586.719534812	584.055113876	1.5	0.1
0.01	1	0.00375386399997524	1	63	NA	153.238563595	0	0.19	3.22	1	149.026463583	149.030217447	"12"	586.719534812	584.055113876	1.5	0.1
0.01	1	0.00393288999998731	1	63	NA	153.238563595	0	0.19	3.22	1	149.260263003	149.264195893	"12"	586.719534812	584.055113876	1.5	0.1
0.01	1	0.00468108699999448	1	63	NA	153.238563595	0	0.19	3.22	1	149.493948693	149.49862978	"12"	586.719534812	584.055113876	1.5	0.1
0.01	1	0.00348335499995756	1	63	NA	153.238563595	0	0.19	3.22	1	149.72770364	149.731186995	"12"	586.719534812	584.055113876	1.5	0.1
0.01	1	0.00470040499999413	1	63	NA	153.238563595	0	0.19	3.22	1	149.961430718	149.966131123	"12"	586.719534812	584.055113876	1.5	0.1
0.01	1	0.00481784700002663	1	63	NA	153.238563595	0	0.19	3.22	1	150.195078853	150.1998967	"12"	586.719534812	584.055113876	1.5	0.1
0.01	1	0.00395706000000473	1	63	NA	153.238563595	0	0.19	3.22	1	150.428805823	150.432762883	"12"	586.719534812	584.055113876	1.5	0.1
0.01	1	0.00478206700000783	1	63	NA	153.238563595	0	0.19	3.22	1	150.662645403	150.66742747	"12"	586.719534812	584.055113876	1.5	0.1
0.01	1	0.00470511199995371	1	63	NA	153.238563595	0	0.19	3.22	1	150.896318483	150.901023595	"12"	586.719534812	584.055113876	1.5	0.1
0.01	1	0.00348021700000345	1	63	NA	153.238563595	0	0.19	3.22	1	151.130087568	151.133567785	"12"	586.719534812	584.055113876	1.5	0.1
0.01	1	0.00384554199996501	1	63	NA	153.238563595	0	0.19	3.22	1	151.363748675	151.367594217	"12"	586.719534812	584.055113876	1.5	0.1
0.01	1	0.00387911900003246	1	63	NA	153.238563595	0	0.19	3.22	1	151.59747435	151.601353469	"12"	586.719534812	584.055113876	1.5	0.1
0.01	1	0.00401983100005054	1	63	NA	153.238563595	0	0.19	3.22	1	151.831221538	151.835241369	"12"	586.719534812	584.055113876	1.5	0.1
0.01	1	0.00466714999998885	1	63	NA	153.238563595	0	0.19	3.22	1	152.064937973	152.069605123	"12"	586.719534812	584.055113876	1.5	0.1
0.01	1	0.00370239799997307	1	63	NA	153.238563595	0	0.19	3.22	1	152.298633445	152.302335843	"12"	586.719534812	584.055113876	1.5	0.1
0.01	1	0.00387691999998196	1	63	NA	153.238563595	0	0.19	3.22	1	152.532389095	152.536266015	"12"	586.719534812	584.055113876	1.5	0.1
0.01	1	0.00376713800000061	1	63	NA	153.238563595	0	0.19	3.22	1	152.766044493	152.769811631	"12"	586.719534812	584.055113876	1.5	0.1
0.01	1	0.00401889599999095	1	63	NA	153.238563595	0	0.19	3.22	1	152.999801473	153.003820369	"12"	586.719534812	584.055113876	1.5	0.1
0.01	1	0.00345935199999303	2	63	NA	153.238563595	0	0.19	3.22	1	153.233469035	153.236928387	"12"	586.719534812	584.055113876	1.5	0.1
0.01	1	0.00468735699996614	1	54	NA	161.835225568	0	0.28	3.5	1	155.286976073	155.29166343	"13"	586.719534812	584.055113876	1.5	0.1
0.01	1	0.00398560600001474	1	54	NA	161.835225568	0	0.28	3.5	1	155.520749315	155.524734921	"13"	586.719534812	584.055113876	1.5	0.1
0.01	1	0.00406211699998948	1	54	NA	161.835225568	0	0.28	3.5	1	155.7544398	155.758501917	"13"	586.719534812	584.055113876	1.5	0.1
0.01	1	0.00471830499998305	1	54	NA	161.835225568	0	0.28	3.5	1	155.988222683	155.992940988	"13"	586.719534812	584.055113876	1.5	0.1
0.01	1	0.00411601299998665	1	54	NA	161.835225568	0	0.28	3.5	1	156.22185413	156.225970143	"13"	586.719534812	584.055113876	1.5	0.1
0.01	1	0.0037735029999908	1	54	NA	161.835225568	0	0.28	3.5	1	156.45570059	156.459474093	"13"	586.719534812	584.055113876	1.5	0.1
0.01	1	0.00372738800001571	1	54	NA	161.835225568	0	0.28	3.5	1	156.689377015	156.693104403	"13"	586.719534812	584.055113876	1.5	0.1
0.01	1	0.00406537699996079	1	54	NA	161.835225568	0	0.28	3.5	1	156.923054798	156.927120175	"13"	586.719534812	584.055113876	1.5	0.1
0.01	1	0.00347078999999439	1	54	NA	161.835225568	0	0.28	3.5	1	157.156872033	157.160342823	"13"	586.719534812	584.055113876	1.5	0.1
0.01	1	0.00380824600000551	1	54	NA	161.835225568	0	0.28	3.5	1	157.390594895	157.394403141	"13"	586.719534812	584.055113876	1.5	0.1
0.01	1	0.00466599000003498	1	54	NA	161.835225568	0	0.28	3.5	1	157.624382183	157.629048173	"13"	586.719534812	584.055113876	1.5	0.1
0.01	1	0.00381961900001215	1	54	NA	161.835225568	0	0.28	3.5	1	157.858084528	157.861904147	"13"	586.719534812	584.055113876	1.5	0.1
0.01	1	0.00348359600002368	1	54	NA	161.835225568	0	0.28	3.5	1	158.091719803	158.095203399	"13"	586.719534812	584.055113876	1.5	0.1
0.01	1	0.00387496399997644	1	54	NA	161.835225568	0	0.28	3.5	1	158.325507963	158.329382927	"13"	586.719534812	584.055113876	1.5	0.1
0.01	1	0.00425689299999021	1	54	NA	161.835225568	0	0.28	3.5	1	158.559233618	158.563490511	"13"	586.719534812	584.055113876	1.5	0.1
0.01	1	0.00493804500001715	1	54	NA	161.835225568	0	0.28	3.5	1	158.792919613	158.797857658	"13"	586.719534812	584.055113876	1.5	0.1
0.01	1	0.00390763699999752	1	54	NA	161.835225568	0	0.28	3.5	1	159.026644738	159.030552375	"13"	586.719534812	584.055113876	1.5	0.1
0.01	1	0.00355051399998274	1	54	NA	161.835225568	0	0.28	3.5	1	159.260315135	159.263865649	"13"	586.719534812	584.055113876	1.5	0.1
0.01	1	0.00480064499998889	1	54	NA	161.835225568	0	0.28	3.5	1	159.494139423	159.498940068	"13"	586.719534812	584.055113876	1.5	0.1
0.01	1	0.00402122400004146	1	54	NA	161.835225568	0	0.28	3.5	1	159.727759953	159.731781177	"13"	586.719534812	584.055113876	1.5	0.1
0.01	1	0.00408756100000573	1	54	NA	161.835225568	0	0.28	3.5	1	159.961549888	159.965637449	"13"	586.719534812	584.055113876	1.5	0.1
0.01	1	0.00460074099999019	1	54	NA	161.835225568	0	0.28	3.5	1	160.195230992	160.199831733	"13"	586.719534812	584.055113876	1.5	0.1
0.01	1	0.00333559600005628	1	54	NA	161.835225568	0	0.28	3.5	1	160.428935683	160.432271279	"13"	586.719534812	584.055113876	1.5	0.1
0.01	1	0.00411036999997805	1	54	NA	161.835225568	0	0.28	3.5	1	160.662763303	160.666873673	"13"	586.719534812	584.055113876	1.5	0.1
0.01	1	0.00394907099996544	1	54	NA	161.835225568	0	0.28	3.5	1	160.89637052	160.900319591	"13"	586.719534812	584.055113876	1.5	0.1
0.01	1	0.00468141000004607	1	54	NA	161.835225568	0	0.28	3.5	1	161.130233028	161.134914438	"13"	586.719534812	584.055113876	1.5	0.1
0.01	1	0.00393939499997487	1	54	NA	161.835225568	0	0.28	3.5	1	161.363906368	161.367845763	"13"	586.719534812	584.055113876	1.5	0.1
0.01	1	0.00409541499999477	1	54	NA	161.835225568	0	0.28	3.5	1	161.59756946	161.601664875	"13"	586.719534812	584.055113876	1.5	0.1
0.01	1	0.00227459199999203	2	54	NA	161.835225568	0	0.28	3.5	1	161.831344595	161.833619187	"13"	586.719534812	584.055113876	1.5	0.1
0.01	1	0.00408248899998398	1	103	NA	173.520301408	0	0.39	3.89	1	163.88473118	163.888813669	"14"	586.719534812	584.055113876	1.5	0.1
0.01	1	0.00401788900001065	1	103	NA	173.520301408	0	0.39	3.89	1	164.118625898	164.122643787	"14"	586.719534812	584.055113876	1.5	0.1
0.01	1	0.00463340800001788	1	103	NA	173.520301408	0	0.39	3.89	1	164.352320185	164.356953593	"14"	586.719534812	584.055113876	1.5	0.1
0.01	1	0.00382292400001916	1	103	NA	173.520301408	0	0.39	3.89	1	164.585983925	164.589806849	"14"	586.719534812	584.055113876	1.5	0.1
0.01	1	0.00380335799997056	1	103	NA	173.520301408	0	0.39	3.89	1	164.819749495	164.823552853	"14"	586.719534812	584.055113876	1.5	0.1
0.01	1	0.00408502100003716	1	103	NA	173.520301408	0	0.39	3.89	1	165.053459166	165.057544187	"14"	586.719534812	584.055113876	1.5	0.1
0.01	1	0.00479498400000011	1	103	NA	173.520301408	0	0.39	3.89	1	165.287178639	165.291973623	"14"	586.719534812	584.055113876	1.5	0.1
0.01	1	0.00335855000002994	1	103	NA	173.520301408	0	0.39	3.89	1	165.520901753	165.524260303	"14"	586.719534812	584.055113876	1.5	0.1
0.01	1	0.00336776799997551	1	103	NA	173.520301408	0	0.39	3.89	1	165.754525043	165.757892811	"14"	586.719534812	584.055113876	1.5	0.1
0.01	1	0.00397583599999507	1	103	NA	173.520301408	0	0.39	3.89	1	165.988302773	165.992278609	"14"	586.719534812	584.055113876	1.5	0.1
0.01	1	0.00373153300000695	1	103	NA	173.520301408	0	0.39	3.89	1	166.222011178	166.225742711	"14"	586.719534812	584.055113876	1.5	0.1
0.01	1	0.00403254499997274	1	103	NA	173.520301408	0	0.39	3.89	1	166.455741558	166.459774103	"14"	586.719534812	584.055113876	1.5	0.1
0.01	1	0.00407794299997022	1	103	NA	173.520301408	0	0.39	3.89	1	166.68953963	166.693617573	"14"	586.719534812	584.055113876	1.5	0.1
0.01	1	0.00323280399999248	1	103	NA	173.520301408	0	0.39	3.89	1	166.923179951	166.926412755	"14"	586.719534812	584.055113876	1.5	0.1
0.01	1	0.00335924799998111	1	103	NA	173.520301408	0	0.39	3.89	1	167.156936031	167.160295279	"14"	586.719534812	584.055113876	1.5	0.1
0.01	1	0.00360757500004638	1	103	NA	173.520301408	0	0.39	3.89	1	167.390726398	167.394333973	"14"	586.719534812	584.055113876	1.5	0.1
0.01	1	0.00458243499997479	1	103	NA	173.520301408	0	0.39	3.89	1	167.624370328	167.628952763	"14"	586.719534812	584.055113876	1.5	0.1
0.01	1	0.0035483279999653	1	103	NA	173.520301408	0	0.39	3.89	1	167.858208563	167.861756891	"14"	586.719534812	584.055113876	1.5	0.1
0.01	1	0.00357812099997545	1	103	NA	173.520301408	0	0.39	3.89	1	168.09190387	168.095481991	"14"	586.719534812	584.055113876	1.5	0.1
0.01	1	0.00406840400000874	1	103	NA	173.520301408	0	0.39	3.89	1	168.325598813	168.329667217	"14"	586.719534812	584.055113876	1.5	0.1
0.01	1	0.00471089000001257	1	103	NA	173.520301408	0	0.39	3.89	1	168.559347263	168.564058153	"14"	586.719534812	584.055113876	1.5	0.1
0.01	1	0.0049106669999901	1	103	NA	173.520301408	0	0.39	3.89	1	168.793073763	168.79798443	"14"	586.719534812	584.055113876	1.5	0.1
0.01	1	0.0034877869999832	1	103	NA	173.520301408	0	0.39	3.89	1	169.026821188	169.030308975	"14"	586.719534812	584.055113876	1.5	0.1
0.01	1	0.00370405000001028	1	103	NA	173.520301408	0	0.39	3.89	1	169.260556035	169.264260085	"14"	586.719534812	584.055113876	1.5	0.1
0.01	1	0.00460919400001103	1	103	NA	173.520301408	0	0.39	3.89	1	169.494293486	169.49890268	"14"	586.719534812	584.055113876	1.5	0.1
0.01	1	0.00400521799997478	1	103	NA	173.520301408	0	0.39	3.89	1	169.727912203	169.731917421	"14"	586.719534812	584.055113876	1.5	0.1
0.01	1	0.00475262200001225	1	103	NA	173.520301408	0	0.39	3.89	1	169.961734828	169.96648745	"14"	586.719534812	584.055113876	1.5	0.1
0.01	1	0.00360496899997997	1	103	NA	173.520301408	0	0.39	3.89	1	170.195489168	170.199094137	"14"	586.719534812	584.055113876	1.5	0.1
0.01	1	0.00356460699998706	1	103	NA	173.520301408	0	0.39	3.89	1	170.429104768	170.432669375	"14"	586.719534812	584.055113876	1.5	0.1
0.01	1	0.152094947999956	1	103	NA	173.520301408	0	0.39	3.89	1	170.662906753	170.815001701	"14"	586.719534812	584.055113876	1.5	0.1
0.01	1	0.00401383500002339	1	103	NA	173.520301408	0	0.39	3.89	1	171.04689039	171.050904225	"14"	586.719534812	584.055113876	1.5	0.1
0.01	1	0.0216419509999923	1	103	NA	173.520301408	0	0.39	3.89	1	171.280572328	171.302214279	"14"	586.719534812	584.055113876	1.5	0.1
0.01	1	0.00465998699996817	1	103	NA	173.520301408	0	0.39	3.89	1	171.531090838	171.535750825	"14"	586.719534812	584.055113876	1.5	0.1
0.01	1	0.0827431689999685	1	103	NA	173.520301408	0	0.39	3.89	1	171.764732728	171.847475897	"14"	586.719534812	584.055113876	1.5	0.1
0.01	1	0.00396971599997187	1	103	NA	173.520301408	0	0.39	3.89	1	172.081930665	172.085900381	"14"	586.719534812	584.055113876	1.5	0.1
0.01	1	0.0039832529999444	1	103	NA	173.520301408	0	0.39	3.89	1	172.315566008	172.319549261	"14"	586.719534812	584.055113876	1.5	0.1
0.01	1	0.0579926249999971	1	103	NA	173.520301408	0	0.39	3.89	1	172.549412253	172.607404878	"14"	586.719534812	584.055113876	1.5	0.1
0.01	1	0.134157264000009	1	103	NA	173.520301408	0	0.39	3.89	1	172.833226118	172.967383382	"14"	586.719534812	584.055113876	1.5	0.1
0.01	1	0.0306062029999907	1	103	NA	173.520301408	0	0.39	3.89	1	173.200526675	173.231132878	"14"	586.719534812	584.055113876	1.5	0.1
0.01	1	0.0512201329999584	2	103	NA	173.520301408	0	0.39	3.89	1	173.467534778	173.518754911	"14"	586.719534812	584.055113876	1.5	0.1
0.01	1	0.346584829999983	1	120	NA	185.544214627	0	0.36	4.25	1	175.571098995	175.917683825	"15"	586.719534812	584.055113876	1.5	0.1
0.01	1	0.00205747100000053	1	120	NA	185.544214627	0	0.36	4.25	1	176.155384749	176.15744222	"15"	586.719534812	584.055113876	1.5	0.1
0.01	1	0.00358733599995276	1	120	NA	185.544214627	0	0.36	4.25	1	176.389229703	176.392817039	"15"	586.719534812	584.055113876	1.5	0.1
0.01	1	0.0481219789999727	1	120	NA	185.544214627	0	0.36	4.25	1	176.622934508	176.671056487	"15"	586.719534812	584.055113876	1.5	0.1
0.01	1	0.00498202500000389	1	120	NA	185.544214627	0	0.36	4.25	1	176.906771353	176.911753378	"15"	586.719534812	584.055113876	1.5	0.1
0.01	1	0.0504539100000443	1	120	NA	185.544214627	0	0.36	4.25	1	177.140477748	177.190931658	"15"	586.719534812	584.055113876	1.5	0.1
0.01	1	0.00474331999998867	1	120	NA	185.544214627	0	0.36	4.25	1	177.424286838	177.429030158	"15"	586.719534812	584.055113876	1.5	0.1
0.01	1	0.116798750999976	1	120	NA	185.544214627	0	0.36	4.25	1	177.65805228	177.774851031	"15"	586.719534812	584.055113876	1.5	0.1
0.01	1	0.00407953899997437	1	120	NA	185.544214627	0	0.36	4.25	1	178.008557538	178.012637077	"15"	586.719534812	584.055113876	1.5	0.1
0.01	1	0.052110081999956	1	120	NA	185.544214627	0	0.36	4.25	1	178.242226753	178.294336835	"15"	586.719534812	584.055113876	1.5	0.1
0.01	1	0.00220661200000905	1	120	NA	185.544214627	0	0.36	4.25	1	178.526202028	178.52840864	"15"	586.719534812	584.055113876	1.5	0.1
0.01	1	0.0219040499999892	1	120	NA	185.544214627	0	0.36	4.25	1	178.75980118	178.78170523	"15"	586.719534812	584.055113876	1.5	0.1
0.01	1	0.00209407799997052	1	120	NA	185.544214627	0	0.36	4.25	1	179.010294929	179.012389007	"15"	586.719534812	584.055113876	1.5	0.1
0.01	1	0.0752172890000224	1	120	NA	185.544214627	0	0.36	4.25	1	179.243929313	179.319146602	"15"	586.719534812	584.055113876	1.5	0.1
0.01	1	0.00438442200004374	1	120	NA	185.544214627	0	0.36	4.25	1	179.544513868	179.54889829	"15"	586.719534812	584.055113876	1.5	0.1
0.01	1	0.0670884150000006	1	120	NA	185.544214627	0	0.36	4.25	1	179.778266655	179.84535507	"15"	586.719534812	584.055113876	1.5	0.1
0.01	1	0.00381583600000113	1	120	NA	185.544214627	0	0.36	4.25	1	180.078752463	180.082568299	"15"	586.719534812	584.055113876	1.5	0.1
0.01	1	0.00395251499998039	1	120	NA	185.544214627	0	0.36	4.25	1	180.312371638	180.316324153	"15"	586.719534812	584.055113876	1.5	0.1
0.01	1	0.00393128500002149	1	120	NA	185.544214627	0	0.36	4.25	1	180.546178648	180.550109933	"15"	586.719534812	584.055113876	1.5	0.1
0.01	1	0.00471642200000133	1	120	NA	185.544214627	0	0.36	4.25	1	180.779944593	180.784661015	"15"	586.719534812	584.055113876	1.5	0.1
0.01	1	0.00405335799996465	1	120	NA	185.544214627	0	0.36	4.25	1	181.013630293	181.017683651	"15"	586.719534812	584.055113876	1.5	0.1
0.01	1	0.00396231499996702	1	120	NA	185.544214627	0	0.36	4.25	1	181.2474184	181.251380715	"15"	586.719534812	584.055113876	1.5	0.1
0.01	1	0.00419335300000512	1	120	NA	185.544214627	0	0.36	4.25	1	181.48107296	181.485266313	"15"	586.719534812	584.055113876	1.5	0.1
0.01	1	0.00345902600003001	1	120	NA	185.544214627	0	0.36	4.25	1	181.714826133	181.718285159	"15"	586.719534812	584.055113876	1.5	0.1
0.01	1	0.00409543300003179	1	120	NA	185.544214627	0	0.36	4.25	1	181.948573578	181.952669011	"15"	586.719534812	584.055113876	1.5	0.1
0.01	1	0.0039900489999809	1	120	NA	185.544214627	0	0.36	4.25	1	182.18220341	182.186193459	"15"	586.719534812	584.055113876	1.5	0.1
0.01	1	0.00470579199998156	1	120	NA	185.544214627	0	0.36	4.25	1	182.416075478	182.42078127	"15"	586.719534812	584.055113876	1.5	0.1
0.01	1	0.0685347680000064	1	120	NA	185.544214627	0	0.36	4.25	1	182.649724595	182.718259363	"15"	586.719534812	584.055113876	1.5	0.1
0.01	1	0.00379081100004441	1	120	NA	185.544214627	0	0.36	4.25	1	182.95021	182.954000811	"15"	586.719534812	584.055113876	1.5	0.1
0.01	1	0.030424021999977	1	120	NA	185.544214627	0	0.36	4.25	1	183.183947973	183.214371995	"15"	586.719534812	584.055113876	1.5	0.1
0.01	1	0.122533879000002	1	120	NA	185.544214627	0	0.36	4.25	1	183.451063278	183.573597157	"15"	586.719534812	584.055113876	1.5	0.1
0.01	1	0.00205636999999115	1	120	NA	185.544214627	0	0.36	4.25	1	183.801683793	183.803740163	"15"	586.719534812	584.055113876	1.5	0.1
0.01	1	0.131409695999992	1	120	NA	185.544214627	0	0.36	4.25	1	184.035429103	184.166838799	"15"	586.719534812	584.055113876	1.5	0.1
0.01	1	0.00397495400000025	1	120	NA	185.544214627	0	0.36	4.25	1	184.402730035	184.406704989	"15"	586.719534812	584.055113876	1.5	0.1
0.01	1	0.369926426999996	1	120	NA	185.544214627	0	0.36	4.25	1	184.63640708	185.006333507	"15"	586.719534812	584.055113876	1.5	0.1
0.01	1	0.00991748100000223	1	120	NA	185.544214627	0	0.36	4.25	1	185.237379908	185.247297389	"15"	586.719534812	584.055113876	1.5	0.1
0.01	1	0.0714791949999949	2	120	NA	185.544214627	0	0.36	4.25	1	185.471151583	185.542630778	"15"	586.719534812	584.055113876	1.5	0.1
0.01	1	0.718543016000012	1	109	NA	193.74499273	0	0.21	4.46	1	187.591345545	188.309888561	"16"	586.719534812	584.055113876	1.5	0.1
0.01	1	0.00468007000000625	1	109	NA	193.74499273	0	0.21	4.46	1	188.543025673	188.547705743	"16"	586.719534812	584.055113876	1.5	0.1
0.01	1	0.117607803999988	1	109	NA	193.74499273	0	0.21	4.46	1	188.776632338	188.894240142	"16"	586.719534812	584.055113876	1.5	0.1
0.01	1	0.00207316399996671	1	109	NA	193.74499273	0	0.21	4.46	1	189.127285588	189.129358752	"16"	586.719534812	584.055113876	1.5	0.1
0.01	1	0.00480287499999577	1	109	NA	193.74499273	0	0.21	4.46	1	189.361094673	189.365897548	"16"	586.719534812	584.055113876	1.5	0.1
0.01	1	0.099738517999981	1	109	NA	193.74499273	0	0.21	4.46	1	189.594710393	189.694448911	"16"	586.719534812	584.055113876	1.5	0.1
0.01	1	0.00205716899995423	1	109	NA	193.74499273	0	0.21	4.46	1	189.92860466	189.930661829	"16"	586.719534812	584.055113876	1.5	0.1
0.01	1	0.00218811000002006	1	109	NA	193.74499273	0	0.21	4.46	1	190.16243065	190.16461876	"16"	586.719534812	584.055113876	1.5	0.1
0.01	1	0.00408958700000994	1	109	NA	193.74499273	0	0.21	4.46	1	190.39607618	190.400165767	"16"	586.719534812	584.055113876	1.5	0.1
0.01	1	0.120969326000022	1	109	NA	193.74499273	0	0.21	4.46	1	190.629880153	190.750849479	"16"	586.719534812	584.055113876	1.5	0.1
0.01	1	0.00285685000000058	1	109	NA	193.74499273	0	0.21	4.46	1	190.980356399	190.983213249	"16"	586.719534812	584.055113876	1.5	0.1
0.01	1	0.0020816580000087	1	109	NA	193.74499273	0	0.21	4.46	1	191.214067712	191.21614937	"16"	586.719534812	584.055113876	1.5	0.1
0.01	1	0.00475413499998467	1	109	NA	193.74499273	0	0.21	4.46	1	191.447904608	191.452658743	"16"	586.719534812	584.055113876	1.5	0.1
0.01	1	0.00408159299996669	1	109	NA	193.74499273	0	0.21	4.46	1	191.68150084	191.685582433	"16"	586.719534812	584.055113876	1.5	0.1
0.01	1	0.123264758000005	1	109	NA	193.74499273	0	0.21	4.46	1	191.915359783	192.038624541	"16"	586.719534812	584.055113876	1.5	0.1
0.01	1	0.00339673799999218	1	109	NA	193.74499273	0	0.21	4.46	1	192.265801557	192.269198295	"16"	586.719534812	584.055113876	1.5	0.1
0.01	1	0.0115335799999912	1	109	NA	193.74499273	0	0.21	4.46	1	192.499716853	192.511250433	"16"	586.719534812	584.055113876	1.5	0.1
0.01	1	0.0100922880000098	1	109	NA	193.74499273	0	0.21	4.46	1	192.733343903	192.743436191	"16"	586.719534812	584.055113876	1.5	0.1
0.01	1	0.00379788100002543	1	109	NA	193.74499273	0	0.21	4.46	1	192.967022	192.970819881	"16"	586.719534812	584.055113876	1.5	0.1
0.01	1	0.0142512899999474	1	109	NA	193.74499273	0	0.21	4.46	1	193.20083762	193.21508891	"16"	586.719534812	584.055113876	1.5	0.1
0.01	1	0.0122392890000356	1	109	NA	193.74499273	0	0.21	4.46	1	193.45127416	193.463513449	"16"	586.719534812	584.055113876	1.5	0.1
0.01	1	0.041823179000005	2	109	NA	193.74499273	0	0.21	4.46	1	193.701612278	193.743435457	"16"	586.719534812	584.055113876	1.5	0.1
0.01	1	0.361316305000003	1	71	NA	198.151883091	0	0.04	4.5	1	195.788451093	196.149767398	"17"	586.719534812	584.055113876	1.5	0.1
0.01	1	0.136196942000026	1	71	NA	198.151883091	0	0.04	4.5	1	196.389512053	196.525708995	"17"	586.719534812	584.055113876	1.5	0.1
0.01	1	0.34556507800005	1	71	NA	198.151883091	0	0.04	4.5	1	196.756714513	197.102279591	"17"	586.719534812	584.055113876	1.5	0.1
0.01	1	0.297851411000011	1	71	NA	198.151883091	0	0.04	4.5	1	197.324389403	197.622240814	"17"	586.719534812	584.055113876	1.5	0.1
0.01	1	0.291727495000032	2	71	NA	198.151883091	0	0.04	4.5	1	197.858611458	198.150338953	"17"	586.719534812	584.055113876	1.5	0.1
0.01	1	0.370484114000021	1	96	NA	207.439253581	0	0.25	4.75	1	200.19589032	200.566374434	"18"	586.719534812	584.055113876	1.5	0.1
0.01	1	0.0183267180000257	1	96	NA	207.439253581	0	0.25	4.75	1	200.796931693	200.815258411	"18"	586.719534812	584.055113876	1.5	0.1
0.01	1	0.00773147300003529	1	96	NA	207.439253581	0	0.25	4.75	1	201.047286018	201.055017491	"18"	586.719534812	584.055113876	1.5	0.1
0.01	1	0.0288139809999848	1	96	NA	207.439253581	0	0.25	4.75	1	201.281015353	201.309829334	"18"	586.719534812	584.055113876	1.5	0.1
0.01	1	0.0260024759999737	1	96	NA	207.439253581	0	0.25	4.75	1	201.548150648	201.574153124	"18"	586.719534812	584.055113876	1.5	0.1
0.01	1	0.0560447010000189	1	96	NA	207.439253581	0	0.25	4.75	1	201.798555575	201.854600276	"18"	586.719534812	584.055113876	1.5	0.1
0.01	1	0.0365246830000387	1	96	NA	207.439253581	0	0.25	4.75	1	202.082393548	202.118918231	"18"	586.719534812	584.055113876	1.5	0.1
0.01	1	0.0337971590000166	1	96	NA	207.439253581	0	0.25	4.75	1	202.349489468	202.383286627	"18"	586.719534812	584.055113876	1.5	0.1
0.01	1	0.0215838430000304	1	96	NA	207.439253581	0	0.25	4.75	1	202.616600421	202.638184264	"18"	586.719534812	584.055113876	1.5	0.1
0.01	1	0.0356400400000325	1	96	NA	207.439253581	0	0.25	4.75	1	202.867023143	202.902663183	"18"	586.719534812	584.055113876	1.5	0.1
0.01	1	0.0401092040000322	1	96	NA	207.439253581	0	0.25	4.75	1	203.134172958	203.174282162	"18"	586.719534812	584.055113876	1.5	0.1
0.01	1	0.0377065890000381	1	96	NA	207.439253581	0	0.25	4.75	1	203.401351973	203.439058562	"18"	586.719534812	584.055113876	1.5	0.1
0.01	1	0.0423622819999991	1	96	NA	207.439253581	0	0.25	4.75	1	203.668415778	203.71077806	"18"	586.719534812	584.055113876	1.5	0.1
0.01	1	0.0386841879999906	1	96	NA	207.439253581	0	0.25	4.75	1	203.952160828	203.990845016	"18"	586.719534812	584.055113876	1.5	0.1
0.01	1	0.0508133940000448	1	96	NA	207.439253581	0	0.25	4.75	1	204.219270508	204.270083902	"18"	586.719534812	584.055113876	1.5	0.1
0.01	1	0.0641347040000255	1	96	NA	207.439253581	0	0.25	4.75	1	204.503182323	204.567317027	"18"	586.719534812	584.055113876	1.5	0.1
0.01	1	0.0502645990000019	1	96	NA	207.439253581	0	0.25	4.75	1	204.803560328	204.853824927	"18"	586.719534812	584.055113876	1.5	0.1
0.01	1	0.0382208510000055	1	96	NA	207.439253581	0	0.25	4.75	1	205.087462068	205.125682919	"18"	586.719534812	584.055113876	1.5	0.1
0.01	1	0.0362259860000336	1	96	NA	207.439253581	0	0.25	4.75	1	205.354566995	205.390792981	"18"	586.719534812	584.055113876	1.5	0.1
0.01	1	0.0656527239999605	1	96	NA	207.439253581	0	0.25	4.75	1	205.621746158	205.687398882	"18"	586.719534812	584.055113876	1.5	0.1
0.01	1	0.036141041999997	1	96	NA	207.439253581	0	0.25	4.75	1	205.922131113	205.958272155	"18"	586.719534812	584.055113876	1.5	0.1
0.01	1	0.0493420090000427	1	96	NA	207.439253581	0	0.25	4.75	1	206.189282008	206.238624017	"18"	586.719534812	584.055113876	1.5	0.1
0.01	1	0.0366853919999812	1	96	NA	207.439253581	0	0.25	4.75	1	206.473186423	206.509871815	"18"	586.719534812	584.055113876	1.5	0.1
0.01	1	0.043041847999973	1	96	NA	207.439253581	0	0.25	4.75	1	206.740272848	206.783314696	"18"	586.719534812	584.055113876	1.5	0.1
0.01	1	0.0393721810000329	1	96	NA	207.439253581	0	0.25	4.75	1	207.02402102	207.063393201	"18"	586.719534812	584.055113876	1.5	0.1
0.01	1	0.146387317999995	2	96	NA	207.439253581	0	0.25	4.75	1	207.291281878	207.437669196	"18"	586.719534812	584.055113876	1.5	0.1
0.01	1	0.447699761000024	1	91	NA	216.647105291	0	0.25	5	1	209.478196273	209.925896034	"19"	586.719534812	584.055113876	1.5	0.1
0.01	1	0.0278045489999954	1	91	NA	216.647105291	0	0.25	5	1	210.162587258	210.190391807	"19"	586.719534812	584.055113876	1.5	0.1
0.01	1	0.0117698260000338	1	91	NA	216.647105291	0	0.25	5	1	210.412997063	210.424766889	"19"	586.719534812	584.055113876	1.5	0.1
0.01	1	0.0229276740000159	1	91	NA	216.647105291	0	0.25	5	1	210.663413273	210.686340947	"19"	586.719534812	584.055113876	1.5	0.1
0.01	1	0.0518229900000051	1	91	NA	216.647105291	0	0.25	5	1	210.913858363	210.965681353	"19"	586.719534812	584.055113876	1.5	0.1
0.01	1	0.0479733480000277	1	91	NA	216.647105291	0	0.25	5	1	211.197785325	211.245758673	"19"	586.719534812	584.055113876	1.5	0.1
0.01	1	0.0298744430000397	1	91	NA	216.647105291	0	0.25	5	1	211.481419843	211.511294286	"19"	586.719534812	584.055113876	1.5	0.1
0.01	1	0.0097992380000278	1	91	NA	216.647105291	0	0.25	5	1	211.74863013	211.758429368	"19"	586.719534812	584.055113876	1.5	0.1
0.01	1	0.031206104999967	1	91	NA	216.647105291	0	0.25	5	1	211.98235459	212.013560695	"19"	586.719534812	584.055113876	1.5	0.1
0.01	1	0.0290676360000361	1	91	NA	216.647105291	0	0.25	5	1	212.249522573	212.278590209	"19"	586.719534812	584.055113876	1.5	0.1
0.01	1	0.0413201970000046	1	91	NA	216.647105291	0	0.25	5	1	212.516560828	212.557881025	"19"	586.719534812	584.055113876	1.5	0.1
0.01	1	0.0391116150000244	1	91	NA	216.647105291	0	0.25	5	1	212.783735548	212.822847163	"19"	586.719534812	584.055113876	1.5	0.1
0.01	1	0.0268007939999961	1	91	NA	216.647105291	0	0.25	5	1	213.050802213	213.077603007	"19"	586.719534812	584.055113876	1.5	0.1
0.01	1	0.0171797299999525	1	91	NA	216.647105291	0	0.25	5	1	213.31797052	213.33515025	"19"	586.719534812	584.055113876	1.5	0.1
0.01	1	0.0536940180000443	1	91	NA	216.647105291	0	0.25	5	1	213.56834221	213.622036228	"19"	586.719534812	584.055113876	1.5	0.1
0.01	1	0.0503387159999988	1	91	NA	216.647105291	0	0.25	5	1	213.852203268	213.902541984	"19"	586.719534812	584.055113876	1.5	0.1
0.01	1	0.0218746009999791	1	91	NA	216.647105291	0	0.25	5	1	214.136024815	214.157899416	"19"	586.719534812	584.055113876	1.5	0.1
0.01	1	0.0370236829999726	1	91	NA	216.647105291	0	0.25	5	1	214.386495465	214.423519148	"19"	586.719534812	584.055113876	1.5	0.1
0.01	1	0.0654745709999816	1	91	NA	216.647105291	0	0.25	5	1	214.65351606	214.718990631	"19"	586.719534812	584.055113876	1.5	0.1
0.01	1	0.0212976640000306	1	91	NA	216.647105291	0	0.25	5	1	214.954063768	214.975361432	"19"	586.719534812	584.055113876	1.5	0.1
0.01	1	0.0572721080000065	1	91	NA	216.647105291	0	0.25	5	1	215.204425728	215.261697836	"19"	586.719534812	584.055113876	1.5	0.1
0.01	1	0.0470612160000314	1	91	NA	216.647105291	0	0.25	5	1	215.488267373	215.535328589	"19"	586.719534812	584.055113876	1.5	0.1
0.01	1	0.0271521049999706	1	91	NA	216.647105291	0	0.25	5	1	215.772048395	215.7992005	"19"	586.719534812	584.055113876	1.5	0.1
0.01	1	0.0557909899999913	1	91	NA	216.647105291	0	0.25	5	1	216.022459053	216.078250043	"19"	586.719534812	584.055113876	1.5	0.1
0.01	1	0.0438685560000067	1	91	NA	216.647105291	0	0.25	5	1	216.306337478	216.350206034	"19"	586.719534812	584.055113876	1.5	0.1
0.01	1	0.0554238409999925	2	91	NA	216.647105291	0	0.25	5	1	216.5901144	216.645538241	"19"	586.719534812	584.055113876	1.5	0.1
0.01	1	0.106625659999963	1	5	219.865225373	NA	1	0	5	1	218.676898778	218.783524438	"20"	586.719534812	584.055113876	1.5	0.1
0.01	1	0.00310029899998199	1	5	219.865225373	NA	1	0	5	1	219.010822587	219.013922886	"20"	586.719534812	584.055113876	1.5	0.1
0.01	1	0.00976087099996903	1	5	219.865225373	NA	1	0	5	1	219.24454462	219.254305491	"20"	586.719534812	584.055113876	1.5	0.1
0.01	1	0.00384308099995678	1	5	219.865225373	NA	1	0	5	1	219.494976268	219.498819349	"20"	586.719534812	584.055113876	1.5	0.1
0.01	1	0.0144261649999748	1	5	219.865225373	NA	1	0	5	1	219.72876507	219.743191235	"20"	586.719534812	584.055113876	1.5	0.1
0.01	1	0.0830265189999864	1	123	NA	228.87957013	0	0.28	5.28	1	221.899052988	221.982079507	"21"	586.719534812	584.055113876	1.5	0.1
0.01	1	0.00361323499998889	1	123	NA	228.87957013	0	0.28	5.28	1	222.216266568	222.219879803	"21"	586.719534812	584.055113876	1.5	0.1
0.01	1	0.00226862000005212	1	123	NA	228.87957013	0	0.28	5.28	1	222.449870931	222.452139551	"21"	586.719534812	584.055113876	1.5	0.1
0.01	1	0.00210931700001993	1	123	NA	228.87957013	0	0.28	5.28	1	222.68368224	222.685791557	"21"	586.719534812	584.055113876	1.5	0.1
0.01	1	0.00463198099998863	1	123	NA	228.87957013	0	0.28	5.28	1	222.917482712	222.922114693	"21"	586.719534812	584.055113876	1.5	0.1
0.01	1	0.0021250890000033	1	123	NA	228.87957013	0	0.28	5.28	1	223.151153395	223.153278484	"21"	586.719534812	584.055113876	1.5	0.1
0.01	1	0.00468029500001421	1	123	NA	228.87957013	0	0.28	5.28	1	223.384930153	223.389610448	"21"	586.719534812	584.055113876	1.5	0.1
0.01	1	0.00393173800000568	1	123	NA	228.87957013	0	0.28	5.28	1	223.618609653	223.622541391	"21"	586.719534812	584.055113876	1.5	0.1
0.01	1	0.00400856300001351	1	123	NA	228.87957013	0	0.28	5.28	1	223.85235993	223.856368493	"21"	586.719534812	584.055113876	1.5	0.1
0.01	1	0.104179993000002	1	123	NA	228.87957013	0	0.28	5.28	1	224.08605344	224.190233433	"21"	586.719534812	584.055113876	1.5	0.1
0.01	1	0.00227015799998753	1	123	NA	228.87957013	0	0.28	5.28	1	224.42003954	224.422309698	"21"	586.719534812	584.055113876	1.5	0.1
0.01	1	0.00205297799999471	1	123	NA	228.87957013	0	0.28	5.28	1	224.653698869	224.655751847	"21"	586.719534812	584.055113876	1.5	0.1
0.01	1	0.00469396199997618	1	123	NA	228.87957013	0	0.28	5.28	1	224.887423668	224.89211763	"21"	586.719534812	584.055113876	1.5	0.1
0.01	1	0.0615081479999731	1	123	NA	228.87957013	0	0.28	5.28	1	225.121142303	225.182650451	"21"	586.719534812	584.055113876	1.5	0.1
0.01	1	0.0107510009999601	1	123	NA	228.87957013	0	0.28	5.28	1	225.404974906	225.415725907	"21"	586.719534812	584.055113876	1.5	0.1
0.01	1	0.00237579100001994	1	123	NA	228.87957013	0	0.28	5.28	1	225.655329109	225.6577049	"21"	586.719534812	584.055113876	1.5	0.1
0.01	1	0.00206299899997475	1	123	NA	228.87957013	0	0.28	5.28	1	225.889099209	225.891162208	"21"	586.719534812	584.055113876	1.5	0.1
0.01	1	0.00204975199994806	1	123	NA	228.87957013	0	0.28	5.28	1	226.122827861	226.124877613	"21"	586.719534812	584.055113876	1.5	0.1
0.01	1	0.00395421700000043	1	123	NA	228.87957013	0	0.28	5.28	1	226.35649888	226.360453097	"21"	586.719534812	584.055113876	1.5	0.1
0.01	1	0.00474474499998223	1	123	NA	228.87957013	0	0.28	5.28	1	226.590208508	226.594953253	"21"	586.719534812	584.055113876	1.5	0.1
0.01	1	0.00377279899998939	1	123	NA	228.87957013	0	0.28	5.28	1	226.82392087	226.827693669	"21"	586.719534812	584.055113876	1.5	0.1
0.01	1	0.124010927000029	1	123	NA	228.87957013	0	0.28	5.28	1	227.057647463	227.18165839	"21"	586.719534812	584.055113876	1.5	0.1
0.01	1	0.00227380299998003	1	123	NA	228.87957013	0	0.28	5.28	1	227.408214101	227.410487904	"21"	586.719534812	584.055113876	1.5	0.1
0.01	1	0.00849730299995599	1	123	NA	228.87957013	0	0.28	5.28	1	227.642178348	227.650675651	"21"	586.719534812	584.055113876	1.5	0.1
0.01	1	0.00468822199997021	1	123	NA	228.87957013	0	0.28	5.28	1	227.875824038	227.88051226	"21"	586.719534812	584.055113876	1.5	0.1
0.01	1	0.00205248100002109	1	123	NA	228.87957013	0	0.28	5.28	1	228.109566559	228.11161904	"21"	586.719534812	584.055113876	1.5	0.1
0.01	1	0.00473622700002352	1	123	NA	228.87957013	0	0.28	5.28	1	228.343212663	228.34794889	"21"	586.719534812	584.055113876	1.5	0.1
0.01	1	0.00409692300002007	1	123	NA	228.87957013	0	0.28	5.28	1	228.577009478	228.581106401	"21"	586.719534812	584.055113876	1.5	0.1
0.01	1	0.0673346919999744	2	123	NA	228.87957013	0	0.28	5.28	1	228.810654688	228.87798938	"21"	586.719534812	584.055113876	1.5	0.1
0.01	1	0.268018414999972	1	81	NA	239.791556609	0	0.22	5.5	1	230.930846513	231.198864928	"22"	586.719534812	584.055113876	1.5	0.1
0.01	1	0.00232705400003397	1	81	NA	239.791556609	0	0.22	5.5	1	231.431699403	231.434026457	"22"	586.719534812	584.055113876	1.5	0.1
0.01	1	0.00414443100004291	1	81	NA	239.791556609	0	0.22	5.5	1	231.66540064	231.669545071	"22"	586.719534812	584.055113876	1.5	0.1
0.01	1	0.0268999630000053	1	81	NA	239.791556609	0	0.22	5.5	1	231.899182368	231.926082331	"22"	586.719534812	584.055113876	1.5	0.1
0.01	1	0.0326476330000105	1	81	NA	239.791556609	0	0.22	5.5	1	232.149676698	232.182324331	"22"	586.719534812	584.055113876	1.5	0.1
0.01	1	0.0295692959999769	1	81	NA	239.791556609	0	0.22	5.5	1	232.416780575	232.446349871	"22"	586.719534812	584.055113876	1.5	0.1
0.01	1	0.0101151160000086	1	81	NA	239.791556609	0	0.22	5.5	1	232.683764915	232.693880031	"22"	586.719534812	584.055113876	1.5	0.1
0.01	1	0.0332573899999602	1	81	NA	239.791556609	0	0.22	5.5	1	232.917499743	232.950757133	"22"	586.719534812	584.055113876	1.5	0.1
0.01	1	0.013548328000013	1	81	NA	239.791556609	0	0.22	5.5	1	233.184688763	233.198237091	"22"	586.719534812	584.055113876	1.5	0.1
0.01	1	0.0274717820000205	1	81	NA	239.791556609	0	0.22	5.5	1	233.43518864	233.462660422	"22"	586.719534812	584.055113876	1.5	0.1
0.01	1	0.0333611849999897	1	81	NA	239.791556609	0	0.22	5.5	1	233.68549859	233.718859775	"22"	586.719534812	584.055113876	1.5	0.1
0.01	1	0.0457411739999998	1	81	NA	239.791556609	0	0.22	5.5	1	233.952705613	233.998446787	"22"	586.719534812	584.055113876	1.5	0.1
0.01	1	0.129999557999952	1	81	NA	239.791556609	0	0.22	5.5	1	234.236377413	234.366376971	"22"	586.719534812	584.055113876	1.5	0.1
0.01	1	0.0898379509999927	1	81	NA	239.791556609	0	0.22	5.5	1	234.603685193	234.693523144	"22"	586.719534812	584.055113876	1.5	0.1
0.01	1	0.0610742959999584	1	81	NA	239.791556609	0	0.22	5.5	1	234.920873345	234.981947641	"22"	586.719534812	584.055113876	1.5	0.1
0.01	1	1.49787343900005	1	81	NA	239.791556609	0	0.22	5.5	1	235.204740563	236.702614002	"22"	586.719534812	584.055113876	1.5	0.1
0.01	1	0.281687562999991	1	81	NA	239.791556609	0	0.22	5.5	1	236.9243383	237.206025863	"22"	586.719534812	584.055113876	1.5	0.1
0.01	1	0.157325178999997	1	81	NA	239.791556609	0	0.22	5.5	1	237.44180659	237.599131769	"22"	586.719534812	584.055113876	1.5	0.1
0.01	1	0.13272742700002	1	81	NA	239.791556609	0	0.22	5.5	1	237.825863049	237.958590476	"22"	586.719534812	584.055113876	1.5	0.1
0.01	1	0.206167282999957	1	81	NA	239.791556609	0	0.22	5.5	1	238.193113648	238.399280931	"22"	586.719534812	584.055113876	1.5	0.1
0.01	1	0.24311368299999	1	81	NA	239.791556609	0	0.22	5.5	1	238.62721215	238.870325833	"22"	586.719534812	584.055113876	1.5	0.1
0.01	1	0.238944361999984	1	81	NA	239.791556609	0	0.22	5.5	1	239.094654603	239.333598965	"22"	586.719534812	584.055113876	1.5	0.1
0.01	1	0.227856712999994	2	81	NA	239.791556609	0	0.22	5.5	1	239.56214564	239.790002353	"22"	586.719534812	584.055113876	1.5	0.1
0.01	1	0.445470107000006	1	117	NA	252.328057361	0	0.25	5.75	1	241.832613578	242.278083685	"23"	586.719534812	584.055113876	1.5	0.1
0.01	1	0.170306262999986	1	117	NA	252.328057361	0	0.25	5.75	1	242.517057878	242.687364141	"23"	586.719534812	584.055113876	1.5	0.1
0.01	1	0.216431059999991	1	117	NA	252.328057361	0	0.25	5.75	1	242.917721418	243.134152478	"23"	586.719534812	584.055113876	1.5	0.1
0.01	1	0.206365991999974	1	117	NA	252.328057361	0	0.25	5.75	1	243.368509083	243.574875075	"23"	586.719534812	584.055113876	1.5	0.1
0.01	1	0.179999371999997	1	117	NA	252.328057361	0	0.25	5.75	1	243.802522403	243.982521775	"23"	586.719534812	584.055113876	1.5	0.1
0.01	1	0.194169344999978	1	117	NA	252.328057361	0	0.25	5.75	1	244.219990773	244.414160118	"23"	586.719534812	584.055113876	1.5	0.1
0.01	1	0.168219739999984	1	117	NA	252.328057361	0	0.25	5.75	1	244.637299788	244.805519528	"23"	586.719534812	584.055113876	1.5	0.1
0.01	1	0.175530191999997	1	117	NA	252.328057361	0	0.25	5.75	1	245.038000643	245.213530835	"23"	586.719534812	584.055113876	1.5	0.1
0.01	1	0.120301411000014	1	117	NA	252.328057361	0	0.25	5.75	1	245.438588718	245.558890129	"23"	586.719534812	584.055113876	1.5	0.1
0.01	1	0.14548206500001	1	117	NA	252.328057361	0	0.25	5.75	1	245.789241678	245.934723743	"23"	586.719534812	584.055113876	1.5	0.1
0.01	1	0.14550736700005	1	117	NA	252.328057361	0	0.25	5.75	1	246.173263473	246.31877084	"23"	586.719534812	584.055113876	1.5	0.1
0.01	1	0.194264142000009	1	117	NA	252.328057361	0	0.25	5.75	1	246.540488023	246.734752165	"23"	586.719534812	584.055113876	1.5	0.1
0.01	1	0.160884455999962	1	117	NA	252.328057361	0	0.25	5.75	1	246.957895833	247.118780289	"23"	586.719534812	584.055113876	1.5	0.1
0.01	1	0.185047844999986	1	117	NA	252.328057361	0	0.25	5.75	1	247.341857013	247.526904858	"23"	586.719534812	584.055113876	1.5	0.1
0.01	1	0.191312517000028	1	117	NA	252.328057361	0	0.25	5.75	1	247.75921586	247.950528377	"23"	586.719534812	584.055113876	1.5	0.1
0.01	1	0.158218541999986	1	117	NA	252.328057361	0	0.25	5.75	1	248.176497089	248.334715631	"23"	586.719534812	584.055113876	1.5	0.1
0.01	1	0.19804798499996	1	117	NA	252.328057361	0	0.25	5.75	1	248.560513253	248.758561238	"23"	586.719534812	584.055113876	1.5	0.1
0.01	1	0.138912260000041	1	117	NA	252.328057361	0	0.25	5.75	1	248.994572895	249.133485155	"23"	586.719534812	584.055113876	1.5	0.1
0.01	1	0.165440798999953	1	117	NA	252.328057361	0	0.25	5.75	1	249.361912613	249.527353412	"23"	586.719534812	584.055113876	1.5	0.1
0.01	1	0.147398026999952	1	117	NA	252.328057361	0	0.25	5.75	1	249.76249968	249.909897707	"23"	586.719534812	584.055113876	1.5	0.1
0.01	1	0.163668031999975	1	117	NA	252.328057361	0	0.25	5.75	1	250.146560368	250.3102284	"23"	586.719534812	584.055113876	1.5	0.1
0.01	1	0.170965659999979	1	117	NA	252.328057361	0	0.25	5.75	1	250.54721638	250.71818204	"23"	586.719534812	584.055113876	1.5	0.1
0.01	1	0.162393527000006	1	117	NA	252.328057361	0	0.25	5.75	1	250.947968968	251.110362495	"23"	586.719534812	584.055113876	1.5	0.1
0.01	1	0.19511404299999	1	117	NA	252.328057361	0	0.25	5.75	1	251.331896005	251.527010048	"23"	586.719534812	584.055113876	1.5	0.1
0.01	1	0.152736595000022	1	117	NA	252.328057361	0	0.25	5.75	1	251.749221875	251.90195847	"23"	586.719534812	584.055113876	1.5	0.1
0.01	1	0.193254142000001	2	117	NA	252.328057361	0	0.25	5.75	1	252.133246848	252.32650099	"23"	586.719534812	584.055113876	1.5	0.1
0.01	1	0.261819935999995	1	84	NA	262.199012458	0	0.25	6	1	254.353587282	254.615407218	"24"	586.719534812	584.055113876	1.5	0.1
0.01	1	0.0967278709999846	1	84	NA	262.199012458	0	0.25	6	1	254.837700943	254.934428814	"24"	586.719534812	584.055113876	1.5	0.1
0.01	1	0.0753686449999691	1	84	NA	262.199012458	0	0.25	6	1	255.17169215	255.247060795	"24"	586.719534812	584.055113876	1.5	0.1
0.01	1	0.0693135710000092	1	84	NA	262.199012458	0	0.25	6	1	255.472107868	255.541421439	"24"	586.719534812	584.055113876	1.5	0.1
0.01	1	0.0731431319999842	1	84	NA	262.199012458	0	0.25	6	1	255.772760608	255.84590374	"24"	586.719534812	584.055113876	1.5	0.1
0.01	1	0.101016270000002	1	84	NA	262.199012458	0	0.25	6	1	256.073177683	256.174193953	"24"	586.719534812	584.055113876	1.5	0.1
0.01	1	0.0635490309999795	1	84	NA	262.199012458	0	0.25	6	1	256.407164422	256.470713453	"24"	586.719534812	584.055113876	1.5	0.1
0.01	1	0.0911124719999634	1	84	NA	262.199012458	0	0.25	6	1	256.707545138	256.79865761	"24"	586.719534812	584.055113876	1.5	0.1
0.01	1	0.0772038829999815	1	84	NA	262.199012458	0	0.25	6	1	257.024780138	257.101984021	"24"	586.719534812	584.055113876	1.5	0.1
0.01	1	0.080973384999993	1	84	NA	262.199012458	0	0.25	6	1	257.325300523	257.406273908	"24"	586.719534812	584.055113876	1.5	0.1
0.01	1	0.0589630329999977	1	84	NA	262.199012458	0	0.25	6	1	257.642463603	257.701426636	"24"	586.719534812	584.055113876	1.5	0.1
0.01	1	0.0872781599999826	1	84	NA	262.199012458	0	0.25	6	1	257.926254875	258.013533035	"24"	586.719534812	584.055113876	1.5	0.1
0.01	1	0.0675347729999771	1	84	NA	262.199012458	0	0.25	6	1	258.24361755	258.311152323	"24"	586.719534812	584.055113876	1.5	0.1
0.01	1	0.0775697990000026	1	84	NA	262.199012458	0	0.25	6	1	258.544003488	258.621573287	"24"	586.719534812	584.055113876	1.5	0.1
0.01	1	0.114117195999995	1	84	NA	262.199012458	0	0.25	6	1	258.844534228	258.958651424	"24"	586.719534812	584.055113876	1.5	0.1
0.01	1	0.0682023549999826	1	84	NA	262.199012458	0	0.25	6	1	259.195114643	259.263316998	"24"	586.719534812	584.055113876	1.5	0.1
0.01	1	0.0637033759999781	1	84	NA	262.199012458	0	0.25	6	1	259.49560671	259.559310086	"24"	586.719534812	584.055113876	1.5	0.1
0.01	1	0.027279625999995	1	84	NA	262.199012458	0	0.25	6	1	259.796157123	259.823436749	"24"	586.719534812	584.055113876	1.5	0.1
0.01	1	0.0808186379999825	1	84	NA	262.199012458	0	0.25	6	1	260.046577223	260.127395861	"24"	586.719534812	584.055113876	1.5	0.1
0.01	1	0.082130602999996	1	84	NA	262.199012458	0	0.25	6	1	260.363777673	260.445908276	"24"	586.719534812	584.055113876	1.5	0.1
0.01	1	0.0365058429999863	1	84	NA	262.199012458	0	0.25	6	1	260.680960428	260.717466271	"24"	586.719534812	584.055113876	1.5	0.1
0.01	1	0.0743444750000322	1	84	NA	262.199012458	0	0.25	6	1	260.948011583	261.022356058	"24"	586.719534812	584.055113876	1.5	0.1
0.01	1	0.0696137730000146	1	84	NA	262.199012458	0	0.25	6	1	261.248588638	261.318202411	"24"	586.719534812	584.055113876	1.5	0.1
0.01	1	0.0491381159999946	1	84	NA	262.199012458	0	0.25	6	1	261.549045623	261.598183739	"24"	586.719534812	584.055113876	1.5	0.1
0.01	1	0.0627771540000595	1	84	NA	262.199012458	0	0.25	6	1	261.832786575	261.895563729	"24"	586.719534812	584.055113876	1.5	0.1
0.01	1	0.0640836479999507	2	84	NA	262.199012458	0	0.25	6	1	262.133377796	262.197461444	"24"	586.719534812	584.055113876	1.5	0.1
0.01	1	0.0113402429999496	1	22	270.500488918	NA	1	0	6	1	264.253559758	264.264900001	"25"	586.719534812	584.055113876	1.5	0.1
0.01	1	0.00828571500005637	1	22	270.500488918	NA	1	0	6	1	264.504057158	264.512342873	"25"	586.719534812	584.055113876	1.5	0.1
0.01	1	0.0760372490000236	1	22	270.500488918	NA	1	0	6	1	264.73782241	264.813859659	"25"	586.719534812	584.055113876	1.5	0.1
0.01	1	0.0719706510000151	1	22	270.500488918	NA	1	0	6	1	265.038160565	265.110131216	"25"	586.719534812	584.055113876	1.5	0.1
0.01	1	0.0601644570000417	1	22	270.500488918	NA	1	0	6	1	265.33883028	265.398994737	"25"	586.719534812	584.055113876	1.5	0.1
0.01	1	0.072289044999934	1	22	270.500488918	NA	1	0	6	1	265.622601438	265.694890483	"25"	586.719534812	584.055113876	1.5	0.1
0.01	1	0.0913821240000061	1	22	270.500488918	NA	1	0	6	1	265.923126492	266.014508616	"25"	586.719534812	584.055113876	1.5	0.1
0.01	1	0.0863241719999905	1	22	270.500488918	NA	1	0	6	1	266.240295715	266.326619887	"25"	586.719534812	584.055113876	1.5	0.1
