"payoff.level"	"balloon"	"rt"	"resp"	"explode.trial"	"explode.time"	"finish.time"	"exploded"	"trial.total"	"cumulative.total"	"finished"	"trial.start"	"trial.end"	"trial.num"	"secs"	"start.time"	"iti"	"isi"
0.01	1	1.69518309899968	1	64	NA	11.9285523099998	0	0.05	0.05	1	0.0234924530000171	1.7186755519997	"1"	4182.820700623	4180.360179729	1.5	0.1
0.01	1	1.24881268599984	1	64	NA	11.9285523099998	0	0.05	0.05	1	2.07700140899988	3.32581409499971	"1"	4182.820700623	4180.360179729	1.5	0.1
0.01	1	1.78044438799998	1	64	NA	11.9285523099998	0	0.05	0.05	1	3.56275981999988	5.34320420799986	"1"	4182.820700623	4180.360179729	1.5	0.1
0.01	1	2.67160649300013	1	64	NA	11.9285523099998	0	0.05	0.05	1	5.58278615399968	8.2543926469998	"1"	4182.820700623	4180.360179729	1.5	0.1
0.01	1	2.14167339699998	1	64	NA	11.9285523099998	0	0.05	0.05	1	8.48774226199976	10.6294156589997	"1"	4182.820700623	4180.360179729	1.5	0.1
0.01	1	1.06867679799961	2	64	NA	11.9285523099998	0	0.05	0.05	1	10.8583155050001	11.9269923029997	"1"	4182.820700623	4180.360179729	1.5	0.1
0.01	1	2.42597957599992	1	102	NA	26.4968623159998	0	0.08	0.13	1	13.9802694069999	16.4062489829998	"2"	4182.820700623	4180.360179729	1.5	0.1
0.01	1	0.980770178000057	1	102	NA	26.4968623159998	0	0.08	0.13	1	16.6347118639997	17.6154820419997	"2"	4182.820700623	4180.360179729	1.5	0.1
0.01	1	0.808379622999837	1	102	NA	26.4968623159998	0	0.08	0.13	1	17.8533765349998	18.6617561579997	"2"	4182.820700623	4180.360179729	1.5	0.1
0.01	1	0.62277418199983	1	102	NA	26.4968623159998	0	0.08	0.13	1	18.8884380969998	19.5112122789997	"2"	4182.820700623	4180.360179729	1.5	0.1
0.01	1	0.538765514999795	1	102	NA	26.4968623159998	0	0.08	0.13	1	19.739881818	20.2786473329998	"2"	4182.820700623	4180.360179729	1.5	0.1
0.01	1	1.90674786800037	1	102	NA	26.4968623159998	0	0.08	0.13	1	20.5079013699997	22.414649238	"2"	4182.820700623	4180.360179729	1.5	0.1
0.01	1	0.858467813000061	1	102	NA	26.4968623159998	0	0.08	0.13	1	22.6447584789998	23.5032262919999	"2"	4182.820700623	4180.360179729	1.5	0.1
0.01	1	1.89189706800016	1	102	NA	26.4968623159998	0	0.08	0.13	1	23.7299182419997	25.6218153099999	"2"	4182.820700623	4180.360179729	1.5	0.1
0.01	1	0.645219944000019	2	102	NA	26.4968623159998	0	0.08	0.13	1	25.850140476	26.49536042	"2"	4182.820700623	4180.360179729	1.5	0.1
0.01	1	1.00269176399979	1	97	NA	37.288510204	0	0.06	0.19	1	28.555034125	29.5577258889998	"3"	4182.820700623	4180.360179729	1.5	0.1
0.01	1	2.10327965399983	1	97	NA	37.288510204	0	0.06	0.19	1	29.7903355650001	31.8936152189999	"3"	4182.820700623	4180.360179729	1.5	0.1
0.01	1	0.375698037999882	1	97	NA	37.288510204	0	0.06	0.19	1	32.1273999119999	32.5030979499998	"3"	4182.820700623	4180.360179729	1.5	0.1
0.01	1	0.317670583000108	1	97	NA	37.288510204	0	0.06	0.19	1	32.7283867619999	33.046057345	"3"	4182.820700623	4180.360179729	1.5	0.1
0.01	1	1.54301211399979	1	97	NA	37.288510204	0	0.06	0.19	1	33.2794987729999	34.8225108869997	"3"	4182.820700623	4180.360179729	1.5	0.1
0.01	1	1.03009905099998	1	97	NA	37.288510204	0	0.06	0.19	1	35.0490909959999	36.0791900469999	"3"	4182.820700623	4180.360179729	1.5	0.1
0.01	1	0.969145971000216	2	97	NA	37.288510204	0	0.06	0.19	1	36.3178291139998	37.286975085	"3"	4182.820700623	4180.360179729	1.5	0.1
0.01	1	0.788997818000098	1	51	NA	48.7591330159999	0	0.1	0.29	1	39.322919278	40.1119170960001	"4"	4182.820700623	4180.360179729	1.5	0.1
0.01	1	0.656464314000004	1	51	NA	48.7591330159999	0	0.1	0.29	1	40.3414149209998	40.9978792349998	"4"	4182.820700623	4180.360179729	1.5	0.1
0.01	1	0.652867611999682	1	51	NA	48.7591330159999	0	0.1	0.29	1	41.2260512150001	41.8789188269998	"4"	4182.820700623	4180.360179729	1.5	0.1
0.01	1	0.416443154000262	1	51	NA	48.7591330159999	0	0.1	0.29	1	42.1108545849997	42.527297739	"4"	4182.820700623	4180.360179729	1.5	0.1
0.01	1	0.397383252000054	1	51	NA	48.7591330159999	0	0.1	0.29	1	42.761985396	43.1593686480001	"4"	4182.820700623	4180.360179729	1.5	0.1
0.01	1	0.633727531999739	1	51	NA	48.7591330159999	0	0.1	0.29	1	43.3965020420001	44.0302295739998	"4"	4182.820700623	4180.360179729	1.5	0.1
0.01	1	0.40679981600033	1	51	NA	48.7591330159999	0	0.1	0.29	1	44.2644615589998	44.6712613750001	"4"	4182.820700623	4180.360179729	1.5	0.1
0.01	1	0.603133540000272	1	51	NA	48.7591330159999	0	0.1	0.29	1	44.8989166419997	45.5020501819999	"4"	4182.820700623	4180.360179729	1.5	0.1
0.01	1	0.880077232000076	1	51	NA	48.7591330159999	0	0.1	0.29	1	45.733739024	46.6138162560001	"4"	4182.820700623	4180.360179729	1.5	0.1
0.01	1	0.468577514000117	1	51	NA	48.7591330159999	0	0.1	0.29	1	46.8522430389999	47.320820553	"4"	4182.820700623	4180.360179729	1.5	0.1
0.01	1	1.20427007600028	2	51	NA	48.7591330159999	0	0.1	0.29	1	47.5533429799998	48.7576130560001	"4"	4182.820700623	4180.360179729	1.5	0.1
0.01	1	0.4300789240001	1	116	NA	67.6167959479999	0	0.15	0.44	1	50.8089911839998	51.2390701079999	"5"	4182.820700623	4180.360179729	1.5	0.1
0.01	1	0.346763143000317	1	116	NA	67.6167959479999	0	0.15	0.44	1	51.4766390209998	51.8234021640001	"5"	4182.820700623	4180.360179729	1.5	0.1
0.01	1	0.889468065000074	1	116	NA	67.6167959479999	0	0.15	0.44	1	52.0609389649999	52.95040703	"5"	4182.820700623	4180.360179729	1.5	0.1
0.01	1	0.497933995000039	1	116	NA	67.6167959479999	0	0.15	0.44	1	53.1795641409999	53.6774981359999	"5"	4182.820700623	4180.360179729	1.5	0.1
0.01	1	0.467983597000057	1	116	NA	67.6167959479999	0	0.15	0.44	1	53.9140551619998	54.3820387589999	"5"	4182.820700623	4180.360179729	1.5	0.1
0.01	1	0.65588397700003	1	116	NA	67.6167959479999	0	0.15	0.44	1	54.6152655609999	55.2711495379999	"5"	4182.820700623	4180.360179729	1.5	0.1
0.01	1	0.641921558999911	1	116	NA	67.6167959479999	0	0.15	0.44	1	55.5001592489998	56.1420808079997	"5"	4182.820700623	4180.360179729	1.5	0.1
0.01	1	1.55209336400003	1	116	NA	67.6167959479999	0	0.15	0.44	1	56.3682491109998	57.9203424749999	"5"	4182.820700623	4180.360179729	1.5	0.1
0.01	1	0.427282497000306	1	116	NA	67.6167959479999	0	0.15	0.44	1	58.1545890499997	58.581871547	"5"	4182.820700623	4180.360179729	1.5	0.1
0.01	1	0.745256306000101	1	116	NA	67.6167959479999	0	0.15	0.44	1	58.8057274019998	59.5509837079999	"5"	4182.820700623	4180.360179729	1.5	0.1
0.01	1	0.543767224000021	1	116	NA	67.6167959479999	0	0.15	0.44	1	59.7739921819998	60.3177594059998	"5"	4182.820700623	4180.360179729	1.5	0.1
0.01	1	0.816018894000081	1	116	NA	67.6167959479999	0	0.15	0.44	1	60.5418795339997	61.3578984279998	"5"	4182.820700623	4180.360179729	1.5	0.1
0.01	1	1.90862298799993	1	116	NA	67.6167959479999	0	0.15	0.44	1	61.5937102160001	63.502333204	"5"	4182.820700623	4180.360179729	1.5	0.1
0.01	1	0.875884442999904	1	116	NA	67.6167959479999	0	0.15	0.44	1	63.7307636699998	64.6066481129997	"5"	4182.820700623	4180.360179729	1.5	0.1
0.01	1	2.28683389000025	1	116	NA	67.6167959479999	0	0.15	0.44	1	64.8325047169997	67.1193386069999	"5"	4182.820700623	4180.360179729	1.5	0.1
0.01	1	0.261768926000059	2	116	NA	67.6167959479999	0	0.15	0.44	1	67.3534965589997	67.6152654849998	"5"	4182.820700623	4180.360179729	1.5	0.1
0.01	1	0.341618802000085	1	118	NA	80.1912091619997	0	0.1	0.54	1	69.6406334759999	69.982252278	"6"	4182.820700623	4180.360179729	1.5	0.1
0.01	1	0.966072273000009	1	118	NA	80.1912091619997	0	0.1	0.54	1	70.2082075549997	71.1742798279997	"6"	4182.820700623	4180.360179729	1.5	0.1
0.01	1	0.916318214000057	1	118	NA	80.1912091619997	0	0.1	0.54	1	71.4102060669998	72.3265242809998	"6"	4182.820700623	4180.360179729	1.5	0.1
0.01	1	1.15679732199987	1	118	NA	80.1912091619997	0	0.1	0.54	1	72.5622082569998	73.7190055789997	"6"	4182.820700623	4180.360179729	1.5	0.1
0.01	1	0.611180776999845	1	118	NA	80.1912091619997	0	0.1	0.54	1	73.9478812120001	74.5590619889999	"6"	4182.820700623	4180.360179729	1.5	0.1
0.01	1	0.640183973000148	1	118	NA	80.1912091619997	0	0.1	0.54	1	74.7991880689997	75.4393720419998	"6"	4182.820700623	4180.360179729	1.5	0.1
0.01	1	0.835815361999721	1	118	NA	80.1912091619997	0	0.1	0.54	1	75.667369754	76.5031851159997	"6"	4182.820700623	4180.360179729	1.5	0.1
0.01	1	1.4537503280003	1	118	NA	80.1912091619997	0	0.1	0.54	1	76.7358118069997	78.189562135	"6"	4182.820700623	4180.360179729	1.5	0.1
0.01	1	0.507497371999762	1	118	NA	80.1912091619997	0	0.1	0.54	1	78.4220189329999	78.9295163049997	"6"	4182.820700623	4180.360179729	1.5	0.1
0.01	1	0.353907422000248	1	118	NA	80.1912091619997	0	0.1	0.54	1	79.1566094659997	79.510516888	"6"	4182.820700623	4180.360179729	1.5	0.1
0.01	1	0.448741872000028	2	118	NA	80.1912091619997	0	0.1	0.54	1	79.7408771269997	80.1896189989998	"6"	4182.820700623	4180.360179729	1.5	0.1
0.01	1	0.313173089999964	1	87	NA	93.6251407939999	0	0.16	0.7	1	82.245057483	82.5582305729999	"7"	4182.820700623	4180.360179729	1.5	0.1
0.01	1	0.243184387000383	1	87	NA	93.6251407939999	0	0.16	0.7	1	82.7960983979997	83.0392827850001	"7"	4182.820700623	4180.360179729	1.5	0.1
0.01	1	0.247746688000007	1	87	NA	93.6251407939999	0	0.16	0.7	1	83.263498108	83.511244796	"7"	4182.820700623	4180.360179729	1.5	0.1
0.01	1	0.274830250999912	1	87	NA	93.6251407939999	0	0.16	0.7	1	83.7476782389999	84.0225084899998	"7"	4182.820700623	4180.360179729	1.5	0.1
0.01	1	0.341034078000121	1	87	NA	93.6251407939999	0	0.16	0.7	1	84.2485396029997	84.5895736809998	"7"	4182.820700623	4180.360179729	1.5	0.1
0.01	1	0.351180587999806	1	87	NA	93.6251407939999	0	0.16	0.7	1	84.8161274039999	85.1673079919997	"7"	4182.820700623	4180.360179729	1.5	0.1
0.01	1	0.349244791000274	1	87	NA	93.6251407939999	0	0.16	0.7	1	85.4005443779997	85.749789169	"7"	4182.820700623	4180.360179729	1.5	0.1
0.01	1	0.341317509000419	1	87	NA	93.6251407939999	0	0.16	0.7	1	85.9847457389997	86.3260632480001	"7"	4182.820700623	4180.360179729	1.5	0.1
0.01	1	0.365429668000161	1	87	NA	93.6251407939999	0	0.16	0.7	1	86.5524767279999	86.917906396	"7"	4182.820700623	4180.360179729	1.5	0.1
0.01	1	0.406266851000055	1	87	NA	93.6251407939999	0	0.16	0.7	1	87.1534543369999	87.5597211879999	"7"	4182.820700623	4180.360179729	1.5	0.1
0.01	1	0.610998989000109	1	87	NA	93.6251407939999	0	0.16	0.7	1	87.7878431249997	88.3988421139998	"7"	4182.820700623	4180.360179729	1.5	0.1
0.01	1	0.84381937399985	1	87	NA	93.6251407939999	0	0.16	0.7	1	88.622492258	89.4663116319998	"7"	4182.820700623	4180.360179729	1.5	0.1
0.01	1	0.796344210999905	1	87	NA	93.6251407939999	0	0.16	0.7	1	89.6910714699998	90.4874156809997	"7"	4182.820700623	4180.360179729	1.5	0.1
0.01	1	1.10515601799989	1	87	NA	93.6251407939999	0	0.16	0.7	1	90.7260692589998	91.8312252769997	"7"	4182.820700623	4180.360179729	1.5	0.1
0.01	1	0.400950101000035	1	87	NA	93.6251407939999	0	0.16	0.7	1	92.0616552639999	92.4626053649999	"7"	4182.820700623	4180.360179729	1.5	0.1
0.01	1	0.437659176999659	1	87	NA	93.6251407939999	0	0.16	0.7	1	92.696046905	93.1337060819997	"7"	4182.820700623	4180.360179729	1.5	0.1
0.01	1	0.259828369999923	2	87	NA	93.6251407939999	0	0.16	0.7	1	93.3637876160001	93.623615986	"7"	4182.820700623	4180.360179729	1.5	0.1
0.01	1	0.409232546000112	1	6	98.240172887	NA	1	0	0.7	1	95.6845364349997	96.0937689809998	"8"	4182.820700623	4180.360179729	1.5	0.1
0.01	1	0.152469765000205	1	6	98.240172887	NA	1	0	0.7	1	96.3187742289997	96.4712439939999	"8"	4182.820700623	4180.360179729	1.5	0.1
0.01	1	0.208720143999926	1	6	98.240172887	NA	1	0	0.7	1	96.702797637	96.9115177809999	"8"	4182.820700623	4180.360179729	1.5	0.1
0.01	1	0.166120600999875	1	6	98.240172887	NA	1	0	0.7	1	97.1368587510001	97.302979352	"8"	4182.820700623	4180.360179729	1.5	0.1
0.01	1	0.173719206999976	1	6	98.240172887	NA	1	0	0.7	1	97.5375464979998	97.7112657049997	"8"	4182.820700623	4180.360179729	1.5	0.1
0.01	1	0.187576169999829	1	6	98.240172887	NA	1	0	0.7	1	97.9381491919999	98.1257253619997	"8"	4182.820700623	4180.360179729	1.5	0.1
0.01	1	0.00279696300003707	1	106	NA	103.329062164	0	0.06	0.76	1	100.292123384	100.294920347	"9"	4182.820700623	4180.360179729	1.5	0.1
0.01	1	0.177049438999802	1	106	NA	103.329062164	0	0.06	0.76	1	100.525839596	100.702889035	"9"	4182.820700623	4180.360179729	1.5	0.1
0.01	1	0.223450746999788	1	106	NA	103.329062164	0	0.06	0.76	1	100.926499006	101.149949753	"9"	4182.820700623	4180.360179729	1.5	0.1
0.01	1	0.213088616000277	1	106	NA	103.329062164	0	0.06	0.76	1	101.377287516	101.590376132	"9"	4182.820700623	4180.360179729	1.5	0.1
0.01	1	0.273984620999727	1	106	NA	103.329062164	0	0.06	0.76	1	101.828172771	102.102157392	"9"	4182.820700623	4180.360179729	1.5	0.1
0.01	1	0.564891775999968	1	106	NA	103.329062164	0	0.06	0.76	1	102.328872499	102.893764275	"9"	4182.820700623	4180.360179729	1.5	0.1
0.01	1	0.197114416000204	2	106	NA	103.329062164	0	0.06	0.76	1	103.130204882	103.327319298	"9"	4182.820700623	4180.360179729	1.5	0.1
0.01	1	0.0483066090000648	1	21	NA	108.776460272	0	0.09	0.85	1	105.367334896	105.415641505	"10"	4182.820700623	4180.360179729	1.5	0.1
0.01	1	0.0353903220002394	1	21	NA	108.776460272	0	0.09	0.85	1	105.651200815	105.686591137	"10"	4182.820700623	4180.360179729	1.5	0.1
0.01	1	0.00229474699972343	1	21	NA	108.776460272	0	0.09	0.85	1	105.918286525	105.920581272	"10"	4182.820700623	4180.360179729	1.5	0.1
0.01	1	0.00230306599996766	1	21	NA	108.776460272	0	0.09	0.85	1	106.152002481	106.154305547	"10"	4182.820700623	4180.360179729	1.5	0.1
0.01	1	0.0206838930002959	1	21	NA	108.776460272	0	0.09	0.85	1	106.385674377	106.40635827	"10"	4182.820700623	4180.360179729	1.5	0.1
0.01	1	0.00229531400009364	1	21	NA	108.776460272	0	0.09	0.85	1	106.636266415	106.638561729	"10"	4182.820700623	4180.360179729	1.5	0.1
0.01	1	0.45554520099995	1	21	NA	108.776460272	0	0.09	0.85	1	106.869999989	107.32554519	"10"	4182.820700623	4180.360179729	1.5	0.1
0.01	1	0.252727412999775	1	21	NA	108.776460272	0	0.09	0.85	1	107.554334682	107.807062095	"10"	4182.820700623	4180.360179729	1.5	0.1
0.01	1	0.328585974999896	1	21	NA	108.776460272	0	0.09	0.85	1	108.03865706	108.367243035	"10"	4182.820700623	4180.360179729	1.5	0.1
0.01	1	0.185406298000089	2	21	NA	108.776460272	0	0.09	0.85	1	108.589513793	108.774920091	"10"	4182.820700623	4180.360179729	1.5	0.1
0.01	1	0.372137858000315	1	19	NA	116.423241152	0	0.12	0.97	1	110.826503826	111.198641684	"11"	4182.820700623	4180.360179729	1.5	0.1
0.01	1	0.0516592270000729	1	19	NA	116.423241152	0	0.12	0.97	1	111.427682757	111.479341984	"11"	4182.820700623	4180.360179729	1.5	0.1
0.01	1	0.00221026200006236	1	19	NA	116.423241152	0	0.12	0.97	1	111.711383818	111.71359408	"11"	4182.820700623	4180.360179729	1.5	0.1
0.01	1	0.00257730200019068	1	19	NA	116.423241152	0	0.12	0.97	1	111.94510615	111.947683452	"11"	4182.820700623	4180.360179729	1.5	0.1
0.01	1	0.00220285600016723	1	19	NA	116.423241152	0	0.12	0.97	1	112.178743528	112.180946384	"11"	4182.820700623	4180.360179729	1.5	0.1
0.01	1	0.00219033900020804	1	19	NA	116.423241152	0	0.12	0.97	1	112.412503368	112.414693707	"11"	4182.820700623	4180.360179729	1.5	0.1
0.01	1	0.385420256000089	1	19	NA	116.423241152	0	0.12	0.97	1	112.646252537	113.031672793	"11"	4182.820700623	4180.360179729	1.5	0.1
0.01	1	0.270570865000082	1	19	NA	116.423241152	0	0.12	0.97	1	113.264010019	113.534580884	"11"	4182.820700623	4180.360179729	1.5	0.1
0.01	1	0.282744008999998	1	19	NA	116.423241152	0	0.12	0.97	1	113.764820844	114.047564853	"11"	4182.820700623	4180.360179729	1.5	0.1
0.01	1	0.260580977000245	1	19	NA	116.423241152	0	0.12	0.97	1	114.282421441	114.543002418	"11"	4182.820700623	4180.360179729	1.5	0.1
0.01	1	0.298445582000113	1	19	NA	116.423241152	0	0.12	0.97	1	114.766477854	115.064923436	"11"	4182.820700623	4180.360179729	1.5	0.1
0.01	1	0.892798991999825	1	19	NA	116.423241152	0	0.12	0.97	1	115.300668809	116.193467801	"11"	4182.820700623	4180.360179729	1.5	0.1
0.01	1	0.00238088400010383	2	19	NA	116.423241152	0	0.12	0.97	1	116.419358364	116.421739248	"11"	4182.820700623	4180.360179729	1.5	0.1
0.01	1	0.30995269199957	1	63	NA	122.496054851	0	0.1	1.07	1	118.456002198	118.76595489	"12"	4182.820700623	4180.360179729	1.5	0.1
0.01	1	0.152273908999632	1	63	NA	122.496054851	0	0.1	1.07	1	119.007019011	119.15929292	"12"	4182.820700623	4180.360179729	1.5	0.1
0.01	1	0.14415126799986	1	63	NA	122.496054851	0	0.1	1.07	1	119.390889426	119.535040694	"12"	4182.820700623	4180.360179729	1.5	0.1
0.01	1	0.151355730999967	1	63	NA	122.496054851	0	0.1	1.07	1	119.758329916	119.909685647	"12"	4182.820700623	4180.360179729	1.5	0.1
0.01	1	0.0729599080000298	1	63	NA	122.496054851	0	0.1	1.07	1	120.142353034	120.215312942	"12"	4182.820700623	4180.360179729	1.5	0.1
0.01	1	0.0842779609997706	1	63	NA	122.496054851	0	0.1	1.07	1	120.442666027	120.526943988	"12"	4182.820700623	4180.360179729	1.5	0.1
0.01	1	0.0302331249999952	1	63	NA	122.496054851	0	0.1	1.07	1	120.759900834	120.790133959	"12"	4182.820700623	4180.360179729	1.5	0.1
0.01	1	0.0597567069999059	1	63	NA	122.496054851	0	0.1	1.07	1	121.027120505	121.086877212	"12"	4182.820700623	4180.360179729	1.5	0.1
0.01	1	0.0709418650003499	1	63	NA	122.496054851	0	0.1	1.07	1	121.310926903	121.381868768	"12"	4182.820700623	4180.360179729	1.5	0.1
0.01	1	0.459048731999701	1	63	NA	122.496054851	0	0.1	1.07	1	121.611490625	122.070539357	"12"	4182.820700623	4180.360179729	1.5	0.1
0.01	1	0.19866791800041	2	63	NA	122.496054851	0	0.1	1.07	1	122.295864175	122.494532093	"12"	4182.820700623	4180.360179729	1.5	0.1
0.01	1	0.296230213999934	1	54	NA	129.737647204	0	0.12	1.19	1	124.549599065	124.845829279	"13"	4182.820700623	4180.360179729	1.5	0.1
0.01	1	0.0752590010001768	1	54	NA	129.737647204	0	0.12	1.19	1	125.083907078	125.159166079	"13"	4182.820700623	4180.360179729	1.5	0.1
0.01	1	0.0790803039999446	1	54	NA	129.737647204	0	0.12	1.19	1	125.384344196	125.4634245	"13"	4182.820700623	4180.360179729	1.5	0.1
0.01	1	0.00224838699978136	1	54	NA	129.737647204	0	0.12	1.19	1	125.7015738	125.703822187	"13"	4182.820700623	4180.360179729	1.5	0.1
0.01	1	0.00233182299962209	1	54	NA	129.737647204	0	0.12	1.19	1	125.935313808	125.937645631	"13"	4182.820700623	4180.360179729	1.5	0.1
0.01	1	0.0474037989997669	1	54	NA	129.737647204	0	0.12	1.19	1	126.16909626	126.216500059	"13"	4182.820700623	4180.360179729	1.5	0.1
0.01	1	0.0281574770001498	1	54	NA	129.737647204	0	0.12	1.19	1	126.452835236	126.480992713	"13"	4182.820700623	4180.360179729	1.5	0.1
0.01	1	0.382496157000332	1	54	NA	129.737647204	0	0.12	1.19	1	126.70318489	127.085681047	"13"	4182.820700623	4180.360179729	1.5	0.1
0.01	1	0.24607544599985	1	54	NA	129.737647204	0	0.12	1.19	1	127.320986662	127.567062108	"13"	4182.820700623	4180.360179729	1.5	0.1
0.01	1	0.345131638000112	1	54	NA	129.737647204	0	0.12	1.19	1	127.80504597	128.150177608	"13"	4182.820700623	4180.360179729	1.5	0.1
0.01	1	0.24162629500006	1	54	NA	129.737647204	0	0.12	1.19	1	128.38944798	128.631074275	"13"	4182.820700623	4180.360179729	1.5	0.1
0.01	1	0.470371706000151	1	54	NA	129.737647204	0	0.12	1.19	1	128.856815753	129.327187459	"13"	4182.820700623	4180.360179729	1.5	0.1
0.01	1	0.178021058000013	2	54	NA	129.737647204	0	0.12	1.19	1	129.558050904	129.736071962	"13"	4182.820700623	4180.360179729	1.5	0.1
0.01	1	0.251000020999982	1	103	NA	140.407118976	0	0.19	1.38	1	131.778521818	132.029521839	"14"	4182.820700623	4180.360179729	1.5	0.1
0.01	1	0.0811460210002224	1	103	NA	140.407118976	0	0.19	1.38	1	132.262584457	132.343730478	"14"	4182.820700623	4180.360179729	1.5	0.1
0.01	1	0.00229041100010363	1	103	NA	140.407118976	0	0.19	1.38	1	132.579831822	132.582122233	"14"	4182.820700623	4180.360179729	1.5	0.1
0.01	1	0.00891728300030081	1	103	NA	140.407118976	0	0.19	1.38	1	132.813545966	132.822463249	"14"	4182.820700623	4180.360179729	1.5	0.1
0.01	1	0.055434711000089	1	103	NA	140.407118976	0	0.19	1.38	1	133.047274847	133.102709558	"14"	4182.820700623	4180.360179729	1.5	0.1
0.01	1	0.00229886900024212	1	103	NA	140.407118976	0	0.19	1.38	1	133.33108557	133.333384439	"14"	4182.820700623	4180.360179729	1.5	0.1
0.01	1	0.00225713000008909	1	103	NA	140.407118976	0	0.19	1.38	1	133.564839799	133.567096929	"14"	4182.820700623	4180.360179729	1.5	0.1
0.01	1	0.193405927000185	1	103	NA	140.407118976	0	0.19	1.38	1	133.798558665	133.991964592	"14"	4182.820700623	4180.360179729	1.5	0.1
0.01	1	0.270789014000002	1	103	NA	140.407118976	0	0.19	1.38	1	134.215836419	134.486625433	"14"	4182.820700623	4180.360179729	1.5	0.1
0.01	1	0.226956528000301	1	103	NA	140.407118976	0	0.19	1.38	1	134.71676959	134.943726118	"14"	4182.820700623	4180.360179729	1.5	0.1
0.01	1	0.215180562000114	1	103	NA	140.407118976	0	0.19	1.38	1	135.184270605	135.399451167	"14"	4182.820700623	4180.360179729	1.5	0.1
0.01	1	0.180103656000028	1	103	NA	140.407118976	0	0.19	1.38	1	135.634904416	135.815008072	"14"	4182.820700623	4180.360179729	1.5	0.1
0.01	1	0.401329419000376	1	103	NA	140.407118976	0	0.19	1.38	1	136.052354542	136.453683961	"14"	4182.820700623	4180.360179729	1.5	0.1
0.01	1	0.26433660299972	1	103	NA	140.407118976	0	0.19	1.38	1	136.686755106	136.951091709	"14"	4182.820700623	4180.360179729	1.5	0.1
0.01	1	0.971017347999805	1	103	NA	140.407118976	0	0.19	1.38	1	137.187583168	138.158600516	"14"	4182.820700623	4180.360179729	1.5	0.1
0.01	1	0.249018448000243	1	103	NA	140.407118976	0	0.19	1.38	1	138.389511396	138.638529844	"14"	4182.820700623	4180.360179729	1.5	0.1
0.01	1	0.204606524000155	1	103	NA	140.407118976	0	0.19	1.38	1	138.873741924	139.078348448	"14"	4182.820700623	4180.360179729	1.5	0.1
0.01	1	0.28346351800019	1	103	NA	140.407118976	0	0.19	1.38	1	139.307849487	139.591313005	"14"	4182.820700623	4180.360179729	1.5	0.1
0.01	1	0.317123067000011	1	103	NA	140.407118976	0	0.19	1.38	1	139.825284915	140.142407982	"14"	4182.820700623	4180.360179729	1.5	0.1
0.01	1	0.0292238380002345	2	103	NA	140.407118976	0	0.19	1.38	1	140.376333421	140.405557259	"14"	4182.820700623	4180.360179729	1.5	0.1
0.01	1	0.00223775599988585	1	120	NA	153.897219267	0	0.25	1.63	1	142.463090722	142.465328478	"15"	4182.820700623	4180.360179729	1.5	0.1
0.01	1	0.0307594119999521	1	120	NA	153.897219267	0	0.25	1.63	1	142.696847812	142.727607224	"15"	4182.820700623	4180.360179729	1.5	0.1
0.01	1	0.0740454900001168	1	120	NA	153.897219267	0	0.25	1.63	1	142.964005718	143.038051208	"15"	4182.820700623	4180.360179729	1.5	0.1
0.01	1	0.0622704319998775	1	120	NA	153.897219267	0	0.25	1.63	1	143.26447478	143.326745212	"15"	4182.820700623	4180.360179729	1.5	0.1
0.01	1	0.0412952289998429	1	120	NA	153.897219267	0	0.25	1.63	1	143.548174686	143.589469915	"15"	4182.820700623	4180.360179729	1.5	0.1
0.01	1	0.0233999239999321	1	120	NA	153.897219267	0	0.25	1.63	1	143.815326205	143.838726129	"15"	4182.820700623	4180.360179729	1.5	0.1
0.01	1	0.00221248899970306	1	120	NA	153.897219267	0	0.25	1.63	1	144.06576201	144.067974499	"15"	4182.820700623	4180.360179729	1.5	0.1
0.01	1	0.00230641699999978	1	120	NA	153.897219267	0	0.25	1.63	1	144.299509631	144.301816048	"15"	4182.820700623	4180.360179729	1.5	0.1
0.01	1	0.00254313499999625	1	120	NA	153.897219267	0	0.25	1.63	1	144.533264437	144.535807572	"15"	4182.820700623	4180.360179729	1.5	0.1
0.01	1	0.0719846509996387	1	120	NA	153.897219267	0	0.25	1.63	1	144.767023889	144.83900854	"15"	4182.820700623	4180.360179729	1.5	0.1
0.01	1	0.0666136170002574	1	120	NA	153.897219267	0	0.25	1.63	1	145.067555676	145.134169293	"15"	4182.820700623	4180.360179729	1.5	0.1
0.01	1	0.0310076589998971	1	120	NA	153.897219267	0	0.25	1.63	1	145.367989308	145.398996967	"15"	4182.820700623	4180.360179729	1.5	0.1
0.01	1	0.0107694479997917	1	120	NA	153.897219267	0	0.25	1.63	1	145.635023017	145.645792465	"15"	4182.820700623	4180.360179729	1.5	0.1
0.01	1	0.0508071900003415	1	120	NA	153.897219267	0	0.25	1.63	1	145.868907674	145.919714864	"15"	4182.820700623	4180.360179729	1.5	0.1
0.01	1	0.00225650900028995	1	120	NA	153.897219267	0	0.25	1.63	1	146.152688388	146.154944897	"15"	4182.820700623	4180.360179729	1.5	0.1
0.01	1	0.236611979999907	1	120	NA	153.897219267	0	0.25	1.63	1	146.386317519	146.622929499	"15"	4182.820700623	4180.360179729	1.5	0.1
0.01	1	0.265150694000113	1	120	NA	153.897219267	0	0.25	1.63	1	146.853810325	147.118961019	"15"	4182.820700623	4180.360179729	1.5	0.1
0.01	1	0.243079973000022	1	120	NA	153.897219267	0	0.25	1.63	1	147.354634056	147.597714029	"15"	4182.820700623	4180.360179729	1.5	0.1
0.01	1	0.832161814999836	1	120	NA	153.897219267	0	0.25	1.63	1	147.82201447	148.654176285	"15"	4182.820700623	4180.360179729	1.5	0.1
0.01	1	0.996419811000123	1	120	NA	153.897219267	0	0.25	1.63	1	148.89078377	149.887203581	"15"	4182.820700623	4180.360179729	1.5	0.1
0.01	1	0.522297076000086	1	120	NA	153.897219267	0	0.25	1.63	1	150.109220116	150.631517192	"15"	4182.820700623	4180.360179729	1.5	0.1
0.01	1	0.474811695999961	1	120	NA	153.897219267	0	0.25	1.63	1	150.860586967	151.335398663	"15"	4182.820700623	4180.360179729	1.5	0.1
0.01	1	0.525258670999847	1	120	NA	153.897219267	0	0.25	1.63	1	151.561687308	152.086945979	"15"	4182.820700623	4180.360179729	1.5	0.1
0.01	1	0.501793774999896	1	120	NA	153.897219267	0	0.25	1.63	1	152.312972395	152.81476617	"15"	4182.820700623	4180.360179729	1.5	0.1
0.01	1	0.406768918000125	1	120	NA	153.897219267	0	0.25	1.63	1	153.047761037	153.454529955	"15"	4182.820700623	4180.360179729	1.5	0.1
0.01	1	0.213685177000116	2	120	NA	153.897219267	0	0.25	1.63	1	153.681939847	153.895625024	"15"	4182.820700623	4180.360179729	1.5	0.1
0.01	1	0.301649232000273	1	109	NA	163.384254578	0	0.24	1.87	1	155.935794233	156.237443465	"16"	4182.820700623	4180.360179729	1.5	0.1
0.01	1	0.0648024319998513	1	109	NA	163.384254578	0	0.24	1.87	1	156.469903275	156.534705707	"16"	4182.820700623	4180.360179729	1.5	0.1
0.01	1	0.00232341700029792	1	109	NA	163.384254578	0	0.24	1.87	1	156.77063003	156.772953447	"16"	4182.820700623	4180.360179729	1.5	0.1
0.01	1	0.00223963300004471	1	109	NA	163.384254578	0	0.24	1.87	1	157.004169715	157.006409348	"16"	4182.820700623	4180.360179729	1.5	0.1
0.01	1	0.00232227200012858	1	109	NA	163.384254578	0	0.24	1.87	1	157.23798498	157.240307252	"16"	4182.820700623	4180.360179729	1.5	0.1
0.01	1	0.0795958959997733	1	109	NA	163.384254578	0	0.24	1.87	1	157.471651209	157.551247105	"16"	4182.820700623	4180.360179729	1.5	0.1
0.01	1	0.00219729299988103	1	109	NA	163.384254578	0	0.24	1.87	1	157.788842206	157.791039499	"16"	4182.820700623	4180.360179729	1.5	0.1
0.01	1	0.00235973300004844	1	109	NA	163.384254578	0	0.24	1.87	1	158.022634892	158.024994625	"16"	4182.820700623	4180.360179729	1.5	0.1
0.01	1	0.00224593000029927	1	109	NA	163.384254578	0	0.24	1.87	1	158.256363285	158.258609215	"16"	4182.820700623	4180.360179729	1.5	0.1
0.01	1	0.012880191000022	1	109	NA	163.384254578	0	0.24	1.87	1	158.490005988	158.502886179	"16"	4182.820700623	4180.360179729	1.5	0.1
0.01	1	0.00224064900021403	1	109	NA	163.384254578	0	0.24	1.87	1	158.740454308	158.742694957	"16"	4182.820700623	4180.360179729	1.5	0.1
0.01	1	0.0875425029998951	1	109	NA	163.384254578	0	0.24	1.87	1	158.97417331	159.061715813	"16"	4182.820700623	4180.360179729	1.5	0.1
0.01	1	0.00233631099990816	1	109	NA	163.384254578	0	0.24	1.87	1	159.291436692	159.293773003	"16"	4182.820700623	4180.360179729	1.5	0.1
0.01	1	0.226063174000046	1	109	NA	163.384254578	0	0.24	1.87	1	159.525171611	159.751234785	"16"	4182.820700623	4180.360179729	1.5	0.1
0.01	1	0.00229021100039972	1	109	NA	163.384254578	0	0.24	1.87	1	159.975889786	159.978179997	"16"	4182.820700623	4180.360179729	1.5	0.1
0.01	1	0.00246868199974415	1	109	NA	163.384254578	0	0.24	1.87	1	160.209623787	160.212092469	"16"	4182.820700623	4180.360179729	1.5	0.1
0.01	1	0.00219756999968013	1	109	NA	163.384254578	0	0.24	1.87	1	160.443304845	160.445502415	"16"	4182.820700623	4180.360179729	1.5	0.1
0.01	1	0.00218499900029201	1	109	NA	163.384254578	0	0.24	1.87	1	160.677191135	160.679376134	"16"	4182.820700623	4180.360179729	1.5	0.1
0.01	1	0.0795857399998567	1	109	NA	163.384254578	0	0.24	1.87	1	160.910854852	160.990440592	"16"	4182.820700623	4180.360179729	1.5	0.1
0.01	1	0.00235238200002641	1	109	NA	163.384254578	0	0.24	1.87	1	161.227937918	161.2302903	"16"	4182.820700623	4180.360179729	1.5	0.1
0.01	1	0.00342222399967795	1	109	NA	163.384254578	0	0.24	1.87	1	161.461713188	161.465135412	"16"	4182.820700623	4180.360179729	1.5	0.1
0.01	1	0.159665857000164	1	109	NA	163.384254578	0	0.24	1.87	1	161.695375525	161.855041382	"16"	4182.820700623	4180.360179729	1.5	0.1
0.01	1	0.382461019000402	1	109	NA	163.384254578	0	0.24	1.87	1	162.079426096	162.461887115	"16"	4182.820700623	4180.360179729	1.5	0.1
0.01	1	0.22241601099995	1	109	NA	163.384254578	0	0.24	1.87	1	162.697060117	162.919476128	"16"	4182.820700623	4180.360179729	1.5	0.1
0.01	1	0.234785493000345	2	109	NA	163.384254578	0	0.24	1.87	1	163.147848374	163.382633867	"16"	4182.820700623	4180.360179729	1.5	0.1
0.01	1	0.283787472999848	1	71	NA	169.088751388	0	0.1	1.97	1	165.418393698	165.702181171	"17"	4182.820700623	4180.360179729	1.5	0.1
0.01	1	0.00225503799993021	1	71	NA	169.088751388	0	0.1	1.97	1	165.935852087	165.938107125	"17"	4182.820700623	4180.360179729	1.5	0.1
0.01	1	0.00227450300008059	1	71	NA	169.088751388	0	0.1	1.97	1	166.169612875	166.171887378	"17"	4182.820700623	4180.360179729	1.5	0.1
0.01	1	0.0913659039997583	1	71	NA	169.088751388	0	0.1	1.97	1	166.403362298	166.494728202	"17"	4182.820700623	4180.360179729	1.5	0.1
0.01	1	0.00227880000011282	1	71	NA	169.088751388	0	0.1	1.97	1	166.720602094	166.722880894	"17"	4182.820700623	4180.360179729	1.5	0.1
0.01	1	0.00223281799981123	1	71	NA	169.088751388	0	0.1	1.97	1	166.954222337	166.956455155	"17"	4182.820700623	4180.360179729	1.5	0.1
0.01	1	0.10732632600002	1	71	NA	169.088751388	0	0.1	1.97	1	167.187964915	167.295291241	"17"	4182.820700623	4180.360179729	1.5	0.1
0.01	1	0.00222476199996891	1	71	NA	169.088751388	0	0.1	1.97	1	167.521897576	167.524122338	"17"	4182.820700623	4180.360179729	1.5	0.1
0.01	1	0.435224340000332	1	71	NA	169.088751388	0	0.1	1.97	1	167.755630165	168.190854505	"17"	4182.820700623	4180.360179729	1.5	0.1
0.01	1	0.32801366700005	1	71	NA	169.088751388	0	0.1	1.97	1	168.423446218	168.751459885	"17"	4182.820700623	4180.360179729	1.5	0.1
0.01	1	0.0960785550000764	2	71	NA	169.088751388	0	0.1	1.97	1	168.991056675	169.08713523	"17"	4182.820700623	4180.360179729	1.5	0.1
0.01	1	0.270895153000311	1	96	NA	176.488849918	0	0.16	2.13	1	171.128094172	171.398989325	"18"	4182.820700623	4180.360179729	1.5	0.1
0.01	1	0.00219218799975351	1	96	NA	176.488849918	0	0.16	2.13	1	171.628956429	171.631148617	"18"	4182.820700623	4180.360179729	1.5	0.1
0.01	1	0.00234199699980309	1	96	NA	176.488849918	0	0.16	2.13	1	171.862595062	171.864937059	"18"	4182.820700623	4180.360179729	1.5	0.1
0.01	1	0.00278507900020486	1	96	NA	176.488849918	0	0.16	2.13	1	172.096251566	172.099036645	"18"	4182.820700623	4180.360179729	1.5	0.1
0.01	1	0.0855691019996812	1	96	NA	176.488849918	0	0.16	2.13	1	172.33001513	172.415584232	"18"	4182.820700623	4180.360179729	1.5	0.1
0.01	1	0.0022357570001077	1	96	NA	176.488849918	0	0.16	2.13	1	172.647228439	172.649464196	"18"	4182.820700623	4180.360179729	1.5	0.1
0.01	1	0.00352026700011265	1	96	NA	176.488849918	0	0.16	2.13	1	172.881014378	172.884534645	"18"	4182.820700623	4180.360179729	1.5	0.1
0.01	1	0.002179989999604	1	96	NA	176.488849918	0	0.16	2.13	1	173.114684306	173.116864296	"18"	4182.820700623	4180.360179729	1.5	0.1
0.01	1	0.0983802420000757	1	96	NA	176.488849918	0	0.16	2.13	1	173.348348772	173.446729014	"18"	4182.820700623	4180.360179729	1.5	0.1
0.01	1	0.00219763499990222	1	96	NA	176.488849918	0	0.16	2.13	1	173.682189704	173.684387339	"18"	4182.820700623	4180.360179729	1.5	0.1
0.01	1	0.00229858200009403	1	96	NA	176.488849918	0	0.16	2.13	1	173.916089592	173.918388174	"18"	4182.820700623	4180.360179729	1.5	0.1
0.01	1	0.00231480999991618	1	96	NA	176.488849918	0	0.16	2.13	1	174.149702525	174.152017335	"18"	4182.820700623	4180.360179729	1.5	0.1
0.01	1	0.455093890000171	1	96	NA	176.488849918	0	0.16	2.13	1	174.383579317	174.838673207	"18"	4182.820700623	4180.360179729	1.5	0.1
0.01	1	0.169926047000445	1	96	NA	176.488849918	0	0.16	2.13	1	175.067893598	175.237819645	"18"	4182.820700623	4180.360179729	1.5	0.1
0.01	1	0.201121088999571	1	96	NA	176.488849918	0	0.16	2.13	1	175.468677312	175.669798401	"18"	4182.820700623	4180.360179729	1.5	0.1
0.01	1	0.247330789999978	1	96	NA	176.488849918	0	0.16	2.13	1	175.902650015	176.149980805	"18"	4182.820700623	4180.360179729	1.5	0.1
0.01	1	0.100326603999747	2	96	NA	176.488849918	0	0.16	2.13	1	176.386924175	176.487250779	"18"	4182.820700623	4180.360179729	1.5	0.1
0.01	1	0.241000041000007	1	91	NA	187.712298942	0	0.27	2.4	1	178.54045092	178.781450961	"19"	4182.820700623	4180.360179729	1.5	0.1
0.01	1	0.00234894099958183	1	91	NA	187.712298942	0	0.27	2.4	1	179.007982485	179.010331426	"19"	4182.820700623	4180.360179729	1.5	0.1
0.01	1	0.00345839599958708	1	91	NA	187.712298942	0	0.27	2.4	1	179.241665912	179.245124308	"19"	4182.820700623	4180.360179729	1.5	0.1
0.01	1	0.0669661960000667	1	91	NA	187.712298942	0	0.27	2.4	1	179.475400285	179.542366481	"19"	4182.820700623	4180.360179729	1.5	0.1
0.01	1	0.00272787700032495	1	91	NA	187.712298942	0	0.27	2.4	1	179.775952258	179.778680135	"19"	4182.820700623	4180.360179729	1.5	0.1
0.01	1	0.00220475799960695	1	91	NA	187.712298942	0	0.27	2.4	1	180.009559672	180.01176443	"19"	4182.820700623	4180.360179729	1.5	0.1
0.01	1	0.00216229499983456	1	91	NA	187.712298942	0	0.27	2.4	1	180.243326949	180.245489244	"19"	4182.820700623	4180.360179729	1.5	0.1
0.01	1	0.00218908700026077	1	91	NA	187.712298942	0	0.27	2.4	1	180.477006397	180.479195484	"19"	4182.820700623	4180.360179729	1.5	0.1
0.01	1	0.0872782999995252	1	91	NA	187.712298942	0	0.27	2.4	1	180.710736776	180.798015076	"19"	4182.820700623	4180.360179729	1.5	0.1
0.01	1	0.00454857000022457	1	91	NA	187.712298942	0	0.27	2.4	1	181.02802354	181.03257211	"19"	4182.820700623	4180.360179729	1.5	0.1
0.01	1	0.00221903100009513	1	91	NA	187.712298942	0	0.27	2.4	1	181.261695727	181.263914758	"19"	4182.820700623	4180.360179729	1.5	0.1
0.01	1	0.00209556600020733	1	91	NA	187.712298942	0	0.27	2.4	1	181.495425179	181.497520745	"19"	4182.820700623	4180.360179729	1.5	0.1
0.01	1	0.00309231200026261	1	91	NA	187.712298942	0	0.27	2.4	1	181.72921591	181.732308222	"19"	4182.820700623	4180.360179729	1.5	0.1
0.01	1	0.0833173159999205	1	91	NA	187.712298942	0	0.27	2.4	1	181.962898281	182.046215597	"19"	4182.820700623	4180.360179729	1.5	0.1
0.01	1	0.00226047599971935	1	91	NA	187.712298942	0	0.27	2.4	1	182.280142054	182.28240253	"19"	4182.820700623	4180.360179729	1.5	0.1
0.01	1	0.325010986999587	1	91	NA	187.712298942	0	0.27	2.4	1	182.513704678	182.838715665	"19"	4182.820700623	4180.360179729	1.5	0.1
0.01	1	0.205782553000063	1	91	NA	187.712298942	0	0.27	2.4	1	183.064731648	183.270514201	"19"	4182.820700623	4180.360179729	1.5	0.1
0.01	1	0.12394921699979	1	91	NA	187.712298942	0	0.27	2.4	1	183.498786716	183.622735933	"19"	4182.820700623	4180.360179729	1.5	0.1
0.01	1	0.253373348999958	1	91	NA	187.712298942	0	0.27	2.4	1	183.84943397	184.102807319	"19"	4182.820700623	4180.360179729	1.5	0.1
0.01	1	0.368027607999466	1	91	NA	187.712298942	0	0.27	2.4	1	184.333501326	184.701528934	"19"	4182.820700623	4180.360179729	1.5	0.1
0.01	1	0.240606005999325	1	91	NA	187.712298942	0	0.27	2.4	1	184.934705198	185.175311204	"19"	4182.820700623	4180.360179729	1.5	0.1
0.01	1	0.164560244000313	1	91	NA	187.712298942	0	0.27	2.4	1	185.402069074999	185.566629319	"19"	4182.820700623	4180.360179729	1.5	0.1
0.01	1	0.139629917999628	1	91	NA	187.712298942	0	0.27	2.4	1	185.802605171	185.942235089	"19"	4182.820700623	4180.360179729	1.5	0.1
0.01	1	0.163920954999412	1	91	NA	187.712298942	0	0.27	2.4	1	186.1698783	186.333799255	"19"	4182.820700623	4180.360179729	1.5	0.1
0.01	1	0.164558823999869	1	91	NA	187.712298942	0	0.27	2.4	1	186.570782294	186.735341118	"19"	4182.820700623	4180.360179729	1.5	0.1
0.01	1	0.156074804000127	1	91	NA	187.712298942	0	0.27	2.4	1	186.971291215	187.127366019	"19"	4182.820700623	4180.360179729	1.5	0.1
0.01	1	0.043348985999728	1	91	NA	187.712298942	0	0.27	2.4	1	187.355272173	187.398621159	"19"	4182.820700623	4180.360179729	1.5	0.1
0.01	1	0.0883712949998881	2	91	NA	187.712298942	0	0.27	2.4	1	187.622356465	187.71072776	"19"	4182.820700623	4180.360179729	1.5	0.1
0.01	1	0.286485109999376	1	5	191.181409127	NA	1	0	2.4	1	189.759289425	190.045774535	"20"	4182.820700623	4180.360179729	1.5	0.1
0.01	1	0.00225405400033196	1	5	191.181409127	NA	1	0	2.4	1	190.276836571	190.279090625	"20"	4182.820700623	4180.360179729	1.5	0.1
0.01	1	0.00274252700000943	1	5	191.181409127	NA	1	0	2.4	1	190.510535255	190.513277782	"20"	4182.820700623	4180.360179729	1.5	0.1
0.01	1	0.00217348800015316	1	5	191.181409127	NA	1	0	2.4	1	190.744418208	190.746591696	"20"	4182.820700623	4180.360179729	1.5	0.1
0.01	1	0.085587827999916	1	5	191.181409127	NA	1	0	2.4	1	190.978007447	191.063595275	"20"	4182.820700623	4180.360179729	1.5	0.1
0.01	1	0.0023081050003384	1	123	NA	196.123820394	0	0.11	2.51	1	193.215166616	193.217474721	"21"	4182.820700623	4180.360179729	1.5	0.1
0.01	1	0.00232143799985352	1	123	NA	196.123820394	0	0.11	2.51	1	193.448880791	193.451202229	"21"	4182.820700623	4180.360179729	1.5	0.1
0.01	1	0.00234392499987734	1	123	NA	196.123820394	0	0.11	2.51	1	193.682521435	193.68486536	"21"	4182.820700623	4180.360179729	1.5	0.1
0.01	1	0.0988877589998083	1	123	NA	196.123820394	0	0.11	2.51	1	193.916260226	194.015147985	"21"	4182.820700623	4180.360179729	1.5	0.1
0.01	1	0.00232815400067921	1	123	NA	196.123820394	0	0.11	2.51	1	194.250191392	194.252519546	"21"	4182.820700623	4180.360179729	1.5	0.1
0.01	1	0.107971280000129	1	123	NA	196.123820394	0	0.11	2.51	1	194.48390027	194.59187155	"21"	4182.820700623	4180.360179729	1.5	0.1
0.01	1	0.00233144800040463	1	123	NA	196.123820394	0	0.11	2.51	1	194.817900053999	194.820231502	"21"	4182.820700623	4180.360179729	1.5	0.1
0.01	1	0.0740209840005264	1	123	NA	196.123820394	0	0.11	2.51	1	195.051526738	195.125547722	"21"	4182.820700623	4180.360179729	1.5	0.1
0.01	1	0.00209836399972119	1	123	NA	196.123820394	0	0.11	2.51	1	195.352191854	195.354290218	"21"	4182.820700623	4180.360179729	1.5	0.1
0.01	1	0.00259230800020305	1	123	NA	196.123820394	0	0.11	2.51	1	195.585763026	195.588355334	"21"	4182.820700623	4180.360179729	1.5	0.1
0.01	1	0.0750247230007517	1	123	NA	196.123820394	0	0.11	2.51	1	195.819553976999	195.8945787	"21"	4182.820700623	4180.360179729	1.5	0.1
0.01	1	0.00207930800024769	2	123	NA	196.123820394	0	0.11	2.51	1	196.12013247	196.122211778	"21"	4182.820700623	4180.360179729	1.5	0.1
0.01	1	0.256391210999936	1	81	NA	203.967344051	0	0.21	2.72	1	198.173401502	198.429792713	"22"	4182.820700623	4180.360179729	1.5	0.1
0.01	1	0.00229854699955467	1	81	NA	203.967344051	0	0.21	2.72	1	198.657545258	198.659843805	"22"	4182.820700623	4180.360179729	1.5	0.1
0.01	1	0.00213290400006372	1	81	NA	203.967344051	0	0.21	2.72	1	198.891325224999	198.893458129	"22"	4182.820700623	4180.360179729	1.5	0.1
0.01	1	0.0838203969997267	1	81	NA	203.967344051	0	0.21	2.72	1	199.125147592	199.208967989	"22"	4182.820700623	4180.360179729	1.5	0.1
0.01	1	0.00217065800006822	1	81	NA	203.967344051	0	0.21	2.72	1	199.442313748	199.444484406	"22"	4182.820700623	4180.360179729	1.5	0.1
0.01	1	0.00229509300061181	1	81	NA	203.967344051	0	0.21	2.72	1	199.675931192	199.678226285	"22"	4182.820700623	4180.360179729	1.5	0.1
0.01	1	0.0492923669999072	1	81	NA	203.967344051	0	0.21	2.72	1	199.909718041	199.959010408	"22"	4182.820700623	4180.360179729	1.5	0.1
0.01	1	0.00227807000010216	1	81	NA	203.967344051	0	0.21	2.72	1	200.193544614	200.195822684	"22"	4182.820700623	4180.360179729	1.5	0.1
0.01	1	0.0999949600000036	1	81	NA	203.967344051	0	0.21	2.72	1	200.427202085	200.527197045	"22"	4182.820700623	4180.360179729	1.5	0.1
0.01	1	0.0023058780006977	1	81	NA	203.967344051	0	0.21	2.72	1	200.761169857999	200.763475736	"22"	4182.820700623	4180.360179729	1.5	0.1
0.01	1	0.00236855999992258	1	81	NA	203.967344051	0	0.21	2.72	1	200.994815104	200.997183664	"22"	4182.820700623	4180.360179729	1.5	0.1
0.01	1	0.0583728689998679	1	81	NA	203.967344051	0	0.21	2.72	1	201.228567255	201.286940124	"22"	4182.820700623	4180.360179729	1.5	0.1
0.01	1	0.00216525700034254	1	81	NA	203.967344051	0	0.21	2.72	1	201.512472226	201.514637483	"22"	4182.820700623	4180.360179729	1.5	0.1
0.01	1	0.00309838600060175	1	81	NA	203.967344051	0	0.21	2.72	1	201.746259697999	201.749358084	"22"	4182.820700623	4180.360179729	1.5	0.1
0.01	1	0.0746390270005577	1	81	NA	203.967344051	0	0.21	2.72	1	201.979883685	202.054522712	"22"	4182.820700623	4180.360179729	1.5	0.1
0.01	1	0.0023223850002978	1	81	NA	203.967344051	0	0.21	2.72	1	202.280379667	202.282702052	"22"	4182.820700623	4180.360179729	1.5	0.1
0.01	1	0.13331517000006	1	81	NA	203.967344051	0	0.21	2.72	1	202.514109109	202.647424279	"22"	4182.820700623	4180.360179729	1.5	0.1
0.01	1	0.0123325769991425	1	81	NA	203.967344051	0	0.21	2.72	1	202.881394875	202.893727451999	"22"	4182.820700623	4180.360179729	1.5	0.1
0.01	1	0.00221475799935433	1	81	NA	203.967344051	0	0.21	2.72	1	203.131807597	203.134022355	"22"	4182.820700623	4180.360179729	1.5	0.1
0.01	1	0.0023375370001304	1	81	NA	203.967344051	0	0.21	2.72	1	203.365541495	203.367879032	"22"	4182.820700623	4180.360179729	1.5	0.1
0.01	1	0.0803271739996489	1	81	NA	203.967344051	0	0.21	2.72	1	203.599200144	203.679527318	"22"	4182.820700623	4180.360179729	1.5	0.1
0.01	1	0.0492580360005377	2	81	NA	203.967344051	0	0.21	2.72	1	203.916413299999	203.965671336	"22"	4182.820700623	4180.360179729	1.5	0.1
0.01	1	0.282220646000496	1	117	NA	211.88565952	0	0.19	2.91	1	206.020019463	206.302240109	"23"	4182.820700623	4180.360179729	1.5	0.1
0.01	1	0.0022218559997782	1	117	NA	211.88565952	0	0.19	2.91	1	206.537558162	206.539780018	"23"	4182.820700623	4180.360179729	1.5	0.1
0.01	1	0.00214457600031892	1	117	NA	211.88565952	0	0.19	2.91	1	206.771196469	206.773341045	"23"	4182.820700623	4180.360179729	1.5	0.1
0.01	1	0.0734640569999101	1	117	NA	211.88565952	0	0.19	2.91	1	207.004935493	207.07839955	"23"	4182.820700623	4180.360179729	1.5	0.1
0.01	1	0.00214980300006573	1	117	NA	211.88565952	0	0.19	2.91	1	207.305407365	207.307557168	"23"	4182.820700623	4180.360179729	1.5	0.1
0.01	1	0.0988587269994241	1	117	NA	211.88565952	0	0.19	2.91	1	207.539211725	207.638070452	"23"	4182.820700623	4180.360179729	1.5	0.1
0.01	1	0.0021992499996486	1	117	NA	211.88565952	0	0.19	2.91	1	207.873041518	207.875240767999	"23"	4182.820700623	4180.360179729	1.5	0.1
0.01	1	0.00231025999983103	1	117	NA	211.88565952	0	0.19	2.91	1	208.106880587	208.109190847	"23"	4182.820700623	4180.360179729	1.5	0.1
0.01	1	0.0576602860001003	1	117	NA	211.88565952	0	0.19	2.91	1	208.340544959	208.398205245	"23"	4182.820700623	4180.360179729	1.5	0.1
0.01	1	0.00218125900028099	1	117	NA	211.88565952	0	0.19	2.91	1	208.624335898	208.626517157	"23"	4182.820700623	4180.360179729	1.5	0.1
0.01	1	0.00216746500063891	1	117	NA	211.88565952	0	0.19	2.91	1	208.858139081	208.860306546	"23"	4182.820700623	4180.360179729	1.5	0.1
0.01	1	0.0904863420000765	1	117	NA	211.88565952	0	0.19	2.91	1	209.091833719	209.182320061	"23"	4182.820700623	4180.360179729	1.5	0.1
0.01	1	0.00230507400010538	1	117	NA	211.88565952	0	0.19	2.91	1	209.409094899	209.411399973	"23"	4182.820700623	4180.360179729	1.5	0.1
0.01	1	0.00232690300072136	1	117	NA	211.88565952	0	0.19	2.91	1	209.642730652999	209.645057556	"23"	4182.820700623	4180.360179729	1.5	0.1
0.01	1	0.0588382830001137	1	117	NA	211.88565952	0	0.19	2.91	1	209.876469702	209.935307985	"23"	4182.820700623	4180.360179729	1.5	0.1
0.01	1	0.487102106999373	1	117	NA	211.88565952	0	0.19	2.91	1	210.160246288	210.647348394999	"23"	4182.820700623	4180.360179729	1.5	0.1
0.01	1	0.215477286999885	1	117	NA	211.88565952	0	0.19	2.91	1	210.878101599	211.093578886	"23"	4182.820700623	4180.360179729	1.5	0.1
0.01	1	0.0931339529997786	1	117	NA	211.88565952	0	0.19	2.91	1	211.329042952	211.422176905	"23"	4182.820700623	4180.360179729	1.5	0.1
0.01	1	0.00216551199991954	1	117	NA	211.88565952	0	0.19	2.91	1	211.646231107	211.648396619	"23"	4182.820700623	4180.360179729	1.5	0.1
0.01	1	0.00393762300063827	2	117	NA	211.88565952	0	0.19	2.91	1	211.879909107	211.88384673	"23"	4182.820700623	4180.360179729	1.5	0.1
0.01	1	0.129263324000021	1	84	NA	221.58478797	0	0.24	3.15	1	213.933380034	214.062643358	"24"	4182.820700623	4180.360179729	1.5	0.1
0.01	1	0.00236473699987982	1	84	NA	221.58478797	0	0.24	3.15	1	214.300532127	214.302896864	"24"	4182.820700623	4180.360179729	1.5	0.1
0.01	1	0.00222144700001081	1	84	NA	221.58478797	0	0.24	3.15	1	214.534281661	214.536503108	"24"	4182.820700623	4180.360179729	1.5	0.1
0.01	1	0.0854064659997675	1	84	NA	221.58478797	0	0.24	3.15	1	214.768101488	214.853507954	"24"	4182.820700623	4180.360179729	1.5	0.1
0.01	1	0.00212258299961832	1	84	NA	221.58478797	0	0.24	3.15	1	215.085256476	215.087379058999	"24"	4182.820700623	4180.360179729	1.5	0.1
0.01	1	0.0792965149994416	1	84	NA	221.58478797	0	0.24	3.15	1	215.318994405	215.398290919999	"24"	4182.820700623	4180.360179729	1.5	0.1
0.01	1	0.0020947070006514	1	84	NA	221.58478797	0	0.24	3.15	1	215.636208716	215.638303423	"24"	4182.820700623	4180.360179729	1.5	0.1
0.01	1	0.0640925380002955	1	84	NA	221.58478797	0	0.24	3.15	1	215.87002717	215.934119708	"24"	4182.820700623	4180.360179729	1.5	0.1
0.01	1	0.00472046999948361	1	84	NA	221.58478797	0	0.24	3.15	1	216.170517665	216.175238135	"24"	4182.820700623	4180.360179729	1.5	0.1
0.01	1	0.0744050470002549	1	84	NA	221.58478797	0	0.24	3.15	1	216.404190495	216.478595542	"24"	4182.820700623	4180.360179729	1.5	0.1
0.01	1	0.0047912419995555	1	84	NA	221.58478797	0	0.24	3.15	1	216.704822435	216.709613677	"24"	4182.820700623	4180.360179729	1.5	0.1
0.01	1	0.075759499999549	1	84	NA	221.58478797	0	0.24	3.15	1	216.938421762	217.014181262	"24"	4182.820700623	4180.360179729	1.5	0.1
0.01	1	0.00209360700046091	1	84	NA	221.58478797	0	0.24	3.15	1	217.239032922	217.241126529	"24"	4182.820700623	4180.360179729	1.5	0.1
0.01	1	0.00223501399977977	1	84	NA	221.58478797	0	0.24	3.15	1	217.472692974	217.474927988	"24"	4182.820700623	4180.360179729	1.5	0.1
0.01	1	0.0679155990001163	1	84	NA	221.58478797	0	0.24	3.15	1	217.706210718	217.774126317	"24"	4182.820700623	4180.360179729	1.5	0.1
0.01	1	0.00215432400000282	1	84	NA	221.58478797	0	0.24	3.15	1	218.006805178	218.008959502	"24"	4182.820700623	4180.360179729	1.5	0.1
0.01	1	0.469055565000417	1	84	NA	221.58478797	0	0.24	3.15	1	218.240558383	218.709613948	"24"	4182.820700623	4180.360179729	1.5	0.1
0.01	1	0.249740975999885	1	84	NA	221.58478797	0	0.24	3.15	1	218.941698545	219.191439521	"24"	4182.820700623	4180.360179729	1.5	0.1
0.01	1	0.219852602000174	1	84	NA	221.58478797	0	0.24	3.15	1	219.426005849999	219.645858452	"24"	4182.820700623	4180.360179729	1.5	0.1
0.01	1	0.00229345699972328	1	84	NA	221.58478797	0	0.24	3.15	1	219.876587459	219.878880916	"24"	4182.820700623	4180.360179729	1.5	0.1
0.01	1	0.00235033900025883	1	84	NA	221.58478797	0	0.24	3.15	1	220.110485566	220.112835905	"24"	4182.820700623	4180.360179729	1.5	0.1
0.01	1	0.295347442999628	1	84	NA	221.58478797	0	0.24	3.15	1	220.344094105	220.639441548	"24"	4182.820700623	4180.360179729	1.5	0.1
0.01	1	0.17770965300042	1	84	NA	221.58478797	0	0.24	3.15	1	220.861551135	221.039260788	"24"	4182.820700623	4180.360179729	1.5	0.1
0.01	1	0.0491278189992954	1	84	NA	221.58478797	0	0.24	3.15	1	221.262441232	221.311569050999	"24"	4182.820700623	4180.360179729	1.5	0.1
0.01	1	0.0371304929994949	2	84	NA	221.58478797	0	0.24	3.15	1	221.546096971	221.583227464	"24"	4182.820700623	4180.360179729	1.5	0.1
0.01	1	0.389977414999521	1	22	229.978908688	NA	1	0	3.15	1	223.61635628	224.006333695	"25"	4182.820700623	4180.360179729	1.5	0.1
0.01	1	0.00221537000015815	1	22	229.978908688	NA	1	0	3.15	1	224.23387441	224.23608978	"25"	4182.820700623	4180.360179729	1.5	0.1
0.01	1	0.00600203800058807	1	22	229.978908688	NA	1	0	3.15	1	224.467745469999	224.473747508	"25"	4182.820700623	4180.360179729	1.5	0.1
0.01	1	0.0982443510001758	1	22	229.978908688	NA	1	0	3.15	1	224.701432948	224.799677299	"25"	4182.820700623	4180.360179729	1.5	0.1
0.01	1	0.00214440399940941	1	22	229.978908688	NA	1	0	3.15	1	225.03536056	225.037504964	"25"	4182.820700623	4180.360179729	1.5	0.1
0.01	1	0.0965743529995962	1	22	229.978908688	NA	1	0	3.15	1	225.269034537	225.36560889	"25"	4182.820700623	4180.360179729	1.5	0.1
0.01	1	0.0047487120000369	1	22	229.978908688	NA	1	0	3.15	1	225.60309494	225.607843652	"25"	4182.820700623	4180.360179729	1.5	0.1
0.01	1	0.105401257999802	1	22	229.978908688	NA	1	0	3.15	1	225.836636017	225.942037275	"25"	4182.820700623	4180.360179729	1.5	0.1
0.01	1	0.00207660900014162	1	22	229.978908688	NA	1	0	3.15	1	226.170645454999	226.172722064	"25"	4182.820700623	4180.360179729	1.5	0.1
0.01	1	0.00404844500008039	1	22	229.978908688	NA	1	0	3.15	1	226.404314885	226.40836333	"25"	4182.820700623	4180.360179729	1.5	0.1
0.01	1	0.0488136799995118	1	22	229.978908688	NA	1	0	3.15	1	226.63811677	226.68693045	"25"	4182.820700623	4180.360179729	1.5	0.1
0.01	1	0.00407821599947056	1	22	229.978908688	NA	1	0	3.15	1	226.9218902	226.925968416	"25"	4182.820700623	4180.360179729	1.5	0.1
0.01	1	0.0509465180002735	1	22	229.978908688	NA	1	0	3.15	1	227.155659607	227.206606125	"25"	4182.820700623	4180.360179729	1.5	0.1
0.01	1	0.126891679999972	1	22	229.978908688	NA	1	0	3.15	1	227.439457115	227.566348795	"25"	4182.820700623	4180.360179729	1.5	0.1
0.01	1	0.00404339299984713	1	22	229.978908688	NA	1	0	3.15	1	227.790027125	227.794070518	"25"	4182.820700623	4180.360179729	1.5	0.1
0.01	1	0.0797304260004239	1	22	229.978908688	NA	1	0	3.15	1	228.02372909	228.103459516	"25"	4182.820700623	4180.360179729	1.5	0.1
0.01	1	0.104534553999656	1	22	229.978908688	NA	1	0	3.15	1	228.340929315	228.445463868999	"25"	4182.820700623	4180.360179729	1.5	0.1
0.01	1	0.0988491859998248	1	22	229.978908688	NA	1	0	3.15	1	228.691377159	228.790226345	"25"	4182.820700623	4180.360179729	1.5	0.1
0.01	1	0.00456882199978281	1	22	229.978908688	NA	1	0	3.15	1	229.025512235	229.030081057	"25"	4182.820700623	4180.360179729	1.5	0.1
0.01	1	0.0826878859998033	1	22	229.978908688	NA	1	0	3.15	1	229.259141852	229.341829737999	"25"	4182.820700623	4180.360179729	1.5	0.1
0.01	1	0.00477684999987105	1	22	229.978908688	NA	1	0	3.15	1	229.57645015	229.581227	"25"	4182.820700623	4180.360179729	1.5	0.1
0.01	1	0.0594387099999949	1	22	229.978908688	NA	1	0	3.15	1	229.81000846	229.86944717	"25"	4182.820700623	4180.360179729	1.5	0.1
0.01	1	0.0562557690000176	1	36	NA	234.144472503	0	0.08	3.23	1	232.030461837	232.086717606	"26"	4182.820700623	4180.360179729	1.5	0.1
0.01	1	0.00334263799959444	1	36	NA	234.144472503	0	0.08	3.23	1	232.31424015	232.317582788	"26"	4182.820700623	4180.360179729	1.5	0.1
0.01	1	0.00462166799934494	1	36	NA	234.144472503	0	0.08	3.23	1	232.548117002	232.55273867	"26"	4182.820700623	4180.360179729	1.5	0.1
0.01	1	0.00216694099981396	1	36	NA	234.144472503	0	0.08	3.23	1	232.781781595	232.783948536	"26"	4182.820700623	4180.360179729	1.5	0.1
0.01	1	0.0624429110002893	1	36	NA	234.144472503	0	0.08	3.23	1	233.015460027	233.077902938	"26"	4182.820700623	4180.360179729	1.5	0.1
0.01	1	0.00463307300015003	1	36	NA	234.144472503	0	0.08	3.23	1	233.299307718999	233.303940792	"26"	4182.820700623	4180.360179729	1.5	0.1
0.01	1	0.00943536900012987	1	36	NA	234.144472503	0	0.08	3.23	1	233.533040272	233.542475641	"26"	4182.820700623	4180.360179729	1.5	0.1
0.01	1	0.024094931000036	1	36	NA	234.144472503	0	0.08	3.23	1	233.766652607	233.790747538	"26"	4182.820700623	4180.360179729	1.5	0.1
0.01	1	0.12575169899992	2	36	NA	234.144472503	0	0.08	3.23	1	234.017157103	234.142908802	"26"	4182.820700623	4180.360179729	1.5	0.1
0.01	1	0.00230123499932233	1	124	NA	240.840721864	0	0.17	3.4	1	236.187370515	236.189671749999	"27"	4182.820700623	4180.360179729	1.5	0.1
0.01	1	0.00217867900028068	1	124	NA	240.840721864	0	0.17	3.4	1	236.421237756	236.423416435	"27"	4182.820700623	4180.360179729	1.5	0.1
0.01	1	0.0957322399999612	1	124	NA	240.840721864	0	0.17	3.4	1	236.654903055	236.750635294999	"27"	4182.820700623	4180.360179729	1.5	0.1
0.01	1	0.00462028700076189	1	124	NA	240.840721864	0	0.17	3.4	1	236.98876677	236.993387057	"27"	4182.820700623	4180.360179729	1.5	0.1
0.01	1	0.0797090939995542	1	124	NA	240.840721864	0	0.17	3.4	1	237.22255019	237.302259284	"27"	4182.820700623	4180.360179729	1.5	0.1
0.01	1	0.00463599999966391	1	124	NA	240.840721864	0	0.17	3.4	1	237.53982997	237.54446597	"27"	4182.820700623	4180.360179729	1.5	0.1
0.01	1	0.0725972370000818	1	124	NA	240.840721864	0	0.17	3.4	1	237.773445095	237.846042332	"27"	4182.820700623	4180.360179729	1.5	0.1
0.01	1	0.00213962700036063	1	124	NA	240.840721864	0	0.17	3.4	1	238.073936954	238.076076581	"27"	4182.820700623	4180.360179729	1.5	0.1
0.01	1	0.0917250719994627	1	124	NA	240.840721864	0	0.17	3.4	1	238.307648766	238.399373838	"27"	4182.820700623	4180.360179729	1.5	0.1
0.01	1	0.00347123600022314	1	124	NA	240.840721864	0	0.17	3.4	1	238.624855218	238.628326454	"27"	4182.820700623	4180.360179729	1.5	0.1
0.01	1	0.0840517309998177	1	124	NA	240.840721864	0	0.17	3.4	1	238.858701598	238.942753329	"27"	4182.820700623	4180.360179729	1.5	0.1
0.01	1	0.00216219300000375	1	124	NA	240.840721864	0	0.17	3.4	1	239.175854186	239.178016379	"27"	4182.820700623	4180.360179729	1.5	0.1
0.01	1	0.00456752700029028	1	124	NA	240.840721864	0	0.17	3.4	1	239.40959143	239.414158957	"27"	4182.820700623	4180.360179729	1.5	0.1
0.01	1	0.0436853179999162	1	124	NA	240.840721864	0	0.17	3.4	1	239.64334396	239.687029277999	"27"	4182.820700623	4180.360179729	1.5	0.1
0.01	1	0.00450663500032533	1	124	NA	240.840721864	0	0.17	3.4	1	239.91044861	239.914955245	"27"	4182.820700623	4180.360179729	1.5	0.1
0.01	1	0.0538773329999458	1	124	NA	240.840721864	0	0.17	3.4	1	240.144108265	240.197985598	"27"	4182.820700623	4180.360179729	1.5	0.1
0.01	1	0.00223328199990647	1	124	NA	240.840721864	0	0.17	3.4	1	240.427956205	240.430189487	"27"	4182.820700623	4180.360179729	1.5	0.1
0.01	1	0.177558709999175	2	124	NA	240.840721864	0	0.17	3.4	1	240.66161901	240.839177719999	"27"	4182.820700623	4180.360179729	1.5	0.1
0.01	1	0.00411593900025764	1	13	246.341590755	NA	1	0	3.4	1	242.882140066999	242.886256006	"28"	4182.820700623	4180.360179729	1.5	0.1
0.01	1	0.107500845999311	1	13	246.341590755	NA	1	0	3.4	1	243.11576321	243.223264056	"28"	4182.820700623	4180.360179729	1.5	0.1
0.01	1	0.00219664300038858	1	13	246.341590755	NA	1	0	3.4	1	243.449672125	243.451868768	"28"	4182.820700623	4180.360179729	1.5	0.1
0.01	1	0.0987038469993422	1	13	246.341590755	NA	1	0	3.4	1	243.683363412	243.782067259	"28"	4182.820700623	4180.360179729	1.5	0.1
0.01	1	0.00215302100059489	1	13	246.341590755	NA	1	0	3.4	1	244.017350124	244.019503145	"28"	4182.820700623	4180.360179729	1.5	0.1
0.01	1	0.0748871440000585	1	13	246.341590755	NA	1	0	3.4	1	244.251075505	244.325962649	"28"	4182.820700623	4180.360179729	1.5	0.1
0.01	1	0.00214818799940986	1	13	246.341590755	NA	1	0	3.4	1	244.551552615	244.553700803	"28"	4182.820700623	4180.360179729	1.5	0.1
0.01	1	0.0844497050002246	1	13	246.341590755	NA	1	0	3.4	1	244.785194247	244.869643952	"28"	4182.820700623	4180.360179729	1.5	0.1
0.01	1	0.00376565800070239	1	13	246.341590755	NA	1	0	3.4	1	245.102441642	245.1062073	"28"	4182.820700623	4180.360179729	1.5	0.1
0.01	1	0.0935389099995518	1	13	246.341590755	NA	1	0	3.4	1	245.336141812	245.429680722	"28"	4182.820700623	4180.360179729	1.5	0.1
0.01	1	0.00221256700024242	1	13	246.341590755	NA	1	0	3.4	1	245.653466928	245.655679495	"28"	4182.820700623	4180.360179729	1.5	0.1
0.01	1	0.102982716000042	1	13	246.341590755	NA	1	0	3.4	1	245.8870612	245.990043916	"28"	4182.820700623	4180.360179729	1.5	0.1
0.01	1	0.0047256820007533	1	13	246.341590755	NA	1	0	3.4	1	246.22111937	246.225845052	"28"	4182.820700623	4180.360179729	1.5	0.1
0.01	1	0.00277663599990774	1	125	NA	251.467046464	0	0.12	3.52	1	248.391271532	248.394048168	"29"	4182.820700623	4180.360179729	1.5	0.1
0.01	1	0.00230022400046437	1	125	NA	251.467046464	0	0.12	3.52	1	248.625083638	248.627383862	"29"	4182.820700623	4180.360179729	1.5	0.1
0.01	1	0.0038793710000391	1	125	NA	251.467046464	0	0.12	3.52	1	248.858719695	248.862599066	"29"	4182.820700623	4180.360179729	1.5	0.1
0.01	1	0.059269196999594	1	125	NA	251.467046464	0	0.12	3.52	1	249.092540927	249.151810124	"29"	4182.820700623	4180.360179729	1.5	0.1
0.01	1	0.00221324100039055	1	125	NA	251.467046464	0	0.12	3.52	1	249.376374899	249.37858814	"29"	4182.820700623	4180.360179729	1.5	0.1
0.01	1	0.00460171299982903	1	125	NA	251.467046464	0	0.12	3.52	1	249.610034142	249.614635855	"29"	4182.820700623	4180.360179729	1.5	0.1
0.01	1	0.0429720519996408	1	125	NA	251.467046464	0	0.12	3.52	1	249.843689082	249.886661134	"29"	4182.820700623	4180.360179729	1.5	0.1
0.01	1	0.00468871500015666	1	125	NA	251.467046464	0	0.12	3.52	1	250.11085457	250.115543285	"29"	4182.820700623	4180.360179729	1.5	0.1
0.01	1	0.0612848419996226	1	125	NA	251.467046464	0	0.12	3.52	1	250.344619655	250.405904497	"29"	4182.820700623	4180.360179729	1.5	0.1
0.01	1	0.00416766899979848	1	125	NA	251.467046464	0	0.12	3.52	1	250.628404935	250.632572604	"29"	4182.820700623	4180.360179729	1.5	0.1
0.01	1	0.0561540749995402	1	125	NA	251.467046464	0	0.12	3.52	1	250.86212557	250.918279645	"29"	4182.820700623	4180.360179729	1.5	0.1
0.01	1	0.0839845459995558	1	125	NA	251.467046464	0	0.12	3.52	1	251.14596661	251.229951156	"29"	4182.820700623	4180.360179729	1.5	0.1
0.01	1	0.00221667900041211	2	125	NA	251.467046464	0	0.12	3.52	1	251.463146978	251.465363657	"29"	4182.820700623	4180.360179729	1.5	0.1
0.01	1	0.314122833000511	1	105	NA	258.751707454	0	0.15	3.67	1	253.499913791999	253.814036625	"30"	4182.820700623	4180.360179729	1.5	0.1
0.01	1	0.123621964000449	1	105	NA	258.751707454	0	0.15	3.67	1	254.050841832	254.174463796	"30"	4182.820700623	4180.360179729	1.5	0.1
0.01	1	0.149194683000132	1	105	NA	258.751707454	0	0.15	3.67	1	254.401362865	254.550557548	"30"	4182.820700623	4180.360179729	1.5	0.1
0.01	1	0.0840793530005612	1	105	NA	258.751707454	0	0.15	3.67	1	254.785437	254.869516353	"30"	4182.820700623	4180.360179729	1.5	0.1
0.01	1	0.0395555499999318	1	105	NA	258.751707454	0	0.15	3.67	1	255.10265221	255.14220776	"30"	4182.820700623	4180.360179729	1.5	0.1
0.01	1	0.0856750539996938	1	105	NA	258.751707454	0	0.15	3.67	1	255.369739552	255.455414606	"30"	4182.820700623	4180.360179729	1.5	0.1
0.01	1	0.00973054399946705	1	105	NA	258.751707454	0	0.15	3.67	1	255.686952205	255.696682749	"30"	4182.820700623	4180.360179729	1.5	0.1
0.01	1	0.0450015450005594	1	105	NA	258.751707454	0	0.15	3.67	1	255.920779444999	255.96578099	"30"	4182.820700623	4180.360179729	1.5	0.1
0.01	1	0.0352321219997975	1	105	NA	258.751707454	0	0.15	3.67	1	256.187779306	256.223011428	"30"	4182.820700623	4180.360179729	1.5	0.1
0.01	1	0.0551902799998061	1	105	NA	258.751707454	0	0.15	3.67	1	256.454901415	256.510091695	"30"	4182.820700623	4180.360179729	1.5	0.1
0.01	1	0.060768528999688	1	105	NA	258.751707454	0	0.15	3.67	1	256.738688855	256.799457384	"30"	4182.820700623	4180.360179729	1.5	0.1
0.01	1	0.128944555999624	1	105	NA	258.751707454	0	0.15	3.67	1	257.022655896	257.151600452	"30"	4182.820700623	4180.360179729	1.5	0.1
0.01	1	0.287774467999952	1	105	NA	258.751707454	0	0.15	3.67	1	257.389766325	257.677540793	"30"	4182.820700623	4180.360179729	1.5	0.1
0.01	1	0.204306587999781	1	105	NA	258.751707454	0	0.15	3.67	1	257.907301045	258.111607633	"30"	4182.820700623	4180.360179729	1.5	0.1
0.01	1	0.0660547999996197	1	105	NA	258.751707454	0	0.15	3.67	1	258.3414204	258.4074752	"30"	4182.820700623	4180.360179729	1.5	0.1
0.01	1	0.108219030999862	2	105	NA	258.751707454	0	0.15	3.67	1	258.641942264	258.750161295	"30"	4182.820700623	4180.360179729	1.5	0.1
