"payoff.level"	"balloon"	"rt"	"resp"	"explode.trial"	"explode.time"	"finish.time"	"exploded"	"trial.total"	"cumulative.total"	"finished"	"trial.start"	"trial.end"	"trial.num"	"secs"	"start.time"	"iti"	"isi"
0.01	1	6.11742823099985	1	64	NA	56.1064061920001	0	0.59	0.59	1	0.0189915930000097	6.13641982399986	"1"	3327.948714419	3325.861389765	1.5	0.1
0.01	1	0.79574430699995	1	64	NA	56.1064061920001	0	0.59	0.59	1	6.44650695000018	7.24225125700013	"1"	3327.948714419	3325.861389765	1.5	0.1
0.01	1	0.887619664999875	1	64	NA	56.1064061920001	0	0.59	0.59	1	7.46483124299994	8.35245090799981	"1"	3327.948714419	3325.861389765	1.5	0.1
0.01	1	0.817838130999917	1	64	NA	56.1064061920001	0	0.59	0.59	1	8.58338992000017	9.40122805100009	"1"	3327.948714419	3325.861389765	1.5	0.1
0.01	1	0.94905686400034	1	64	NA	56.1064061920001	0	0.59	0.59	1	9.63515999999981	10.5842168640002	"1"	3327.948714419	3325.861389765	1.5	0.1
0.01	1	1.08371654099983	1	64	NA	56.1064061920001	0	0.59	0.59	1	10.8204690500002	11.904185591	"1"	3327.948714419	3325.861389765	1.5	0.1
0.01	1	1.03657152400001	1	64	NA	56.1064061920001	0	0.59	0.59	1	12.1393226169998	13.1758941409998	"1"	3327.948714419	3325.861389765	1.5	0.1
0.01	1	0.792482973999995	1	64	NA	56.1064061920001	0	0.59	0.59	1	13.4081816140001	14.2006645880001	"1"	3327.948714419	3325.861389765	1.5	0.1
0.01	1	0.908538593999765	1	64	NA	56.1064061920001	0	0.59	0.59	1	14.426656697	15.3351952909998	"1"	3327.948714419	3325.861389765	1.5	0.1
0.01	1	0.605519899000228	1	64	NA	56.1064061920001	0	0.59	0.59	1	15.561937814	16.1674577130002	"1"	3327.948714419	3325.861389765	1.5	0.1
0.01	1	0.618858931000432	1	64	NA	56.1064061920001	0	0.59	0.59	1	16.3967264909998	17.0155854220002	"1"	3327.948714419	3325.861389765	1.5	0.1
0.01	1	0.76092483299999	1	64	NA	56.1064061920001	0	0.59	0.59	1	17.2479923649998	18.0089171979998	"1"	3327.948714419	3325.861389765	1.5	0.1
0.01	1	0.790527865000058	1	64	NA	56.1064061920001	0	0.59	0.59	1	18.2330024889998	19.0235303539998	"1"	3327.948714419	3325.861389765	1.5	0.1
0.01	1	0.917434295000021	1	64	NA	56.1064061920001	0	0.59	0.59	1	19.2514426419998	20.1688769369998	"1"	3327.948714419	3325.861389765	1.5	0.1
0.01	1	0.755767360999926	1	64	NA	56.1064061920001	0	0.59	0.59	1	20.4034461189999	21.1592134799998	"1"	3327.948714419	3325.861389765	1.5	0.1
0.01	1	0.571276672000295	1	64	NA	56.1064061920001	0	0.59	0.59	1	21.3884401189998	21.9597167910001	"1"	3327.948714419	3325.861389765	1.5	0.1
0.01	1	0.369946518999768	1	64	NA	56.1064061920001	0	0.59	0.59	1	22.1897993940001	22.5597459129999	"1"	3327.948714419	3325.861389765	1.5	0.1
0.01	1	0.0964312909995897	1	64	NA	56.1064061920001	0	0.59	0.59	1	22.7907170570002	22.8871483479998	"1"	3327.948714419	3325.861389765	1.5	0.1
0.01	1	0.356299810999644	1	64	NA	56.1064061920001	0	0.59	0.59	1	23.1245186770002	23.4808184879998	"1"	3327.948714419	3325.861389765	1.5	0.1
0.01	1	0.340115301999958	1	64	NA	56.1064061920001	0	0.59	0.59	1	23.7089636780001	24.0490789800001	"1"	3327.948714419	3325.861389765	1.5	0.1
0.01	1	0.555967108000004	1	64	NA	56.1064061920001	0	0.59	0.59	1	24.276604788	24.832571896	"1"	3327.948714419	3325.861389765	1.5	0.1
0.01	1	0.499785039000017	1	64	NA	56.1064061920001	0	0.59	0.59	1	25.0611966319998	25.5609816709998	"1"	3327.948714419	3325.861389765	1.5	0.1
0.01	1	0.45217146799996	1	64	NA	56.1064061920001	0	0.59	0.59	1	25.7957168590001	26.2478883270001	"1"	3327.948714419	3325.861389765	1.5	0.1
0.01	1	0.519692700000178	1	64	NA	56.1064061920001	0	0.59	0.59	1	26.4802237039999	26.999916404	"1"	3327.948714419	3325.861389765	1.5	0.1
0.01	1	0.463960350999969	1	64	NA	56.1064061920001	0	0.59	0.59	1	27.2316400589998	27.6956004099998	"1"	3327.948714419	3325.861389765	1.5	0.1
0.01	1	0.411242964000394	1	64	NA	56.1064061920001	0	0.59	0.59	1	27.9327644639998	28.3440074280002	"1"	3327.948714419	3325.861389765	1.5	0.1
0.01	1	0.489845280999816	1	64	NA	56.1064061920001	0	0.59	0.59	1	28.5670466370002	29.056891918	"1"	3327.948714419	3325.861389765	1.5	0.1
0.01	1	0.435799469999893	1	64	NA	56.1064061920001	0	0.59	0.59	1	29.2850441139999	29.7208435839998	"1"	3327.948714419	3325.861389765	1.5	0.1
0.01	1	0.504405395000049	1	64	NA	56.1064061920001	0	0.59	0.59	1	29.9527394870001	30.4571448820002	"1"	3327.948714419	3325.861389765	1.5	0.1
0.01	1	0.624097279000125	1	64	NA	56.1064061920001	0	0.59	0.59	1	30.6873461569999	31.311443436	"1"	3327.948714419	3325.861389765	1.5	0.1
0.01	1	0.532357588000195	1	64	NA	56.1064061920001	0	0.59	0.59	1	31.5387774719998	32.07113506	"1"	3327.948714419	3325.861389765	1.5	0.1
0.01	1	0.565237869000157	1	64	NA	56.1064061920001	0	0.59	0.59	1	32.3067062519999	32.8719441210001	"1"	3327.948714419	3325.861389765	1.5	0.1
0.01	1	0.524436666999918	1	64	NA	56.1064061920001	0	0.59	0.59	1	33.1080776019999	33.6325142689998	"1"	3327.948714419	3325.861389765	1.5	0.1
0.01	1	0.563876426000206	1	64	NA	56.1064061920001	0	0.59	0.59	1	33.8594976069999	34.4233740330001	"1"	3327.948714419	3325.861389765	1.5	0.1
0.01	1	0.482761684999787	1	64	NA	56.1064061920001	0	0.59	0.59	1	34.6607794370002	35.143541122	"1"	3327.948714419	3325.861389765	1.5	0.1
0.01	1	0.542383551000057	1	64	NA	56.1064061920001	0	0.59	0.59	1	35.3785826190001	35.9209661700002	"1"	3327.948714419	3325.861389765	1.5	0.1
0.01	1	0.628569270999833	1	64	NA	56.1064061920001	0	0.59	0.59	1	36.1464957220001	36.7750649929999	"1"	3327.948714419	3325.861389765	1.5	0.1
0.01	1	0.568468861000383	1	64	NA	56.1064061920001	0	0.59	0.59	1	37.0146935869998	37.5831624480002	"1"	3327.948714419	3325.861389765	1.5	0.1
0.01	1	0.5288086380001	1	64	NA	56.1064061920001	0	0.59	0.59	1	37.8161083219998	38.3449169599999	"1"	3327.948714419	3325.861389765	1.5	0.1
0.01	1	0.47188975500012	1	64	NA	56.1064061920001	0	0.59	0.59	1	38.5672002470001	39.0390900020002	"1"	3327.948714419	3325.861389765	1.5	0.1
0.01	1	1.06011434899983	1	64	NA	56.1064061920001	0	0.59	0.59	1	39.268403564	40.3285179129998	"1"	3327.948714419	3325.861389765	1.5	0.1
0.01	1	0.575065100999836	1	64	NA	56.1064061920001	0	0.59	0.59	1	40.5539339920001	41.1289990929999	"1"	3327.948714419	3325.861389765	1.5	0.1
0.01	1	0.715869697000016	1	64	NA	56.1064061920001	0	0.59	0.59	1	41.3553574490002	42.0712271460002	"1"	3327.948714419	3325.861389765	1.5	0.1
0.01	1	0.533936721999908	1	64	NA	56.1064061920001	0	0.59	0.59	1	42.306946569	42.840883291	"1"	3327.948714419	3325.861389765	1.5	0.1
0.01	1	0.493176144999779	1	64	NA	56.1064061920001	0	0.59	0.59	1	43.0748511410002	43.568027286	"1"	3327.948714419	3325.861389765	1.5	0.1
0.01	1	0.704270483000073	1	64	NA	56.1064061920001	0	0.59	0.59	1	43.7926688789998	44.4969393619999	"1"	3327.948714419	3325.861389765	1.5	0.1
0.01	1	0.537082445000124	1	64	NA	56.1064061920001	0	0.59	0.59	1	44.727767457	45.2648499020002	"1"	3327.948714419	3325.861389765	1.5	0.1
0.01	1	0.585238845000276	1	64	NA	56.1064061920001	0	0.59	0.59	1	45.4955943139998	46.0808331590001	"1"	3327.948714419	3325.861389765	1.5	0.1
0.01	1	0.534705955999925	1	64	NA	56.1064061920001	0	0.59	0.59	1	46.3136721320002	46.8483780880001	"1"	3327.948714419	3325.861389765	1.5	0.1
0.01	1	0.575386944999991	1	64	NA	56.1064061920001	0	0.59	0.59	1	47.0816628339999	47.6570497789999	"1"	3327.948714419	3325.861389765	1.5	0.1
0.01	1	0.52421967500004	1	64	NA	56.1064061920001	0	0.59	0.59	1	47.882972162	48.407191837	"1"	3327.948714419	3325.861389765	1.5	0.1
0.01	1	0.733314952000001	1	64	NA	56.1064061920001	0	0.59	0.59	1	48.6342175919999	49.3675325439999	"1"	3327.948714419	3325.861389765	1.5	0.1
0.01	1	0.493382092000047	1	64	NA	56.1064061920001	0	0.59	0.59	1	49.6026070180001	50.0959891100001	"1"	3327.948714419	3325.861389765	1.5	0.1
0.01	1	0.543820655999752	1	64	NA	56.1064061920001	0	0.59	0.59	1	50.320344102	50.8641647579998	"1"	3327.948714419	3325.861389765	1.5	0.1
0.01	1	0.488536725999893	1	64	NA	56.1064061920001	0	0.59	0.59	1	51.0883926239999	51.5769293499998	"1"	3327.948714419	3325.861389765	1.5	0.1
0.01	1	0.530516121999881	1	64	NA	56.1064061920001	0	0.59	0.59	1	51.8061707060001	52.336686828	"1"	3327.948714419	3325.861389765	1.5	0.1
0.01	1	0.602656499000204	1	64	NA	56.1064061920001	0	0.59	0.59	1	52.5741080289999	53.1767645280001	"1"	3327.948714419	3325.861389765	1.5	0.1
0.01	1	0.767464535999807	1	64	NA	56.1064061920001	0	0.59	0.59	1	53.4089982420001	54.1764627779999	"1"	3327.948714419	3325.861389765	1.5	0.1
0.01	1	1.03030741600014	1	64	NA	56.1064061920001	0	0.59	0.59	1	54.4105262419998	55.440833658	"1"	3327.948714419	3325.861389765	1.5	0.1
0.01	1	0.4253730180003	2	64	NA	56.1064061920001	0	0.59	0.59	1	55.6794468419998	56.1048198600001	"1"	3327.948714419	3325.861389765	1.5	0.1
0.01	1	0.930247180000151	1	68	78.1868648469999	NA	1	0	0.59	1	58.1502109419998	59.080458122	"2"	3327.948714419	3325.861389765	1.5	0.1
0.01	1	0.289757528999871	1	68	78.1868648469999	NA	1	0	0.59	1	59.3187848269999	59.6085423559998	"2"	3327.948714419	3325.861389765	1.5	0.1
0.01	1	0.0446195200001966	1	68	78.1868648469999	NA	1	0	0.59	1	59.836369139	59.8809886590002	"2"	3327.948714419	3325.861389765	1.5	0.1
0.01	1	0.0956706440001653	1	68	78.1868648469999	NA	1	0	0.59	1	60.1035902799999	60.1992609240001	"2"	3327.948714419	3325.861389765	1.5	0.1
0.01	1	0.0587619080001787	1	68	78.1868648469999	NA	1	0	0.59	1	60.4207046789998	60.4794665869999	"2"	3327.948714419	3325.861389765	1.5	0.1
0.01	1	0.0161956130000362	1	68	78.1868648469999	NA	1	0	0.59	1	60.704539327	60.7207349400001	"2"	3327.948714419	3325.861389765	1.5	0.1
0.01	1	0.00372223600015786	1	68	78.1868648469999	NA	1	0	0.59	1	60.954907244	60.9586294800001	"2"	3327.948714419	3325.861389765	1.5	0.1
0.01	1	0.00360448299989002	1	68	78.1868648469999	NA	1	0	0.59	1	61.1886622470001	61.19226673	"2"	3327.948714419	3325.861389765	1.5	0.1
0.01	1	0.00344615399990289	1	68	78.1868648469999	NA	1	0	0.59	1	61.4224406419999	61.4258867959998	"2"	3327.948714419	3325.861389765	1.5	0.1
0.01	1	0.00386629399963567	1	68	78.1868648469999	NA	1	0	0.59	1	61.6561043420002	61.6599706359998	"2"	3327.948714419	3325.861389765	1.5	0.1
0.01	1	0.119010303999858	1	68	78.1868648469999	NA	1	0	0.59	1	61.889928224	62.0089385279998	"2"	3327.948714419	3325.861389765	1.5	0.1
0.01	1	0.00216125899987674	1	68	78.1868648469999	NA	1	0	0.59	1	62.2402945200001	62.242455779	"2"	3327.948714419	3325.861389765	1.5	0.1
0.01	1	0.00356207499999073	1	68	78.1868648469999	NA	1	0	0.59	1	62.4742714889999	62.4778335639999	"2"	3327.948714419	3325.861389765	1.5	0.1
0.01	1	0.00479266999991523	1	68	78.1868648469999	NA	1	0	0.59	1	62.7079596419999	62.7127523119998	"2"	3327.948714419	3325.861389765	1.5	0.1
0.01	1	0.0102225910000016	1	68	78.1868648469999	NA	1	0	0.59	1	62.9415467899998	62.9517693809998	"2"	3327.948714419	3325.861389765	1.5	0.1
0.01	1	0.0332342309998239	1	68	78.1868648469999	NA	1	0	0.59	1	63.1753081890001	63.20854242	"2"	3327.948714419	3325.861389765	1.5	0.1
0.01	1	0.0296976190002169	1	68	78.1868648469999	NA	1	0	0.59	1	63.4424627769999	63.4721603960002	"2"	3327.948714419	3325.861389765	1.5	0.1
0.01	1	0.0676717540000027	1	68	78.1868648469999	NA	1	0	0.59	1	63.70960268	63.777274434	"2"	3327.948714419	3325.861389765	1.5	0.1
0.01	1	0.0295113679999304	1	68	78.1868648469999	NA	1	0	0.59	1	64.0100689370001	64.0395803050001	"2"	3327.948714419	3325.861389765	1.5	0.1
0.01	1	0.043663364999702	1	68	78.1868648469999	NA	1	0	0.59	1	64.2771655890001	64.3208289539998	"2"	3327.948714419	3325.861389765	1.5	0.1
0.01	1	0.0157064179998088	1	68	78.1868648469999	NA	1	0	0.59	1	64.5444161820001	64.5601225999999	"2"	3327.948714419	3325.861389765	1.5	0.1
0.01	1	0.0297880009998153	1	68	78.1868648469999	NA	1	0	0.59	1	64.7946950290002	64.82448303	"2"	3327.948714419	3325.861389765	1.5	0.1
0.01	1	0.0431523480001488	1	68	78.1868648469999	NA	1	0	0.59	1	65.0618377279998	65.1049900759999	"2"	3327.948714419	3325.861389765	1.5	0.1
0.01	1	0.0311253179997948	1	68	78.1868648469999	NA	1	0	0.59	1	65.3289631590001	65.3600884769999	"2"	3327.948714419	3325.861389765	1.5	0.1
0.01	1	0.0196074010000302	1	68	78.1868648469999	NA	1	0	0.59	1	65.5961397689998	65.6157471699998	"2"	3327.948714419	3325.861389765	1.5	0.1
0.01	1	0.0586411640001643	1	68	78.1868648469999	NA	1	0	0.59	1	65.846515102	65.9051562660002	"2"	3327.948714419	3325.861389765	1.5	0.1
0.01	1	0.0303003019998869	1	68	78.1868648469999	NA	1	0	0.59	1	66.130329347	66.1606296489999	"2"	3327.948714419	3325.861389765	1.5	0.1
0.01	1	0.057724958000108	1	68	78.1868648469999	NA	1	0	0.59	1	66.397418387	66.4551433450001	"2"	3327.948714419	3325.861389765	1.5	0.1
0.01	1	0.0472603169996546	1	68	78.1868648469999	NA	1	0	0.59	1	66.6813064520002	66.7285667689998	"2"	3327.948714419	3325.861389765	1.5	0.1
0.01	1	0.0519300480000311	1	68	78.1868648469999	NA	1	0	0.59	1	66.9650469869998	67.0169770349999	"2"	3327.948714419	3325.861389765	1.5	0.1
0.01	1	0.0704255059999923	1	68	78.1868648469999	NA	1	0	0.59	1	67.2489428079998	67.3193683139998	"2"	3327.948714419	3325.861389765	1.5	0.1
0.01	1	0.0434054550000837	1	68	78.1868648469999	NA	1	0	0.59	1	67.549343617	67.5927490720001	"2"	3327.948714419	3325.861389765	1.5	0.1
0.01	1	0.040357972000038	1	68	78.1868648469999	NA	1	0	0.59	1	67.816549308	67.8569072800001	"2"	3327.948714419	3325.861389765	1.5	0.1
0.01	1	0.0441531179999402	1	68	78.1868648469999	NA	1	0	0.59	1	68.0836073589999	68.1277604769998	"2"	3327.948714419	3325.861389765	1.5	0.1
0.01	1	0.0319304469999224	1	68	78.1868648469999	NA	1	0	0.59	1	68.3673526470002	68.3992830940001	"2"	3327.948714419	3325.861389765	1.5	0.1
0.01	1	0.077119195999785	1	68	78.1868648469999	NA	1	0	0.59	1	68.63460558	68.7117247759998	"2"	3327.948714419	3325.861389765	1.5	0.1
0.01	1	0.0818515310002113	1	68	78.1868648469999	NA	1	0	0.59	1	68.9349802689999	69.0168318000001	"2"	3327.948714419	3325.861389765	1.5	0.1
0.01	1	0.0589405730001999	1	68	78.1868648469999	NA	1	0	0.59	1	69.2521649689998	69.311105542	"2"	3327.948714419	3325.861389765	1.5	0.1
0.01	1	0.0729596020000827	1	68	78.1868648469999	NA	1	0	0.59	1	69.5360826689998	69.6090422709999	"2"	3327.948714419	3325.861389765	1.5	0.1
0.01	1	0.0667439929998181	1	68	78.1868648469999	NA	1	0	0.59	1	69.8365830090002	69.903327002	"2"	3327.948714419	3325.861389765	1.5	0.1
0.01	1	0.0393555189998551	1	68	78.1868648469999	NA	1	0	0.59	1	70.1370992870002	70.176454806	"2"	3327.948714419	3325.861389765	1.5	0.1
0.01	1	0.0608936650000942	1	68	78.1868648469999	NA	1	0	0.59	1	70.4041429489998	70.4650366139999	"2"	3327.948714419	3325.861389765	1.5	0.1
0.01	1	0.0717271550001897	1	68	78.1868648469999	NA	1	0	0.59	1	70.6880616819999	70.7597888370001	"2"	3327.948714419	3325.861389765	1.5	0.1
0.01	1	0.0751843880002525	1	68	78.1868648469999	NA	1	0	0.59	1	70.9884675389999	71.0636519270001	"2"	3327.948714419	3325.861389765	1.5	0.1
0.01	1	0.0872247209999841	1	68	78.1868648469999	NA	1	0	0.59	1	71.2889729839999	71.3761977049999	"2"	3327.948714419	3325.861389765	1.5	0.1
0.01	1	0.0810950079999202	1	68	78.1868648469999	NA	1	0	0.59	1	71.6061740589998	71.6872690669998	"2"	3327.948714419	3325.861389765	1.5	0.1
0.01	1	0.101304020000043	1	68	78.1868648469999	NA	1	0	0.59	1	71.9234487099998	72.0247527299998	"2"	3327.948714419	3325.861389765	1.5	0.1
0.01	1	0.0863393810000161	1	68	78.1868648469999	NA	1	0	0.59	1	72.2573674619998	72.3437068429998	"2"	3327.948714419	3325.861389765	1.5	0.1
0.01	1	0.0824813220001488	1	68	78.1868648469999	NA	1	0	0.59	1	72.574449572	72.6569308940002	"2"	3327.948714419	3325.861389765	1.5	0.1
0.01	1	0.0605626329997904	1	68	78.1868648469999	NA	1	0	0.59	1	72.8917043440001	72.9522669769999	"2"	3327.948714419	3325.861389765	1.5	0.1
0.01	1	0.0817996539999513	1	68	78.1868648469999	NA	1	0	0.59	1	73.1755389370001	73.257338591	"2"	3327.948714419	3325.861389765	1.5	0.1
0.01	1	0.0360535700001492	1	68	78.1868648469999	NA	1	0	0.59	1	73.49272354	73.5287771100002	"2"	3327.948714419	3325.861389765	1.5	0.1
0.01	1	0.0634970179999073	1	68	78.1868648469999	NA	1	0	0.59	1	73.7599507790001	73.823447797	"2"	3327.948714419	3325.861389765	1.5	0.1
0.01	1	0.0674718189998202	1	68	78.1868648469999	NA	1	0	0.59	1	74.060354149	74.1278259679998	"2"	3327.948714419	3325.861389765	1.5	0.1
0.01	1	0.0468648050000411	1	68	78.1868648469999	NA	1	0	0.59	1	74.3608475619999	74.4077123669999	"2"	3327.948714419	3325.861389765	1.5	0.1
0.01	1	0.0269165189997693	1	68	78.1868648469999	NA	1	0	0.59	1	74.6446193870001	74.6715359059999	"2"	3327.948714419	3325.861389765	1.5	0.1
0.01	1	0.0236734129998695	1	68	78.1868648469999	NA	1	0	0.59	1	74.911884012	74.9355574249998	"2"	3327.948714419	3325.861389765	1.5	0.1
0.01	1	0.0787831040001947	1	68	78.1868648469999	NA	1	0	0.59	1	75.1621814569999	75.2409645610001	"2"	3327.948714419	3325.861389765	1.5	0.1
0.01	1	0.0406969819996448	1	68	78.1868648469999	NA	1	0	0.59	1	75.4793691240002	75.5200661059998	"2"	3327.948714419	3325.861389765	1.5	0.1
0.01	1	0.0704059670001698	1	68	78.1868648469999	NA	1	0	0.59	1	75.746581678	75.8169876450002	"2"	3327.948714419	3325.861389765	1.5	0.1
0.01	1	0.0565848079995703	1	68	78.1868648469999	NA	1	0	0.59	1	76.0470089290002	76.1035937369998	"2"	3327.948714419	3325.861389765	1.5	0.1
0.01	1	0.0536459079999076	1	68	78.1868648469999	NA	1	0	0.59	1	76.3308882490001	76.384534157	"2"	3327.948714419	3325.861389765	1.5	0.1
0.01	1	0.0411891700000524	1	68	78.1868648469999	NA	1	0	0.59	1	76.6146342669999	76.655823437	"2"	3327.948714419	3325.861389765	1.5	0.1
0.01	1	0.0381088499998441	1	68	78.1868648469999	NA	1	0	0.59	1	76.881794769	76.9199036189998	"2"	3327.948714419	3325.861389765	1.5	0.1
0.01	1	0.0842069010000159	1	68	78.1868648469999	NA	1	0	0.59	1	77.1488134189999	77.2330203199999	"2"	3327.948714419	3325.861389765	1.5	0.1
0.01	1	0.00653525699999591	1	68	78.1868648469999	NA	1	0	0.59	1	77.4659957819999	77.4725310389999	"2"	3327.948714419	3325.861389765	1.5	0.1
0.01	1	0.0691302479999649	1	68	78.1868648469999	NA	1	0	0.59	1	77.6998504419998	77.7689806899998	"2"	3327.948714419	3325.861389765	1.5	0.1
0.01	1	0.0726231139997253	1	68	78.1868648469999	NA	1	0	0.59	1	78.0003811070001	78.0730042209998	"2"	3327.948714419	3325.861389765	1.5	0.1
0.01	1	0.451404947000356	1	33	89.773799517	NA	1	0	0.59	1	80.2206606999998	80.6720656470002	"3"	3327.948714419	3325.861389765	1.5	0.1
0.01	1	0.00220641899977636	1	33	89.773799517	NA	1	0	0.59	1	80.9051931700001	80.9073995889999	"3"	3327.948714419	3325.861389765	1.5	0.1
0.01	1	0.00207638599977145	1	33	89.773799517	NA	1	0	0.59	1	81.1388411070002	81.140917493	"3"	3327.948714419	3325.861389765	1.5	0.1
0.01	1	0.0912025970001196	1	33	89.773799517	NA	1	0	0.59	1	81.372637422	81.4638400190001	"3"	3327.948714419	3325.861389765	1.5	0.1
0.01	1	0.00209107299997413	1	33	89.773799517	NA	1	0	0.59	1	81.689828732	81.691919805	"3"	3327.948714419	3325.861389765	1.5	0.1
0.01	1	0.116239737999877	1	33	89.773799517	NA	1	0	0.59	1	81.9236014319999	82.0398411699998	"3"	3327.948714419	3325.861389765	1.5	0.1
0.01	1	0.00207883900020533	1	33	89.773799517	NA	1	0	0.59	1	82.2742200289999	82.2762988680001	"3"	3327.948714419	3325.861389765	1.5	0.1
0.01	1	0.00220859000000928	1	33	89.773799517	NA	1	0	0.59	1	82.507940042	82.510148632	"3"	3327.948714419	3325.861389765	1.5	0.1
0.01	1	0.129599538000093	1	33	89.773799517	NA	1	0	0.59	1	82.7416256219999	82.87122516	"3"	3327.948714419	3325.861389765	1.5	0.1
0.01	1	0.00206321700034096	1	33	89.773799517	NA	1	0	0.59	1	83.1089276859998	83.1109909030001	"3"	3327.948714419	3325.861389765	1.5	0.1
0.01	1	0.00501977000021725	1	33	89.773799517	NA	1	0	0.59	1	83.3425753319998	83.347595102	"3"	3327.948714419	3325.861389765	1.5	0.1
0.01	1	0.00386485200033349	1	33	89.773799517	NA	1	0	0.59	1	83.5763835019998	83.5802483540001	"3"	3327.948714419	3325.861389765	1.5	0.1
0.01	1	0.117338801000187	1	33	89.773799517	NA	1	0	0.59	1	83.810101909	83.9274407100002	"3"	3327.948714419	3325.861389765	1.5	0.1
0.01	1	0.00224381499992887	1	33	89.773799517	NA	1	0	0.59	1	84.1607205969999	84.1629644119998	"3"	3327.948714419	3325.861389765	1.5	0.1
0.01	1	0.0021646420000252	1	33	89.773799517	NA	1	0	0.59	1	84.3944207089999	84.3965853509999	"3"	3327.948714419	3325.861389765	1.5	0.1
0.01	1	0.00244589500016446	1	33	89.773799517	NA	1	0	0.59	1	84.6281979579999	84.630643853	"3"	3327.948714419	3325.861389765	1.5	0.1
0.01	1	0.00415566799983935	1	33	89.773799517	NA	1	0	0.59	1	84.8617769940001	84.865932662	"3"	3327.948714419	3325.861389765	1.5	0.1
0.01	1	0.0237881180000841	1	33	89.773799517	NA	1	0	0.59	1	85.0955684989999	85.119356617	"3"	3327.948714419	3325.861389765	1.5	0.1
0.01	1	0.0293118040003719	1	33	89.773799517	NA	1	0	0.59	1	85.3459248519998	85.3752366560002	"3"	3327.948714419	3325.861389765	1.5	0.1
0.01	1	0.0419673579999653	1	33	89.773799517	NA	1	0	0.59	1	85.6130830719999	85.6550504299998	"3"	3327.948714419	3325.861389765	1.5	0.1
0.01	1	0.065028004999931	1	33	89.773799517	NA	1	0	0.59	1	85.8802121439999	85.9452401489998	"3"	3327.948714419	3325.861389765	1.5	0.1
0.01	1	0.058391765000124	1	33	89.773799517	NA	1	0	0.59	1	86.1807522419999	86.239144007	"3"	3327.948714419	3325.861389765	1.5	0.1
0.01	1	0.0645062920002601	1	33	89.773799517	NA	1	0	0.59	1	86.4644847589998	86.528991051	"3"	3327.948714419	3325.861389765	1.5	0.1
0.01	1	0.100082975000078	1	33	89.773799517	NA	1	0	0.59	1	86.7649235089998	86.8650064839999	"3"	3327.948714419	3325.861389765	1.5	0.1
0.01	1	0.0531935090002662	1	33	89.773799517	NA	1	0	0.59	1	87.0989600369999	87.1521535460001	"3"	3327.948714419	3325.861389765	1.5	0.1
0.01	1	0.056973692000156	1	33	89.773799517	NA	1	0	0.59	1	87.3827391519999	87.439712844	"3"	3327.948714419	3325.861389765	1.5	0.1
0.01	1	0.0845040019999033	1	33	89.773799517	NA	1	0	0.59	1	87.666592867	87.7510968689999	"3"	3327.948714419	3325.861389765	1.5	0.1
0.01	1	0.0963780920001227	1	33	89.773799517	NA	1	0	0.59	1	87.9838457269998	88.0802238189999	"3"	3327.948714419	3325.861389765	1.5	0.1
0.01	1	0.0669611130001613	1	33	89.773799517	NA	1	0	0.59	1	88.3176408869999	88.3846020000001	"3"	3327.948714419	3325.861389765	1.5	0.1
0.01	1	0.0852473449999707	1	33	89.773799517	NA	1	0	0.59	1	88.6182206220001	88.7034679670001	"3"	3327.948714419	3325.861389765	1.5	0.1
0.01	1	0.0892615349998778	1	33	89.773799517	NA	1	0	0.59	1	88.935492527	89.0247540619998	"3"	3327.948714419	3325.861389765	1.5	0.1
0.01	1	0.0837696939997841	1	33	89.773799517	NA	1	0	0.59	1	89.2524976660002	89.33626736	"3"	3327.948714419	3325.861389765	1.5	0.1
0.01	1	0.0945259430000078	1	33	89.773799517	NA	1	0	0.59	1	89.5696902039999	89.6642161469999	"3"	3327.948714419	3325.861389765	1.5	0.1
0.01	1	0.00214787400000205	1	105	NA	101.33758747	0	0.25	0.84	1	91.8235710059998	91.8257188799998	"4"	3327.948714419	3325.861389765	1.5	0.1
0.01	1	0.062127727999723	1	105	NA	101.33758747	0	0.25	0.84	1	92.0572165170001	92.1193442449999	"4"	3327.948714419	3325.861389765	1.5	0.1
0.01	1	0.00230944600025396	1	105	NA	101.33758747	0	0.25	0.84	1	92.3578533899999	92.3601628360002	"4"	3327.948714419	3325.861389765	1.5	0.1
0.01	1	0.00394079800025793	1	105	NA	101.33758747	0	0.25	0.84	1	92.5915175619998	92.5954583600001	"4"	3327.948714419	3325.861389765	1.5	0.1
0.01	1	0.0784408599997732	1	105	NA	101.33758747	0	0.25	0.84	1	92.8253830590002	92.9038239189999	"4"	3327.948714419	3325.861389765	1.5	0.1
0.01	1	0.00208539200002633	1	105	NA	101.33758747	0	0.25	0.84	1	93.1258343660002	93.1279197580002	"4"	3327.948714419	3325.861389765	1.5	0.1
0.01	1	0.00221693900039099	1	105	NA	101.33758747	0	0.25	0.84	1	93.3594251569998	93.3616420960002	"4"	3327.948714419	3325.861389765	1.5	0.1
0.01	1	0.00257563600007416	1	105	NA	101.33758747	0	0.25	0.84	1	93.593178612	93.595754248	"4"	3327.948714419	3325.861389765	1.5	0.1
0.01	1	0.101306432000001	1	105	NA	101.33758747	0	0.25	0.84	1	93.8268506589998	93.9281570909998	"4"	3327.948714419	3325.861389765	1.5	0.1
0.01	1	0.00225891999980377	1	105	NA	101.33758747	0	0.25	0.84	1	94.160735549	94.1629944689998	"4"	3327.948714419	3325.861389765	1.5	0.1
0.01	1	0.00226433599982556	1	105	NA	101.33758747	0	0.25	0.84	1	94.394499554	94.3967638899999	"4"	3327.948714419	3325.861389765	1.5	0.1
0.01	1	0.0021787979999317	1	105	NA	101.33758747	0	0.25	0.84	1	94.6281886030001	94.6303674010001	"4"	3327.948714419	3325.861389765	1.5	0.1
0.01	1	0.00214839999989636	1	105	NA	101.33758747	0	0.25	0.84	1	94.8620303289999	94.8641787289998	"4"	3327.948714419	3325.861389765	1.5	0.1
0.01	1	0.00228726199975426	1	105	NA	101.33758747	0	0.25	0.84	1	95.0956795920001	95.0979668539999	"4"	3327.948714419	3325.861389765	1.5	0.1
0.01	1	0.00234825999996247	1	105	NA	101.33758747	0	0.25	0.84	1	95.3293712710001	95.3317195310001	"4"	3327.948714419	3325.861389765	1.5	0.1
0.01	1	0.00245192600004884	1	105	NA	101.33758747	0	0.25	0.84	1	95.5632533869998	95.5657053129999	"4"	3327.948714419	3325.861389765	1.5	0.1
0.01	1	0.0188937259999875	1	105	NA	101.33758747	0	0.25	0.84	1	95.7967761099999	95.8156698359999	"4"	3327.948714419	3325.861389765	1.5	0.1
0.01	1	0.0341512400000283	1	105	NA	101.33758747	0	0.25	0.84	1	96.0473518069998	96.0815030469998	"4"	3327.948714419	3325.861389765	1.5	0.1
0.01	1	0.037178534999839	1	105	NA	101.33758747	0	0.25	0.84	1	96.3143824389999	96.3515609739998	"4"	3327.948714419	3325.861389765	1.5	0.1
0.01	1	0.106123144999856	1	105	NA	101.33758747	0	0.25	0.84	1	96.5815795369999	96.6877026819998	"4"	3327.948714419	3325.861389765	1.5	0.1
0.01	1	0.133794013999704	1	105	NA	101.33758747	0	0.25	0.84	1	96.9153611880001	97.0491552019998	"4"	3327.948714419	3325.861389765	1.5	0.1
0.01	1	0.733251434000067	1	105	NA	101.33758747	0	0.25	0.84	1	97.2826515729998	98.0159030069999	"4"	3327.948714419	3325.861389765	1.5	0.1
0.01	1	0.517029563000051	1	105	NA	101.33758747	0	0.25	0.84	1	98.2509173449998	98.7679469079999	"4"	3327.948714419	3325.861389765	1.5	0.1
0.01	1	0.390163074999691	1	105	NA	101.33758747	0	0.25	0.84	1	99.0022744970001	99.3924375719998	"4"	3327.948714419	3325.861389765	1.5	0.1
0.01	1	0.829430844000399	1	105	NA	101.33758747	0	0.25	0.84	1	99.6200838179998	100.449514662	"4"	3327.948714419	3325.861389765	1.5	0.1
0.01	1	0.664299982000102	2	105	NA	101.33758747	0	0.25	0.84	1	100.671736968	101.33603695	"4"	3327.948714419	3325.861389765	1.5	0.1
0.01	1	0.663857520999954	1	73	NA	127.665954577	0	0.35	1.19	1	103.393007021	104.056864542	"5"	3327.948714419	3325.861389765	1.5	0.1
0.01	1	0.298547803000019	1	73	NA	127.665954577	0	0.35	1.19	1	104.294525371	104.593073174	"5"	3327.948714419	3325.861389765	1.5	0.1
0.01	1	0.330780469999809	1	73	NA	127.665954577	0	0.35	1.19	1	104.8287156	105.15949607	"5"	3327.948714419	3325.861389765	1.5	0.1
0.01	1	0.395701966000161	1	73	NA	127.665954577	0	0.35	1.19	1	105.396298402	105.792000368	"5"	3327.948714419	3325.861389765	1.5	0.1
0.01	1	0.394916845999887	1	73	NA	127.665954577	0	0.35	1.19	1	106.014118962	106.409035808	"5"	3327.948714419	3325.861389765	1.5	0.1
0.01	1	0.369050794000032	1	73	NA	127.665954577	0	0.35	1.19	1	106.631780534	107.000831328	"5"	3327.948714419	3325.861389765	1.5	0.1
0.01	1	0.00231970899994849	1	73	NA	127.665954577	0	0.35	1.19	1	107.232842379	107.235162088	"5"	3327.948714419	3325.861389765	1.5	0.1
0.01	1	0.173815330999787	1	73	NA	127.665954577	0	0.35	1.19	1	107.466594466	107.640409797	"5"	3327.948714419	3325.861389765	1.5	0.1
0.01	1	0.748519664000014	1	73	NA	127.665954577	0	0.35	1.19	1	107.867242086	108.61576175	"5"	3327.948714419	3325.861389765	1.5	0.1
0.01	1	0.380875304000256	1	73	NA	127.665954577	0	0.35	1.19	1	108.852093262	109.232968566	"5"	3327.948714419	3325.861389765	1.5	0.1
0.01	1	0.418752135999966	1	73	NA	127.665954577	0	0.35	1.19	1	109.469799361	109.888551497	"5"	3327.948714419	3325.861389765	1.5	0.1
0.01	1	0.583538518999831	1	73	NA	127.665954577	0	0.35	1.19	1	110.121074612	110.704613131	"5"	3327.948714419	3325.861389765	1.5	0.1
0.01	1	0.557459807000214	1	73	NA	127.665954577	0	0.35	1.19	1	110.938976596	111.496436403	"5"	3327.948714419	3325.861389765	1.5	0.1
0.01	1	0.507755239999824	1	73	NA	127.665954577	0	0.35	1.19	1	111.72356773	112.23132297	"5"	3327.948714419	3325.861389765	1.5	0.1
0.01	1	0.581086881999909	1	73	NA	127.665954577	0	0.35	1.19	1	112.45823355	113.039320432	"5"	3327.948714419	3325.861389765	1.5	0.1
0.01	1	1.08387134199984	1	73	NA	127.665954577	0	0.35	1.19	1	113.276238937	114.360110279	"5"	3327.948714419	3325.861389765	1.5	0.1
0.01	1	0.452882282999781	1	73	NA	127.665954577	0	0.35	1.19	1	114.595157611	115.048039894	"5"	3327.948714419	3325.861389765	1.5	0.1
0.01	1	0.575298892999854	1	73	NA	127.665954577	0	0.35	1.19	1	115.279766037	115.85506493	"5"	3327.948714419	3325.861389765	1.5	0.1
0.01	1	0.439694951000092	1	73	NA	127.665954577	0	0.35	1.19	1	116.081119166	116.520814117	"5"	3327.948714419	3325.861389765	1.5	0.1
0.01	1	0.371689337000134	1	73	NA	127.665954577	0	0.35	1.19	1	116.748886244	117.120575581	"5"	3327.948714419	3325.861389765	1.5	0.1
0.01	1	0.38552239899991	1	73	NA	127.665954577	0	0.35	1.19	1	117.349832788	117.735355187	"5"	3327.948714419	3325.861389765	1.5	0.1
0.01	1	0.321005268000135	1	73	NA	127.665954577	0	0.35	1.19	1	117.967552059	118.288557327	"5"	3327.948714419	3325.861389765	1.5	0.1
0.01	1	0.264689093000015	1	73	NA	127.665954577	0	0.35	1.19	1	118.518471064	118.783160157	"5"	3327.948714419	3325.861389765	1.5	0.1
0.01	1	0.332921680999789	1	73	NA	127.665954577	0	0.35	1.19	1	119.019303297	119.352224978	"5"	3327.948714419	3325.861389765	1.5	0.1
0.01	1	0.357586235999861	1	73	NA	127.665954577	0	0.35	1.19	1	119.586985769	119.944572005	"5"	3327.948714419	3325.861389765	1.5	0.1
0.01	1	0.340836429999854	1	73	NA	127.665954577	0	0.35	1.19	1	120.171326864	120.512163294	"5"	3327.948714419	3325.861389765	1.5	0.1
0.01	1	0.334511046999978	1	73	NA	127.665954577	0	0.35	1.19	1	120.738935367	121.073446414	"5"	3327.948714419	3325.861389765	1.5	0.1
0.01	1	0.333310035000068	1	73	NA	127.665954577	0	0.35	1.19	1	121.306340538	121.639650573	"5"	3327.948714419	3325.861389765	1.5	0.1
0.01	1	0.30969680599992	1	73	NA	127.665954577	0	0.35	1.19	1	121.874074096	122.183770902	"5"	3327.948714419	3325.861389765	1.5	0.1
0.01	1	0.344103259999883	1	73	NA	127.665954577	0	0.35	1.19	1	122.408345405	122.752448665	"5"	3327.948714419	3325.861389765	1.5	0.1
0.01	1	0.959851271999923	1	73	NA	127.665954577	0	0.35	1.19	1	122.99263139	123.952482662	"5"	3327.948714419	3325.861389765	1.5	0.1
0.01	1	0.710504259000118	1	73	NA	127.665954577	0	0.35	1.19	1	124.177884242	124.888388501	"5"	3327.948714419	3325.861389765	1.5	0.1
0.01	1	0.455784998000127	1	73	NA	127.665954577	0	0.35	1.19	1	125.112848369	125.568633367	"5"	3327.948714419	3325.861389765	1.5	0.1
0.01	1	0.468071535000036	1	73	NA	127.665954577	0	0.35	1.19	1	125.797326612	126.265398147	"5"	3327.948714419	3325.861389765	1.5	0.1
0.01	1	0.476685999999972	1	73	NA	127.665954577	0	0.35	1.19	1	126.498586034	126.975272034	"5"	3327.948714419	3325.861389765	1.5	0.1
0.01	1	0.464598207000108	2	73	NA	127.665954577	0	0.35	1.19	1	127.199705307	127.664303514	"5"	3327.948714419	3325.861389765	1.5	0.1
0.01	1	1.39174128600007	1	45	NA	144.706328947	0	0.37	1.56	1	129.720745484	131.11248677	"6"	3327.948714419	3325.861389765	1.5	0.1
0.01	1	0.0118737840002723	1	45	NA	144.706328947	0	0.37	1.56	1	131.340027154	131.351900938	"6"	3327.948714419	3325.861389765	1.5	0.1
0.01	1	0.00221020400022098	1	45	NA	144.706328947	0	0.37	1.56	1	131.590465027	131.592675231	"6"	3327.948714419	3325.861389765	1.5	0.1
0.01	1	0.00217251599997326	1	45	NA	144.706328947	0	0.37	1.56	1	131.824174522	131.826347038	"6"	3327.948714419	3325.861389765	1.5	0.1
0.01	1	0.118290295999941	1	45	NA	144.706328947	0	0.37	1.56	1	132.057906592	132.176196888	"6"	3327.948714419	3325.861389765	1.5	0.1
0.01	1	0.00233909999997195	1	45	NA	144.706328947	0	0.37	1.56	1	132.40854033	132.41087943	"6"	3327.948714419	3325.861389765	1.5	0.1
0.01	1	0.100933027999872	1	45	NA	144.706328947	0	0.37	1.56	1	132.642291947	132.743224975	"6"	3327.948714419	3325.861389765	1.5	0.1
0.01	1	0.00211642100020981	1	45	NA	144.706328947	0	0.37	1.56	1	132.976111529	132.97822795	"6"	3327.948714419	3325.861389765	1.5	0.1
0.01	1	0.00214634400026625	1	45	NA	144.706328947	0	0.37	1.56	1	133.209737197	133.211883541	"6"	3327.948714419	3325.861389765	1.5	0.1
0.01	1	0.091911305999929	1	45	NA	144.706328947	0	0.37	1.56	1	133.443486454	133.53539776	"6"	3327.948714419	3325.861389765	1.5	0.1
0.01	1	0.0021199110001362	1	45	NA	144.706328947	0	0.37	1.56	1	133.760740445	133.762860356	"6"	3327.948714419	3325.861389765	1.5	0.1
0.01	1	0.00233127100000274	1	45	NA	144.706328947	0	0.37	1.56	1	133.994530825	133.996862096	"6"	3327.948714419	3325.861389765	1.5	0.1
0.01	1	0.131926042000032	1	45	NA	144.706328947	0	0.37	1.56	1	134.228258246	134.360184288	"6"	3327.948714419	3325.861389765	1.5	0.1
0.01	1	0.00224587899992912	1	45	NA	144.706328947	0	0.37	1.56	1	134.595494838	134.597740717	"6"	3327.948714419	3325.861389765	1.5	0.1
0.01	1	0.00228778900009274	1	45	NA	144.706328947	0	0.37	1.56	1	134.829209729	134.831497518	"6"	3327.948714419	3325.861389765	1.5	0.1
0.01	1	0.0021297470002537	1	45	NA	144.706328947	0	0.37	1.56	1	135.062893293	135.06502304	"6"	3327.948714419	3325.861389765	1.5	0.1
0.01	1	0.0023495840000578	1	45	NA	144.706328947	0	0.37	1.56	1	135.296767649	135.299117233	"6"	3327.948714419	3325.861389765	1.5	0.1
0.01	1	0.00214982400029839	1	45	NA	144.706328947	0	0.37	1.56	1	135.530426088	135.532575912	"6"	3327.948714419	3325.861389765	1.5	0.1
0.01	1	0.00226399400025912	1	45	NA	144.706328947	0	0.37	1.56	1	135.764103698	135.766367692	"6"	3327.948714419	3325.861389765	1.5	0.1
0.01	1	0.00230803999966156	1	45	NA	144.706328947	0	0.37	1.56	1	135.997878554	136.000186594	"6"	3327.948714419	3325.861389765	1.5	0.1
0.01	1	0.0495595679999496	1	45	NA	144.706328947	0	0.37	1.56	1	136.231492036	136.281051604	"6"	3327.948714419	3325.861389765	1.5	0.1
0.01	1	0.0935506810001243	1	45	NA	144.706328947	0	0.37	1.56	1	136.515349519	136.6089002	"6"	3327.948714419	3325.861389765	1.5	0.1
0.01	1	0.0725358879999476	1	45	NA	144.706328947	0	0.37	1.56	1	136.832597428	136.905133316	"6"	3327.948714419	3325.861389765	1.5	0.1
0.01	1	0.147327028000291	1	45	NA	144.706328947	0	0.37	1.56	1	137.133032082	137.28035911	"6"	3327.948714419	3325.861389765	1.5	0.1
0.01	1	0.171889874000044	1	45	NA	144.706328947	0	0.37	1.56	1	137.517094536	137.68898441	"6"	3327.948714419	3325.861389765	1.5	0.1
0.01	1	0.105450942000061	1	45	NA	144.706328947	0	0.37	1.56	1	137.91768645	138.023137392	"6"	3327.948714419	3325.861389765	1.5	0.1
0.01	1	0.564911750000192	1	45	NA	144.706328947	0	0.37	1.56	1	138.25166352	138.81657527	"6"	3327.948714419	3325.861389765	1.5	0.1
0.01	1	0.0208884680000665	1	45	NA	144.706328947	0	0.37	1.56	1	139.052956722	139.07384519	"6"	3327.948714419	3325.861389765	1.5	0.1
0.01	1	0.00371482499986087	1	45	NA	144.706328947	0	0.37	1.56	1	139.303418974	139.307133799	"6"	3327.948714419	3325.861389765	1.5	0.1
0.01	1	0.0025070090000554	1	45	NA	144.706328947	0	0.37	1.56	1	139.537120476	139.539627485	"6"	3327.948714419	3325.861389765	1.5	0.1
0.01	1	0.117513907000102	1	45	NA	144.706328947	0	0.37	1.56	1	139.770936657	139.888450564	"6"	3327.948714419	3325.861389765	1.5	0.1
0.01	1	0.00231960900009653	1	45	NA	144.706328947	0	0.37	1.56	1	140.121429324	140.123748933	"6"	3327.948714419	3325.861389765	1.5	0.1
0.01	1	0.999687109999741	1	45	NA	144.706328947	0	0.37	1.56	1	140.35530925	141.35499636	"6"	3327.948714419	3325.861389765	1.5	0.1
0.01	1	0.106371097000192	1	45	NA	144.706328947	0	0.37	1.56	1	141.59055169	141.696922787	"6"	3327.948714419	3325.861389765	1.5	0.1
0.01	1	0.843077683000047	1	45	NA	144.706328947	0	0.37	1.56	1	141.924424004	142.767501687	"6"	3327.948714419	3325.861389765	1.5	0.1
0.01	1	0.00225840900020557	1	45	NA	144.706328947	0	0.37	1.56	1	142.992951061	142.99520947	"6"	3327.948714419	3325.861389765	1.5	0.1
0.01	1	0.828903124000135	1	45	NA	144.706328947	0	0.37	1.56	1	143.226761571	144.055664695	"6"	3327.948714419	3325.861389765	1.5	0.1
0.01	1	0.426308143999904	2	45	NA	144.706328947	0	0.37	1.56	1	144.27844406	144.704752204	"6"	3327.948714419	3325.861389765	1.5	0.1
0.01	1	0.42658123199999	1	10	149.756735022	NA	1	0	1.56	1	146.766015621	147.192596853	"7"	3327.948714419	3325.861389765	1.5	0.1
0.01	1	0.08678372400027	1	10	149.756735022	NA	1	0	1.56	1	147.433693606	147.52047733	"7"	3327.948714419	3325.861389765	1.5	0.1
0.01	1	0.00230024099982984	1	10	149.756735022	NA	1	0	1.56	1	147.750918085	147.753218326	"7"	3327.948714419	3325.861389765	1.5	0.1
0.01	1	0.0633022580000215	1	10	149.756735022	NA	1	0	1.56	1	147.98461739	148.047919648	"7"	3327.948714419	3325.861389765	1.5	0.1
0.01	1	0.00415039700010311	1	10	149.756735022	NA	1	0	1.56	1	148.285129527	148.289279924	"7"	3327.948714419	3325.861389765	1.5	0.1
0.01	1	0.0243701079998573	1	10	149.756735022	NA	1	0	1.56	1	148.518906312	148.54327642	"7"	3327.948714419	3325.861389765	1.5	0.1
0.01	1	0.00228921600000831	1	10	149.756735022	NA	1	0	1.56	1	148.76932823	148.771617446	"7"	3327.948714419	3325.861389765	1.5	0.1
0.01	1	0.0924604139995608	1	10	149.756735022	NA	1	0	1.56	1	149.003026957	149.095487371	"7"	3327.948714419	3325.861389765	1.5	0.1
0.01	1	0.00225885999998354	1	10	149.756735022	NA	1	0	1.56	1	149.320279368	149.322538228	"7"	3327.948714419	3325.861389765	1.5	0.1
0.01	1	0.0878613879999648	1	10	149.756735022	NA	1	0	1.56	1	149.554087861	149.641949249	"7"	3327.948714419	3325.861389765	1.5	0.1
0.01	1	0.314626526999746	1	37	NA	154.683051433	0	0.09	1.65	1	151.807725646	152.122352173	"8"	3327.948714419	3325.861389765	1.5	0.1
0.01	1	0.0885963900000206	1	37	NA	154.683051433	0	0.09	1.65	1	152.358702714	152.447299104	"8"	3327.948714419	3325.861389765	1.5	0.1
0.01	1	0.0022462980000455	1	37	NA	154.683051433	0	0.09	1.65	1	152.67597477	152.678221068	"8"	3327.948714419	3325.861389765	1.5	0.1
0.01	1	0.0594968590003191	1	37	NA	154.683051433	0	0.09	1.65	1	152.909706909	152.969203768	"8"	3327.948714419	3325.861389765	1.5	0.1
0.01	1	0.0021190980000938	1	37	NA	154.683051433	0	0.09	1.65	1	153.19353868	153.195657778	"8"	3327.948714419	3325.861389765	1.5	0.1
0.01	1	0.0843822490001003	1	37	NA	154.683051433	0	0.09	1.65	1	153.427127741	153.51150999	"8"	3327.948714419	3325.861389765	1.5	0.1
0.01	1	0.00222647399959897	1	37	NA	154.683051433	0	0.09	1.65	1	153.744348903	153.746575377	"8"	3327.948714419	3325.861389765	1.5	0.1
0.01	1	0.00220256100010374	1	37	NA	154.683051433	0	0.09	1.65	1	153.978237643	153.980440204	"8"	3327.948714419	3325.861389765	1.5	0.1
0.01	1	0.0436019640001177	1	37	NA	154.683051433	0	0.09	1.65	1	154.211806113	154.255408077	"8"	3327.948714419	3325.861389765	1.5	0.1
0.01	1	0.202433235000171	2	37	NA	154.683051433	0	0.09	1.65	1	154.478878979	154.681312214	"8"	3327.948714419	3325.861389765	1.5	0.1
0.01	1	0.684535722999954	1	108	NA	177.536867704	0	0.61	2.26	1	156.732707447	157.41724317	"9"	3327.948714419	3325.861389765	1.5	0.1
0.01	1	0.00485875200001828	1	108	NA	177.536867704	0	0.61	2.26	1	157.651085637	157.655944389	"9"	3327.948714419	3325.861389765	1.5	0.1
0.01	1	0.100069103999886	1	108	NA	177.536867704	0	0.61	2.26	1	157.884718549	157.984787653	"9"	3327.948714419	3325.861389765	1.5	0.1
0.01	1	0.00227443799985849	1	108	NA	177.536867704	0	0.61	2.26	1	158.218486309	158.220760747	"9"	3327.948714419	3325.861389765	1.5	0.1
0.01	1	0.00220108600024105	1	108	NA	177.536867704	0	0.61	2.26	1	158.452324347	158.454525433	"9"	3327.948714419	3325.861389765	1.5	0.1
0.01	1	0.0977955900002598	1	108	NA	177.536867704	0	0.61	2.26	1	158.685988767	158.783784357	"9"	3327.948714419	3325.861389765	1.5	0.1
0.01	1	0.00229387500030498	1	108	NA	177.536867704	0	0.61	2.26	1	159.019911169	159.022205044	"9"	3327.948714419	3325.861389765	1.5	0.1
0.01	1	0.00217959900010101	1	108	NA	177.536867704	0	0.61	2.26	1	159.253681768	159.255861367	"9"	3327.948714419	3325.861389765	1.5	0.1
0.01	1	0.00466288600000553	1	108	NA	177.536867704	0	0.61	2.26	1	159.487562821	159.492225707	"9"	3327.948714419	3325.861389765	1.5	0.1
0.01	1	0.119649034999838	1	108	NA	177.536867704	0	0.61	2.26	1	159.721068722	159.840717757	"9"	3327.948714419	3325.861389765	1.5	0.1
0.01	1	0.00245403500002794	1	108	NA	177.536867704	0	0.61	2.26	1	160.071713264	160.074167299	"9"	3327.948714419	3325.861389765	1.5	0.1
0.01	1	0.00211942699979772	1	108	NA	177.536867704	0	0.61	2.26	1	160.30538263	160.307502057	"9"	3327.948714419	3325.861389765	1.5	0.1
0.01	1	0.004617949999556	1	108	NA	177.536867704	0	0.61	2.26	1	160.539289137	160.543907087	"9"	3327.948714419	3325.861389765	1.5	0.1
0.01	1	0.00227401100028146	1	108	NA	177.536867704	0	0.61	2.26	1	160.772932042	160.775206053	"9"	3327.948714419	3325.861389765	1.5	0.1
0.01	1	0.569412679999914	1	108	NA	177.536867704	0	0.61	2.26	1	161.006604668	161.576017348	"9"	3327.948714419	3325.861389765	1.5	0.1
0.01	1	0.280612614000347	1	108	NA	177.536867704	0	0.61	2.26	1	161.807951216	162.08856383	"9"	3327.948714419	3325.861389765	1.5	0.1
0.01	1	0.56164402200011	1	108	NA	177.536867704	0	0.61	2.26	1	162.325522097	162.887166119	"9"	3327.948714419	3325.861389765	1.5	0.1
0.01	1	0.648834205000185	1	108	NA	177.536867704	0	0.61	2.26	1	163.110187967	163.759022172	"9"	3327.948714419	3325.861389765	1.5	0.1
0.01	1	0.653422488999695	1	108	NA	177.536867704	0	0.61	2.26	1	163.994962138	164.648384627	"9"	3327.948714419	3325.861389765	1.5	0.1
0.01	1	0.656379866999941	1	108	NA	177.536867704	0	0.61	2.26	1	164.879732149	165.536112016	"9"	3327.948714419	3325.861389765	1.5	0.1
0.01	1	0.787706654999965	1	108	NA	177.536867704	0	0.61	2.26	1	165.764590961	166.552297616	"9"	3327.948714419	3325.861389765	1.5	0.1
0.01	1	0.648503014000198	1	108	NA	177.536867704	0	0.61	2.26	1	166.78297686	167.431479874	"9"	3327.948714419	3325.861389765	1.5	0.1
0.01	1	0.396334033999665	1	108	NA	177.536867704	0	0.61	2.26	1	167.667718518	168.064052552	"9"	3327.948714419	3325.861389765	1.5	0.1
0.01	1	0.0824668370000836	1	108	NA	177.536867704	0	0.61	2.26	1	168.302207553	168.38467439	"9"	3327.948714419	3325.861389765	1.5	0.1
0.01	1	0.0374973789998876	1	108	NA	177.536867704	0	0.61	2.26	1	168.619425503	168.656922882	"9"	3327.948714419	3325.861389765	1.5	0.1
0.01	1	0.00230218099977719	1	108	NA	177.536867704	0	0.61	2.26	1	168.88659068	168.888892861	"9"	3327.948714419	3325.861389765	1.5	0.1
0.01	1	0.00228602599963779	1	108	NA	177.536867704	0	0.61	2.26	1	169.120232604	169.12251863	"9"	3327.948714419	3325.861389765	1.5	0.1
0.01	1	0.00224155100022472	1	108	NA	177.536867704	0	0.61	2.26	1	169.353898605	169.356140156	"9"	3327.948714419	3325.861389765	1.5	0.1
0.01	1	0.00214040399987425	1	108	NA	177.536867704	0	0.61	2.26	1	169.587734436	169.58987484	"9"	3327.948714419	3325.861389765	1.5	0.1
0.01	1	0.002203684000051	1	108	NA	177.536867704	0	0.61	2.26	1	169.821372996	169.82357668	"9"	3327.948714419	3325.861389765	1.5	0.1
0.01	1	0.00241389600023467	1	108	NA	177.536867704	0	0.61	2.26	1	170.055099854	170.05751375	"9"	3327.948714419	3325.861389765	1.5	0.1
0.01	1	0.00228797499994471	1	108	NA	177.536867704	0	0.61	2.26	1	170.288861747	170.291149722	"9"	3327.948714419	3325.861389765	1.5	0.1
0.01	1	0.00227095499985808	1	108	NA	177.536867704	0	0.61	2.26	1	170.522629167	170.524900122	"9"	3327.948714419	3325.861389765	1.5	0.1
0.01	1	0.00217548999989958	1	108	NA	177.536867704	0	0.61	2.26	1	170.756329207	170.758504697	"9"	3327.948714419	3325.861389765	1.5	0.1
0.01	1	0.00232879500026684	1	108	NA	177.536867704	0	0.61	2.26	1	170.990029922	170.992358717	"9"	3327.948714419	3325.861389765	1.5	0.1
0.01	1	0.00215186900004483	1	108	NA	177.536867704	0	0.61	2.26	1	171.223776067	171.225927936	"9"	3327.948714419	3325.861389765	1.5	0.1
0.01	1	0.00225387699993007	1	108	NA	177.536867704	0	0.61	2.26	1	171.457485662	171.459739539	"9"	3327.948714419	3325.861389765	1.5	0.1
0.01	1	0.0022292670000752	1	108	NA	177.536867704	0	0.61	2.26	1	171.691178404	171.693407671	"9"	3327.948714419	3325.861389765	1.5	0.1
0.01	1	0.00245375000031345	1	108	NA	177.536867704	0	0.61	2.26	1	171.925009106	171.927462856	"9"	3327.948714419	3325.861389765	1.5	0.1
0.01	1	0.00229275199990298	1	108	NA	177.536867704	0	0.61	2.26	1	172.15867265	172.160965402	"9"	3327.948714419	3325.861389765	1.5	0.1
0.01	1	0.00227891400027147	1	108	NA	177.536867704	0	0.61	2.26	1	172.392366537	172.394645451	"9"	3327.948714419	3325.861389765	1.5	0.1
0.01	1	0.00238948800006256	1	108	NA	177.536867704	0	0.61	2.26	1	172.626163088	172.628552576	"9"	3327.948714419	3325.861389765	1.5	0.1
0.01	1	0.00222002999998949	1	108	NA	177.536867704	0	0.61	2.26	1	172.85979602	172.86201605	"9"	3327.948714419	3325.861389765	1.5	0.1
0.01	1	0.00233289900006639	1	108	NA	177.536867704	0	0.61	2.26	1	173.093728727	173.096061626	"9"	3327.948714419	3325.861389765	1.5	0.1
0.01	1	0.00228206800011321	1	108	NA	177.536867704	0	0.61	2.26	1	173.327278558	173.329560626	"9"	3327.948714419	3325.861389765	1.5	0.1
0.01	1	0.00224096800002371	1	108	NA	177.536867704	0	0.61	2.26	1	173.561031761	173.563272729	"9"	3327.948714419	3325.861389765	1.5	0.1
0.01	1	0.00246000700008153	1	108	NA	177.536867704	0	0.61	2.26	1	173.794745453	173.79720546	"9"	3327.948714419	3325.861389765	1.5	0.1
0.01	1	0.00216069399994012	1	108	NA	177.536867704	0	0.61	2.26	1	174.028505977	174.030666671	"9"	3327.948714419	3325.861389765	1.5	0.1
0.01	1	0.00213836099965192	1	108	NA	177.536867704	0	0.61	2.26	1	174.262294466	174.264432827	"9"	3327.948714419	3325.861389765	1.5	0.1
0.01	1	0.00238028500007204	1	108	NA	177.536867704	0	0.61	2.26	1	174.495923257	174.498303542	"9"	3327.948714419	3325.861389765	1.5	0.1
0.01	1	0.00204536299997926	1	108	NA	177.536867704	0	0.61	2.26	1	174.729715806	174.731761169	"9"	3327.948714419	3325.861389765	1.5	0.1
0.01	1	0.00229102799994507	1	108	NA	177.536867704	0	0.61	2.26	1	174.963392124	174.965683152	"9"	3327.948714419	3325.861389765	1.5	0.1
0.01	1	0.00244518599993171	1	108	NA	177.536867704	0	0.61	2.26	1	175.197139934	175.19958512	"9"	3327.948714419	3325.861389765	1.5	0.1
0.01	1	0.00214056300001175	1	108	NA	177.536867704	0	0.61	2.26	1	175.430860684	175.433001247	"9"	3327.948714419	3325.861389765	1.5	0.1
0.01	1	0.00230771099995764	1	108	NA	177.536867704	0	0.61	2.26	1	175.664680522	175.666988233	"9"	3327.948714419	3325.861389765	1.5	0.1
0.01	1	0.0021201170002314	1	108	NA	177.536867704	0	0.61	2.26	1	175.898263143	175.90038326	"9"	3327.948714419	3325.861389765	1.5	0.1
0.01	1	0.00223940299974856	1	108	NA	177.536867704	0	0.61	2.26	1	176.131963483	176.134202886	"9"	3327.948714419	3325.861389765	1.5	0.1
0.01	1	0.00225947099988844	1	108	NA	177.536867704	0	0.61	2.26	1	176.36571668	176.367976151	"9"	3327.948714419	3325.861389765	1.5	0.1
0.01	1	0.00349758199990902	1	108	NA	177.536867704	0	0.61	2.26	1	176.599502637	176.603000219	"9"	3327.948714419	3325.861389765	1.5	0.1
0.01	1	0.00230036499988273	1	108	NA	177.536867704	0	0.61	2.26	1	176.833234028	176.835534393	"9"	3327.948714419	3325.861389765	1.5	0.1
0.01	1	0.00230144600027415	1	108	NA	177.536867704	0	0.61	2.26	1	177.06703253	177.069333976	"9"	3327.948714419	3325.861389765	1.5	0.1
0.01	1	0.234471851999842	2	108	NA	177.536867704	0	0.61	2.26	1	177.300693388	177.53516524	"9"	3327.948714419	3325.861389765	1.5	0.1
0.01	1	0.301268251000238	1	18	183.96384937	NA	1	0	2.26	1	179.571079375	179.872347626	"10"	3327.948714419	3325.861389765	1.5	0.1
0.01	1	0.00229434899983971	1	18	183.96384937	NA	1	0	2.26	1	180.105498718	180.107793067	"10"	3327.948714419	3325.861389765	1.5	0.1
0.01	1	0.00230572400005258	1	18	183.96384937	NA	1	0	2.26	1	180.339067837	180.341373561	"10"	3327.948714419	3325.861389765	1.5	0.1
0.01	1	0.00218631400002778	1	18	183.96384937	NA	1	0	2.26	1	180.572801145	180.574987459	"10"	3327.948714419	3325.861389765	1.5	0.1
0.01	1	0.00242227099988668	1	18	183.96384937	NA	1	0	2.26	1	180.806546025	180.808968296	"10"	3327.948714419	3325.861389765	1.5	0.1
0.01	1	0.00364169499971467	1	18	183.96384937	NA	1	0	2.26	1	181.04034717	181.043988865	"10"	3327.948714419	3325.861389765	1.5	0.1
0.01	1	0.00214483700028723	1	18	183.96384937	NA	1	0	2.26	1	181.27407276	181.276217597	"10"	3327.948714419	3325.861389765	1.5	0.1
0.01	1	0.00228647999983878	1	18	183.96384937	NA	1	0	2.26	1	181.507714445	181.510000925	"10"	3327.948714419	3325.861389765	1.5	0.1
0.01	1	0.00230525699998907	1	18	183.96384937	NA	1	0	2.26	1	181.741542412	181.743847669	"10"	3327.948714419	3325.861389765	1.5	0.1
0.01	1	0.00226310300013211	1	18	183.96384937	NA	1	0	2.26	1	181.975230919	181.977494022	"10"	3327.948714419	3325.861389765	1.5	0.1
0.01	1	0.00235683599976255	1	18	183.96384937	NA	1	0	2.26	1	182.208859454	182.21121629	"10"	3327.948714419	3325.861389765	1.5	0.1
0.01	1	0.00229612899966014	1	18	183.96384937	NA	1	0	2.26	1	182.442620872	182.444917001	"10"	3327.948714419	3325.861389765	1.5	0.1
0.01	1	0.00229601099999854	1	18	183.96384937	NA	1	0	2.26	1	182.676442817	182.678738828	"10"	3327.948714419	3325.861389765	1.5	0.1
0.01	1	0.00216965799972968	1	18	183.96384937	NA	1	0	2.26	1	182.910106871	182.912276529	"10"	3327.948714419	3325.861389765	1.5	0.1
0.01	1	0.00204727699974683	1	18	183.96384937	NA	1	0	2.26	1	183.143965314	183.146012591	"10"	3327.948714419	3325.861389765	1.5	0.1
0.01	1	0.00228778000018792	1	18	183.96384937	NA	1	0	2.26	1	183.377607039	183.379894819	"10"	3327.948714419	3325.861389765	1.5	0.1
0.01	1	0.0021859459998268	1	18	183.96384937	NA	1	0	2.26	1	183.611223836	183.613409782	"10"	3327.948714419	3325.861389765	1.5	0.1
0.01	1	0.00261439199994129	1	18	183.96384937	NA	1	0	2.26	1	183.845019153	183.847633545	"10"	3327.948714419	3325.861389765	1.5	0.1
0.01	1	0.0022735479997209	1	2	186.350748087	NA	1	0	2.26	1	185.998744755	186.001018303	"11"	3327.948714419	3325.861389765	1.5	0.1
0.01	1	0.00229105300013543	1	2	186.350748087	NA	1	0	2.26	1	186.232362469	186.234653522	"11"	3327.948714419	3325.861389765	1.5	0.1
0.01	1	0.42241907000016	1	107	NA	194.216413609	0	0.22	2.48	1	188.385920838	188.808339908	"12"	3327.948714419	3325.861389765	1.5	0.1
0.01	1	0.164274621000004	1	107	NA	194.216413609	0	0.22	2.48	1	189.037057418	189.201332039	"12"	3327.948714419	3325.861389765	1.5	0.1
0.01	1	0.0504975730000297	1	107	NA	194.216413609	0	0.22	2.48	1	189.437740537	189.48823811	"12"	3327.948714419	3325.861389765	1.5	0.1
0.01	1	0.0547765260002961	1	107	NA	194.216413609	0	0.22	2.48	1	189.721552405	189.776328931	"12"	3327.948714419	3325.861389765	1.5	0.1
0.01	1	0.00265321899996707	1	107	NA	194.216413609	0	0.22	2.48	1	190.005365778	190.008018997	"12"	3327.948714419	3325.861389765	1.5	0.1
0.01	1	0.00214785499974823	1	107	NA	194.216413609	0	0.22	2.48	1	190.239076144	190.241223999	"12"	3327.948714419	3325.861389765	1.5	0.1
0.01	1	0.00237061699999686	1	107	NA	194.216413609	0	0.22	2.48	1	190.472843923	190.47521454	"12"	3327.948714419	3325.861389765	1.5	0.1
0.01	1	0.00231575099996917	1	107	NA	194.216413609	0	0.22	2.48	1	190.706703591	190.709019342	"12"	3327.948714419	3325.861389765	1.5	0.1
0.01	1	0.00229798000009396	1	107	NA	194.216413609	0	0.22	2.48	1	190.940288506	190.942586486	"12"	3327.948714419	3325.861389765	1.5	0.1
0.01	1	0.00247816599994621	1	107	NA	194.216413609	0	0.22	2.48	1	191.174008287	191.176486453	"12"	3327.948714419	3325.861389765	1.5	0.1
0.01	1	0.00230229900034828	1	107	NA	194.216413609	0	0.22	2.48	1	191.407926225	191.410228524	"12"	3327.948714419	3325.861389765	1.5	0.1
0.01	1	0.00312464399985402	1	107	NA	194.216413609	0	0.22	2.48	1	191.641436208	191.644560852	"12"	3327.948714419	3325.861389765	1.5	0.1
0.01	1	0.00225564399988798	1	107	NA	194.216413609	0	0.22	2.48	1	191.875248366	191.87750401	"12"	3327.948714419	3325.861389765	1.5	0.1
0.01	1	0.00218495500030258	1	107	NA	194.216413609	0	0.22	2.48	1	192.108897711	192.111082666	"12"	3327.948714419	3325.861389765	1.5	0.1
0.01	1	0.0022593900002903	1	107	NA	194.216413609	0	0.22	2.48	1	192.342599754	192.344859144	"12"	3327.948714419	3325.861389765	1.5	0.1
0.01	1	0.00214863100018192	1	107	NA	194.216413609	0	0.22	2.48	1	192.576455908	192.578604539	"12"	3327.948714419	3325.861389765	1.5	0.1
0.01	1	0.00353858899961779	1	107	NA	194.216413609	0	0.22	2.48	1	192.810147299	192.813685888	"12"	3327.948714419	3325.861389765	1.5	0.1
0.01	1	0.00222540999993726	1	107	NA	194.216413609	0	0.22	2.48	1	193.043737112	193.045962522	"12"	3327.948714419	3325.861389765	1.5	0.1
0.01	1	0.00233350300004531	1	107	NA	194.216413609	0	0.22	2.48	1	193.2775044	193.279837903	"12"	3327.948714419	3325.861389765	1.5	0.1
0.01	1	0.00232228799995937	1	107	NA	194.216413609	0	0.22	2.48	1	193.51128573	193.513608018	"12"	3327.948714419	3325.861389765	1.5	0.1
0.01	1	0.00224821099982364	1	107	NA	194.216413609	0	0.22	2.48	1	193.745015587	193.747263798	"12"	3327.948714419	3325.861389765	1.5	0.1
0.01	1	0.00259185000004436	1	107	NA	194.216413609	0	0.22	2.48	1	193.978727487	193.981319337	"12"	3327.948714419	3325.861389765	1.5	0.1
0.01	1	0.0024571119997745	2	107	NA	194.216413609	0	0.22	2.48	1	194.212433569	194.214890681	"12"	3327.948714419	3325.861389765	1.5	0.1
0.01	1	0.00229116900027293	1	119	NA	210.377453577	0	0.58	3.06	1	196.265913628	196.268204797	"13"	3327.948714419	3325.861389765	1.5	0.1
0.01	1	0.00234144200021547	1	119	NA	210.377453577	0	0.58	3.06	1	196.499633565	196.501975007	"13"	3327.948714419	3325.861389765	1.5	0.1
0.01	1	0.00227462500015463	1	119	NA	210.377453577	0	0.58	3.06	1	196.733340198	196.735614823	"13"	3327.948714419	3325.861389765	1.5	0.1
0.01	1	0.00221009599999888	1	119	NA	210.377453577	0	0.58	3.06	1	196.967120835	196.969330931	"13"	3327.948714419	3325.861389765	1.5	0.1
0.01	1	0.00228272499998639	1	119	NA	210.377453577	0	0.58	3.06	1	197.200768174	197.203050899	"13"	3327.948714419	3325.861389765	1.5	0.1
0.01	1	0.00269232600021496	1	119	NA	210.377453577	0	0.58	3.06	1	197.434693292	197.437385618	"13"	3327.948714419	3325.861389765	1.5	0.1
0.01	1	0.00231259100019088	1	119	NA	210.377453577	0	0.58	3.06	1	197.66831744	197.670630031	"13"	3327.948714419	3325.861389765	1.5	0.1
0.01	1	0.00231495300022289	1	119	NA	210.377453577	0	0.58	3.06	1	197.901987167	197.90430212	"13"	3327.948714419	3325.861389765	1.5	0.1
0.01	1	0.00259092399983274	1	119	NA	210.377453577	0	0.58	3.06	1	198.135679772	198.138270696	"13"	3327.948714419	3325.861389765	1.5	0.1
0.01	1	0.0024279529998239	1	119	NA	210.377453577	0	0.58	3.06	1	198.369443218	198.371871171	"13"	3327.948714419	3325.861389765	1.5	0.1
0.01	1	0.00233537600024647	1	119	NA	210.377453577	0	0.58	3.06	1	198.603211576	198.605546952	"13"	3327.948714419	3325.861389765	1.5	0.1
0.01	1	0.00215703699996084	1	119	NA	210.377453577	0	0.58	3.06	1	198.83687295	198.839029987	"13"	3327.948714419	3325.861389765	1.5	0.1
0.01	1	0.00222244399992633	1	119	NA	210.377453577	0	0.58	3.06	1	199.07078724	199.073009684	"13"	3327.948714419	3325.861389765	1.5	0.1
0.01	1	0.0023416939998242	1	119	NA	210.377453577	0	0.58	3.06	1	199.304378406	199.3067201	"13"	3327.948714419	3325.861389765	1.5	0.1
0.01	1	0.00218390899999577	1	119	NA	210.377453577	0	0.58	3.06	1	199.538101751	199.54028566	"13"	3327.948714419	3325.861389765	1.5	0.1
0.01	1	0.00226362800003699	1	119	NA	210.377453577	0	0.58	3.06	1	199.771775528	199.774039156	"13"	3327.948714419	3325.861389765	1.5	0.1
0.01	1	0.0022282400000222	1	119	NA	210.377453577	0	0.58	3.06	1	200.005544812	200.007773052	"13"	3327.948714419	3325.861389765	1.5	0.1
0.01	1	0.00223812100011855	1	119	NA	210.377453577	0	0.58	3.06	1	200.239265571	200.241503692	"13"	3327.948714419	3325.861389765	1.5	0.1
0.01	1	0.00252637200037498	1	119	NA	210.377453577	0	0.58	3.06	1	200.473027195	200.475553567	"13"	3327.948714419	3325.861389765	1.5	0.1
0.01	1	0.00223762799987526	1	119	NA	210.377453577	0	0.58	3.06	1	200.706649632	200.70888726	"13"	3327.948714419	3325.861389765	1.5	0.1
0.01	1	0.00230572000009488	1	119	NA	210.377453577	0	0.58	3.06	1	200.94038495	200.94269067	"13"	3327.948714419	3325.861389765	1.5	0.1
0.01	1	0.00227510900003836	1	119	NA	210.377453577	0	0.58	3.06	1	201.174083716	201.176358825	"13"	3327.948714419	3325.861389765	1.5	0.1
0.01	1	0.0021984820000398	1	119	NA	210.377453577	0	0.58	3.06	1	201.407869878	201.41006836	"13"	3327.948714419	3325.861389765	1.5	0.1
0.01	1	0.00232498300010775	1	119	NA	210.377453577	0	0.58	3.06	1	201.641591501	201.643916484	"13"	3327.948714419	3325.861389765	1.5	0.1
0.01	1	0.00236294899968925	1	119	NA	210.377453577	0	0.58	3.06	1	201.875347134	201.877710083	"13"	3327.948714419	3325.861389765	1.5	0.1
0.01	1	0.00343220000013389	1	119	NA	210.377453577	0	0.58	3.06	1	202.109010804	202.112443004	"13"	3327.948714419	3325.861389765	1.5	0.1
0.01	1	0.00249231599991617	1	119	NA	210.377453577	0	0.58	3.06	1	202.342729194	202.34522151	"13"	3327.948714419	3325.861389765	1.5	0.1
0.01	1	0.00251569500005644	1	119	NA	210.377453577	0	0.58	3.06	1	202.576493301	202.579008996	"13"	3327.948714419	3325.861389765	1.5	0.1
0.01	1	0.00241008800003328	1	119	NA	210.377453577	0	0.58	3.06	1	202.810205762	202.81261585	"13"	3327.948714419	3325.861389765	1.5	0.1
0.01	1	0.00329910400023437	1	119	NA	210.377453577	0	0.58	3.06	1	203.04396521	203.047264314	"13"	3327.948714419	3325.861389765	1.5	0.1
0.01	1	0.00237374700009241	1	119	NA	210.377453577	0	0.58	3.06	1	203.27773382	203.280107567	"13"	3327.948714419	3325.861389765	1.5	0.1
0.01	1	0.00230837199978851	1	119	NA	210.377453577	0	0.58	3.06	1	203.51146735	203.513775722	"13"	3327.948714419	3325.861389765	1.5	0.1
0.01	1	0.00228607400003966	1	119	NA	210.377453577	0	0.58	3.06	1	203.745135926	203.747422	"13"	3327.948714419	3325.861389765	1.5	0.1
0.01	1	0.00207269900010942	1	119	NA	210.377453577	0	0.58	3.06	1	203.978996337	203.981069036	"13"	3327.948714419	3325.861389765	1.5	0.1
0.01	1	0.0023027520001051	1	119	NA	210.377453577	0	0.58	3.06	1	204.212734575	204.215037327	"13"	3327.948714419	3325.861389765	1.5	0.1
0.01	1	0.0025957150000977	1	119	NA	210.377453577	0	0.58	3.06	1	204.446290885	204.4488866	"13"	3327.948714419	3325.861389765	1.5	0.1
0.01	1	0.00227632899986929	1	119	NA	210.377453577	0	0.58	3.06	1	204.680097038	204.682373367	"13"	3327.948714419	3325.861389765	1.5	0.1
0.01	1	0.0022826949998489	1	119	NA	210.377453577	0	0.58	3.06	1	204.913824407	204.916107102	"13"	3327.948714419	3325.861389765	1.5	0.1
0.01	1	0.00473604999979216	1	119	NA	210.377453577	0	0.58	3.06	1	205.147634497	205.152370547	"13"	3327.948714419	3325.861389765	1.5	0.1
0.01	1	0.00229745700016792	1	119	NA	210.377453577	0	0.58	3.06	1	205.381280361	205.383577818	"13"	3327.948714419	3325.861389765	1.5	0.1
0.01	1	0.00229135400013547	1	119	NA	210.377453577	0	0.58	3.06	1	205.614925934	205.617217288	"13"	3327.948714419	3325.861389765	1.5	0.1
0.01	1	0.00214704100017116	1	119	NA	210.377453577	0	0.58	3.06	1	205.84865193	205.850798971	"13"	3327.948714419	3325.861389765	1.5	0.1
0.01	1	0.00350257099989904	1	119	NA	210.377453577	0	0.58	3.06	1	206.082465162	206.085967733	"13"	3327.948714419	3325.861389765	1.5	0.1
0.01	1	0.00214031600035014	1	119	NA	210.377453577	0	0.58	3.06	1	206.31617071	206.318311026	"13"	3327.948714419	3325.861389765	1.5	0.1
0.01	1	0.00235737699995298	1	119	NA	210.377453577	0	0.58	3.06	1	206.549806221	206.552163598	"13"	3327.948714419	3325.861389765	1.5	0.1
0.01	1	0.00242176500023561	1	119	NA	210.377453577	0	0.58	3.06	1	206.783623114	206.786044879	"13"	3327.948714419	3325.861389765	1.5	0.1
0.01	1	0.00215562899984434	1	119	NA	210.377453577	0	0.58	3.06	1	207.017264639	207.019420268	"13"	3327.948714419	3325.861389765	1.5	0.1
0.01	1	0.00233515499985515	1	119	NA	210.377453577	0	0.58	3.06	1	207.251132073	207.253467228	"13"	3327.948714419	3325.861389765	1.5	0.1
0.01	1	0.00226615999963542	1	119	NA	210.377453577	0	0.58	3.06	1	207.484761905	207.487028065	"13"	3327.948714419	3325.861389765	1.5	0.1
0.01	1	0.00228215800007092	1	119	NA	210.377453577	0	0.58	3.06	1	207.718464499	207.720746657	"13"	3327.948714419	3325.861389765	1.5	0.1
0.01	1	0.00246713500018814	1	119	NA	210.377453577	0	0.58	3.06	1	207.952251533	207.954718668	"13"	3327.948714419	3325.861389765	1.5	0.1
0.01	1	0.00228889499976503	1	119	NA	210.377453577	0	0.58	3.06	1	208.186012526	208.188301421	"13"	3327.948714419	3325.861389765	1.5	0.1
0.01	1	0.00455277499986551	1	119	NA	210.377453577	0	0.58	3.06	1	208.419812127	208.424364902	"13"	3327.948714419	3325.861389765	1.5	0.1
0.01	1	0.0024544039997636	1	119	NA	210.377453577	0	0.58	3.06	1	208.653460844	208.655915248	"13"	3327.948714419	3325.861389765	1.5	0.1
0.01	1	0.00227339200000642	1	119	NA	210.377453577	0	0.58	3.06	1	208.887084556	208.889357948	"13"	3327.948714419	3325.861389765	1.5	0.1
0.01	1	0.00230432799980917	1	119	NA	210.377453577	0	0.58	3.06	1	209.120824006	209.123128334	"13"	3327.948714419	3325.861389765	1.5	0.1
0.01	1	0.00234111700001449	1	119	NA	210.377453577	0	0.58	3.06	1	209.354642787	209.356983904	"13"	3327.948714419	3325.861389765	1.5	0.1
0.01	1	0.00230088400030581	1	119	NA	210.377453577	0	0.58	3.06	1	209.588390097	209.590690981	"13"	3327.948714419	3325.861389765	1.5	0.1
0.01	1	0.553777411999818	2	119	NA	210.377453577	0	0.58	3.06	1	209.8221097	210.375887112	"13"	3327.948714419	3325.861389765	1.5	0.1
0.01	1	0.00245236099999602	1	71	NA	221.691322509	0	0.38	3.44	1	212.426418164	212.428870525	"14"	3327.948714419	3325.861389765	1.5	0.1
0.01	1	0.00245116900032372	1	71	NA	221.691322509	0	0.38	3.44	1	212.660178804	212.662629973	"14"	3327.948714419	3325.861389765	1.5	0.1
0.01	1	0.00357167600031971	1	71	NA	221.691322509	0	0.38	3.44	1	212.893972652	212.897544328	"14"	3327.948714419	3325.861389765	1.5	0.1
0.01	1	0.0023031999999148	1	71	NA	221.691322509	0	0.38	3.44	1	213.127532253	213.129835453	"14"	3327.948714419	3325.861389765	1.5	0.1
0.01	1	0.00261760700004743	1	71	NA	221.691322509	0	0.38	3.44	1	213.361315453	213.36393306	"14"	3327.948714419	3325.861389765	1.5	0.1
0.01	1	0.00235837599984734	1	71	NA	221.691322509	0	0.38	3.44	1	213.59508713	213.597445506	"14"	3327.948714419	3325.861389765	1.5	0.1
0.01	1	0.00221730100020068	1	71	NA	221.691322509	0	0.38	3.44	1	213.82892623	213.831143531	"14"	3327.948714419	3325.861389765	1.5	0.1
0.01	1	0.00229669300006208	1	71	NA	221.691322509	0	0.38	3.44	1	214.062491274	214.064787967	"14"	3327.948714419	3325.861389765	1.5	0.1
0.01	1	0.00228069700006017	1	71	NA	221.691322509	0	0.38	3.44	1	214.296181915	214.298462612	"14"	3327.948714419	3325.861389765	1.5	0.1
0.01	1	0.00254800199991223	1	71	NA	221.691322509	0	0.38	3.44	1	214.52995082	214.532498822	"14"	3327.948714419	3325.861389765	1.5	0.1
0.01	1	0.00216436300024725	1	71	NA	221.691322509	0	0.38	3.44	1	214.763642224	214.765806587	"14"	3327.948714419	3325.861389765	1.5	0.1
0.01	1	0.00242416099990805	1	71	NA	221.691322509	0	0.38	3.44	1	214.997400309	214.99982447	"14"	3327.948714419	3325.861389765	1.5	0.1
0.01	1	0.00228111000024001	1	71	NA	221.691322509	0	0.38	3.44	1	215.231127997	215.233409107	"14"	3327.948714419	3325.861389765	1.5	0.1
0.01	1	0.00241556500031948	1	71	NA	221.691322509	0	0.38	3.44	1	215.46489618	215.467311745	"14"	3327.948714419	3325.861389765	1.5	0.1
0.01	1	0.00209109400020679	1	71	NA	221.691322509	0	0.38	3.44	1	215.698721282	215.700812376	"14"	3327.948714419	3325.861389765	1.5	0.1
0.01	1	0.00227881000000707	1	71	NA	221.691322509	0	0.38	3.44	1	215.93245543	215.93473424	"14"	3327.948714419	3325.861389765	1.5	0.1
0.01	1	0.00242647000004581	1	71	NA	221.691322509	0	0.38	3.44	1	216.16608307	216.16850954	"14"	3327.948714419	3325.861389765	1.5	0.1
0.01	1	0.00380110500009323	1	71	NA	221.691322509	0	0.38	3.44	1	216.399788314	216.403589419	"14"	3327.948714419	3325.861389765	1.5	0.1
0.01	1	0.00227966600004947	1	71	NA	221.691322509	0	0.38	3.44	1	216.633537165	216.635816831	"14"	3327.948714419	3325.861389765	1.5	0.1
0.01	1	0.00229760799993528	1	71	NA	221.691322509	0	0.38	3.44	1	216.867170719	216.869468327	"14"	3327.948714419	3325.861389765	1.5	0.1
0.01	1	0.00228579099984927	1	71	NA	221.691322509	0	0.38	3.44	1	217.100889157	217.103174948	"14"	3327.948714419	3325.861389765	1.5	0.1
0.01	1	0.00269905499999368	1	71	NA	221.691322509	0	0.38	3.44	1	217.334739664	217.337438719	"14"	3327.948714419	3325.861389765	1.5	0.1
0.01	1	0.0025189819998559	1	71	NA	221.691322509	0	0.38	3.44	1	217.568378347	217.570897329	"14"	3327.948714419	3325.861389765	1.5	0.1
0.01	1	0.00227683399998568	1	71	NA	221.691322509	0	0.38	3.44	1	217.80218472	217.804461554	"14"	3327.948714419	3325.861389765	1.5	0.1
0.01	1	0.00230501899977753	1	71	NA	221.691322509	0	0.38	3.44	1	218.035792484	218.038097503	"14"	3327.948714419	3325.861389765	1.5	0.1
0.01	1	0.00222473500025444	1	71	NA	221.691322509	0	0.38	3.44	1	218.269659626	218.271884361	"14"	3327.948714419	3325.861389765	1.5	0.1
0.01	1	0.00229225199973371	1	71	NA	221.691322509	0	0.38	3.44	1	218.503273534	218.505565786	"14"	3327.948714419	3325.861389765	1.5	0.1
0.01	1	0.00256981299980907	1	71	NA	221.691322509	0	0.38	3.44	1	218.73705074	218.739620553	"14"	3327.948714419	3325.861389765	1.5	0.1
0.01	1	0.00250266299963187	1	71	NA	221.691322509	0	0.38	3.44	1	218.970818994	218.973321657	"14"	3327.948714419	3325.861389765	1.5	0.1
0.01	1	0.0022773989999223	1	71	NA	221.691322509	0	0.38	3.44	1	219.204521941	219.20679934	"14"	3327.948714419	3325.861389765	1.5	0.1
0.01	1	0.00209672800019689	1	71	NA	221.691322509	0	0.38	3.44	1	219.438220659	219.440317387	"14"	3327.948714419	3325.861389765	1.5	0.1
0.01	1	0.00249960100018143	1	71	NA	221.691322509	0	0.38	3.44	1	219.67202938	219.674528981	"14"	3327.948714419	3325.861389765	1.5	0.1
0.01	1	0.00247248599998784	1	71	NA	221.691322509	0	0.38	3.44	1	219.905702201	219.908174687	"14"	3327.948714419	3325.861389765	1.5	0.1
0.01	1	0.00238866100016821	1	71	NA	221.691322509	0	0.38	3.44	1	220.139392574	220.141781235	"14"	3327.948714419	3325.861389765	1.5	0.1
0.01	1	0.0040079280001919	1	71	NA	221.691322509	0	0.38	3.44	1	220.373258442	220.37726637	"14"	3327.948714419	3325.861389765	1.5	0.1
0.01	1	0.00226532900023813	1	71	NA	221.691322509	0	0.38	3.44	1	220.6068926	220.609157929	"14"	3327.948714419	3325.861389765	1.5	0.1
0.01	1	0.00250706700035153	1	71	NA	221.691322509	0	0.38	3.44	1	220.84058303	220.843090097	"14"	3327.948714419	3325.861389765	1.5	0.1
0.01	1	0.00353192100010347	1	71	NA	221.691322509	0	0.38	3.44	1	221.07424211	221.077774031	"14"	3327.948714419	3325.861389765	1.5	0.1
0.01	1	0.381421132000014	2	71	NA	221.691322509	0	0.38	3.44	1	221.308143807	221.689564939	"14"	3327.948714419	3325.861389765	1.5	0.1
0.01	1	0.00218353200034471	1	32	231.094552047	NA	1	0	3.44	1	223.728711037	223.730894569	"15"	3327.948714419	3325.861389765	1.5	0.1
0.01	1	0.00230073399961839	1	32	231.094552047	NA	1	0	3.44	1	223.96243588	223.964736614	"15"	3327.948714419	3325.861389765	1.5	0.1
0.01	1	0.00238458399962838	1	32	231.094552047	NA	1	0	3.44	1	224.196287093	224.198671677	"15"	3327.948714419	3325.861389765	1.5	0.1
0.01	1	0.00225594999983514	1	32	231.094552047	NA	1	0	3.44	1	224.42997689	224.43223284	"15"	3327.948714419	3325.861389765	1.5	0.1
0.01	1	0.00228305700011333	1	32	231.094552047	NA	1	0	3.44	1	224.663662336	224.665945393	"15"	3327.948714419	3325.861389765	1.5	0.1
0.01	1	0.0035198959999434	1	32	231.094552047	NA	1	0	3.44	1	224.897332394	224.90085229	"15"	3327.948714419	3325.861389765	1.5	0.1
0.01	1	0.00232472200013945	1	32	231.094552047	NA	1	0	3.44	1	225.13121606	225.133540782	"15"	3327.948714419	3325.861389765	1.5	0.1
0.01	1	0.00229888100011522	1	32	231.094552047	NA	1	0	3.44	1	225.36484591	225.367144791	"15"	3327.948714419	3325.861389765	1.5	0.1
0.01	1	0.002450940000017	1	32	231.094552047	NA	1	0	3.44	1	225.598563564	225.601014504	"15"	3327.948714419	3325.861389765	1.5	0.1
0.01	1	0.00265907399989374	1	32	231.094552047	NA	1	0	3.44	1	225.832256818	225.834915892	"15"	3327.948714419	3325.861389765	1.5	0.1
0.01	1	0.00216046000014103	1	32	231.094552047	NA	1	0	3.44	1	226.066084928	226.068245388	"15"	3327.948714419	3325.861389765	1.5	0.1
0.01	1	0.00232358800030852	1	32	231.094552047	NA	1	0	3.44	1	226.299785292	226.30210888	"15"	3327.948714419	3325.861389765	1.5	0.1
0.01	1	0.00475062700024864	1	32	231.094552047	NA	1	0	3.44	1	226.533644752	226.538395379	"15"	3327.948714419	3325.861389765	1.5	0.1
0.01	1	0.00254717500001789	1	32	231.094552047	NA	1	0	3.44	1	226.767236806	226.769783981	"15"	3327.948714419	3325.861389765	1.5	0.1
0.01	1	0.0023833889999878	1	32	231.094552047	NA	1	0	3.44	1	227.000969478	227.003352867	"15"	3327.948714419	3325.861389765	1.5	0.1
0.01	1	0.0024907910001275	1	32	231.094552047	NA	1	0	3.44	1	227.234628037	227.237118828	"15"	3327.948714419	3325.861389765	1.5	0.1
0.01	1	0.00228565799989155	1	32	231.094552047	NA	1	0	3.44	1	227.468495478	227.470781136	"15"	3327.948714419	3325.861389765	1.5	0.1
0.01	1	0.00214902400011852	1	32	231.094552047	NA	1	0	3.44	1	227.702210268	227.704359292	"15"	3327.948714419	3325.861389765	1.5	0.1
0.01	1	0.00268422299996018	1	32	231.094552047	NA	1	0	3.44	1	227.935905744	227.938589967	"15"	3327.948714419	3325.861389765	1.5	0.1
0.01	1	0.00219570700028271	1	32	231.094552047	NA	1	0	3.44	1	228.169521944	228.171717651	"15"	3327.948714419	3325.861389765	1.5	0.1
0.01	1	0.00277719999985493	1	32	231.094552047	NA	1	0	3.44	1	228.403233077	228.406010277	"15"	3327.948714419	3325.861389765	1.5	0.1
0.01	1	0.00234251000028962	1	32	231.094552047	NA	1	0	3.44	1	228.637088611	228.639431121	"15"	3327.948714419	3325.861389765	1.5	0.1
0.01	1	0.00468595700021979	1	32	231.094552047	NA	1	0	3.44	1	228.870905377	228.875591334	"15"	3327.948714419	3325.861389765	1.5	0.1
0.01	1	0.00237909500037858	1	32	231.094552047	NA	1	0	3.44	1	229.104555183	229.106934278	"15"	3327.948714419	3325.861389765	1.5	0.1
0.01	1	0.00221603899990441	1	32	231.094552047	NA	1	0	3.44	1	229.338251562	229.340467601	"15"	3327.948714419	3325.861389765	1.5	0.1
0.01	1	0.00235367999994196	1	32	231.094552047	NA	1	0	3.44	1	229.571938894	229.574292574	"15"	3327.948714419	3325.861389765	1.5	0.1
0.01	1	0.00243135499977143	1	32	231.094552047	NA	1	0	3.44	1	229.805693442	229.808124797	"15"	3327.948714419	3325.861389765	1.5	0.1
0.01	1	0.00233247799997116	1	32	231.094552047	NA	1	0	3.44	1	230.039357891	230.041690369	"15"	3327.948714419	3325.861389765	1.5	0.1
0.01	1	0.00239309700009471	1	32	231.094552047	NA	1	0	3.44	1	230.27313986	230.275532957	"15"	3327.948714419	3325.861389765	1.5	0.1
0.01	1	0.00240600100005395	1	32	231.094552047	NA	1	0	3.44	1	230.50679315	230.509199151	"15"	3327.948714419	3325.861389765	1.5	0.1
0.01	1	0.00272819500014521	1	32	231.094552047	NA	1	0	3.44	1	230.740681344	230.743409539	"15"	3327.948714419	3325.861389765	1.5	0.1
0.01	1	0.00254414300025019	1	32	231.094552047	NA	1	0	3.44	1	230.974204016	230.976748159	"15"	3327.948714419	3325.861389765	1.5	0.1
0.01	1	0.111899418000121	1	7	234.765365157	NA	1	0	3.44	1	233.127892389	233.239791807	"16"	3327.948714419	3325.861389765	1.5	0.1
0.01	1	0.00224050299993905	1	7	234.765365157	NA	1	0	3.44	1	233.478472737	233.48071324	"16"	3327.948714419	3325.861389765	1.5	0.1
0.01	1	0.0025940969999283	1	7	234.765365157	NA	1	0	3.44	1	233.712155192	233.714749289	"16"	3327.948714419	3325.861389765	1.5	0.1
0.01	1	0.00229795999985072	1	7	234.765365157	NA	1	0	3.44	1	233.945922984	233.948220944	"16"	3327.948714419	3325.861389765	1.5	0.1
0.01	1	0.00232519800010778	1	7	234.765365157	NA	1	0	3.44	1	234.17984059	234.182165788	"16"	3327.948714419	3325.861389765	1.5	0.1
0.01	1	0.00227547099984804	1	7	234.765365157	NA	1	0	3.44	1	234.413406429	234.4156819	"16"	3327.948714419	3325.861389765	1.5	0.1
0.01	1	0.0022911309997653	1	7	234.765365157	NA	1	0	3.44	1	234.647121497	234.649412628	"16"	3327.948714419	3325.861389765	1.5	0.1
0.01	1	0.00223171100014952	1	49	NA	241.880746084	0	0.21	3.65	1	236.800707178	236.802938889	"17"	3327.948714419	3325.861389765	1.5	0.1
0.01	1	0.00222802700000102	1	49	NA	241.880746084	0	0.21	3.65	1	237.03442849	237.036656517	"17"	3327.948714419	3325.861389765	1.5	0.1
0.01	1	0.00216928100007863	1	49	NA	241.880746084	0	0.21	3.65	1	237.268385609	237.27055489	"17"	3327.948714419	3325.861389765	1.5	0.1
0.01	1	0.00219915699972262	1	49	NA	241.880746084	0	0.21	3.65	1	237.501896871	237.504096028	"17"	3327.948714419	3325.861389765	1.5	0.1
0.01	1	0.00399730899971473	1	49	NA	241.880746084	0	0.21	3.65	1	237.735736992	237.739734301	"17"	3327.948714419	3325.861389765	1.5	0.1
0.01	1	0.00475052999991021	1	49	NA	241.880746084	0	0.21	3.65	1	237.969516307	237.974266837	"17"	3327.948714419	3325.861389765	1.5	0.1
0.01	1	0.00228383700004997	1	49	NA	241.880746084	0	0.21	3.65	1	238.203066659	238.205350496	"17"	3327.948714419	3325.861389765	1.5	0.1
0.01	1	0.00225727699989875	1	49	NA	241.880746084	0	0.21	3.65	1	238.436805526	238.439062803	"17"	3327.948714419	3325.861389765	1.5	0.1
0.01	1	0.00217720299997382	1	49	NA	241.880746084	0	0.21	3.65	1	238.670536426	238.672713629	"17"	3327.948714419	3325.861389765	1.5	0.1
0.01	1	0.00325248599983752	1	49	NA	241.880746084	0	0.21	3.65	1	238.904342096	238.907594582	"17"	3327.948714419	3325.861389765	1.5	0.1
0.01	1	0.00228272000003926	1	49	NA	241.880746084	0	0.21	3.65	1	239.137938297	239.140221017	"17"	3327.948714419	3325.861389765	1.5	0.1
0.01	1	0.00217185700012124	1	49	NA	241.880746084	0	0.21	3.65	1	239.371781679	239.373953536	"17"	3327.948714419	3325.861389765	1.5	0.1
0.01	1	0.00218795699993279	1	49	NA	241.880746084	0	0.21	3.65	1	239.605496133	239.60768409	"17"	3327.948714419	3325.861389765	1.5	0.1
0.01	1	0.00222995200010701	1	49	NA	241.880746084	0	0.21	3.65	1	239.839146834	239.841376786	"17"	3327.948714419	3325.861389765	1.5	0.1
0.01	1	0.00224152900000263	1	49	NA	241.880746084	0	0.21	3.65	1	240.072917102	240.075158631	"17"	3327.948714419	3325.861389765	1.5	0.1
0.01	1	0.00221744700002091	1	49	NA	241.880746084	0	0.21	3.65	1	240.306649299	240.308866746	"17"	3327.948714419	3325.861389765	1.5	0.1
0.01	1	0.00225704700005736	1	49	NA	241.880746084	0	0.21	3.65	1	240.540366197	240.542623244	"17"	3327.948714419	3325.861389765	1.5	0.1
0.01	1	0.00228316299990183	1	49	NA	241.880746084	0	0.21	3.65	1	240.774055962	240.776339125	"17"	3327.948714419	3325.861389765	1.5	0.1
0.01	1	0.00330436800004463	1	49	NA	241.880746084	0	0.21	3.65	1	241.007934772	241.01123914	"17"	3327.948714419	3325.861389765	1.5	0.1
0.01	1	0.00216542799989838	1	49	NA	241.880746084	0	0.21	3.65	1	241.241505389	241.243670817	"17"	3327.948714419	3325.861389765	1.5	0.1
0.01	1	0.00226838299977317	1	49	NA	241.880746084	0	0.21	3.65	1	241.475256356	241.477524739	"17"	3327.948714419	3325.861389765	1.5	0.1
0.01	1	0.170120489000055	2	49	NA	241.880746084	0	0.21	3.65	1	241.70905643	241.879176919	"17"	3327.948714419	3325.861389765	1.5	0.1
0.01	1	0.00224216200012961	1	17	247.788658332	NA	1	0	3.65	1	243.92935452	243.931596682	"18"	3327.948714419	3325.861389765	1.5	0.1
0.01	1	0.00227210600041872	1	17	247.788658332	NA	1	0	3.65	1	244.163194343	244.165466449	"18"	3327.948714419	3325.861389765	1.5	0.1
0.01	1	0.00223949200017159	1	17	247.788658332	NA	1	0	3.65	1	244.396849462	244.399088954	"18"	3327.948714419	3325.861389765	1.5	0.1
0.01	1	0.00245727500032444	1	17	247.788658332	NA	1	0	3.65	1	244.630544024	244.633001299	"18"	3327.948714419	3325.861389765	1.5	0.1
0.01	1	0.00206854199996087	1	17	247.788658332	NA	1	0	3.65	1	244.864429742	244.866498284	"18"	3327.948714419	3325.861389765	1.5	0.1
0.01	1	0.00216213300018353	1	17	247.788658332	NA	1	0	3.65	1	245.098055296	245.100217429	"18"	3327.948714419	3325.861389765	1.5	0.1
0.01	1	0.00213161300007414	1	17	247.788658332	NA	1	0	3.65	1	245.331847256	245.333978869	"18"	3327.948714419	3325.861389765	1.5	0.1
0.01	1	0.00226805900001636	1	17	247.788658332	NA	1	0	3.65	1	245.565543117	245.567811176	"18"	3327.948714419	3325.861389765	1.5	0.1
0.01	1	0.00220449100015685	1	17	247.788658332	NA	1	0	3.65	1	245.79929758	245.801502071	"18"	3327.948714419	3325.861389765	1.5	0.1
0.01	1	0.00231981199976872	1	17	247.788658332	NA	1	0	3.65	1	246.032886844	246.035206656	"18"	3327.948714419	3325.861389765	1.5	0.1
0.01	1	0.00222575299994787	1	17	247.788658332	NA	1	0	3.65	1	246.266700368	246.268926121	"18"	3327.948714419	3325.861389765	1.5	0.1
0.01	1	0.0022176259999469	1	17	247.788658332	NA	1	0	3.65	1	246.500344131	246.502561757	"18"	3327.948714419	3325.861389765	1.5	0.1
0.01	1	0.00226765000024898	1	17	247.788658332	NA	1	0	3.65	1	246.734159714	246.736427364	"18"	3327.948714419	3325.861389765	1.5	0.1
0.01	1	0.00215964899962273	1	17	247.788658332	NA	1	0	3.65	1	246.96795697	246.970116619	"18"	3327.948714419	3325.861389765	1.5	0.1
0.01	1	0.00207692499998302	1	17	247.788658332	NA	1	0	3.65	1	247.201688064	247.203764989	"18"	3327.948714419	3325.861389765	1.5	0.1
0.01	1	0.00227133099997445	1	17	247.788658332	NA	1	0	3.65	1	247.435327119	247.43759845	"18"	3327.948714419	3325.861389765	1.5	0.1
0.01	1	0.00217713300025935	1	17	247.788658332	NA	1	0	3.65	1	247.669027344	247.671204477	"18"	3327.948714419	3325.861389765	1.5	0.1
0.01	1	0.00211975999991409	1	20	NA	252.794271551	0	0.12	3.77	1	249.822653578	249.824773338	"19"	3327.948714419	3325.861389765	1.5	0.1
0.01	1	0.00215772599995034	1	20	NA	252.794271551	0	0.12	3.77	1	250.056399751	250.058557477	"19"	3327.948714419	3325.861389765	1.5	0.1
0.01	1	0.00223471500021333	1	20	NA	252.794271551	0	0.12	3.77	1	250.290087599	250.292322314	"19"	3327.948714419	3325.861389765	1.5	0.1
0.01	1	0.00256791399988288	1	20	NA	252.794271551	0	0.12	3.77	1	250.523902293	250.526470207	"19"	3327.948714419	3325.861389765	1.5	0.1
0.01	1	0.00343014800000674	1	20	NA	252.794271551	0	0.12	3.77	1	250.757677254	250.761107402	"19"	3327.948714419	3325.861389765	1.5	0.1
0.01	1	0.00229364899996654	1	20	NA	252.794271551	0	0.12	3.77	1	250.991290931	250.99358458	"19"	3327.948714419	3325.861389765	1.5	0.1
0.01	1	0.00215538000020388	1	20	NA	252.794271551	0	0.12	3.77	1	251.224968486	251.227123866	"19"	3327.948714419	3325.861389765	1.5	0.1
0.01	1	0.00219327000013436	1	20	NA	252.794271551	0	0.12	3.77	1	251.458837528	251.461030798	"19"	3327.948714419	3325.861389765	1.5	0.1
0.01	1	0.00337574300010601	1	20	NA	252.794271551	0	0.12	3.77	1	251.692484186	251.695859929	"19"	3327.948714419	3325.861389765	1.5	0.1
0.01	1	0.00228749200005041	1	20	NA	252.794271551	0	0.12	3.77	1	251.926168526	251.928456018	"19"	3327.948714419	3325.861389765	1.5	0.1
0.01	1	0.0039514070003861	1	20	NA	252.794271551	0	0.12	3.77	1	252.159904157	252.163855564	"19"	3327.948714419	3325.861389765	1.5	0.1
0.01	1	0.00224223200029883	1	20	NA	252.794271551	0	0.12	3.77	1	252.393780175	252.396022407	"19"	3327.948714419	3325.861389765	1.5	0.1
0.01	1	0.165128959999947	2	20	NA	252.794271551	0	0.12	3.77	1	252.627399157	252.792528117	"19"	3327.948714419	3325.861389765	1.5	0.1
0.01	1	0.00362810799970248	1	21	259.640513059	NA	1	0	3.77	1	254.847763863	254.851391971	"20"	3327.948714419	3325.861389765	1.5	0.1
0.01	1	0.00230023299991444	1	21	259.640513059	NA	1	0	3.77	1	255.081487241	255.083787474	"20"	3327.948714419	3325.861389765	1.5	0.1
0.01	1	0.00233086100024593	1	21	259.640513059	NA	1	0	3.77	1	255.315199017	255.317529878	"20"	3327.948714419	3325.861389765	1.5	0.1
0.01	1	0.00231971899984273	1	21	259.640513059	NA	1	0	3.77	1	255.548950573	255.551270292	"20"	3327.948714419	3325.861389765	1.5	0.1
0.01	1	0.00238591800007271	1	21	259.640513059	NA	1	0	3.77	1	255.782699737	255.785085655	"20"	3327.948714419	3325.861389765	1.5	0.1
0.01	1	0.00240291099999013	1	21	259.640513059	NA	1	0	3.77	1	256.016392835	256.018795746	"20"	3327.948714419	3325.861389765	1.5	0.1
0.01	1	0.0021728499996243	1	21	259.640513059	NA	1	0	3.77	1	256.250051757	256.252224607	"20"	3327.948714419	3325.861389765	1.5	0.1
0.01	1	0.00230603699992571	1	21	259.640513059	NA	1	0	3.77	1	256.483797575	256.486103612	"20"	3327.948714419	3325.861389765	1.5	0.1
0.01	1	0.00229465099982917	1	21	259.640513059	NA	1	0	3.77	1	256.717686933	256.719981584	"20"	3327.948714419	3325.861389765	1.5	0.1
0.01	1	0.00227408999990075	1	21	259.640513059	NA	1	0	3.77	1	256.95132191	256.953596	"20"	3327.948714419	3325.861389765	1.5	0.1
0.01	1	0.0024004239999158	1	21	259.640513059	NA	1	0	3.77	1	257.18510022	257.187500644	"20"	3327.948714419	3325.861389765	1.5	0.1
0.01	1	0.0024210269998548	1	21	259.640513059	NA	1	0	3.77	1	257.418693615	257.421114642	"20"	3327.948714419	3325.861389765	1.5	0.1
0.01	1	0.00215586500007703	1	21	259.640513059	NA	1	0	3.77	1	257.652462946	257.654618811	"20"	3327.948714419	3325.861389765	1.5	0.1
0.01	1	0.00213064900026438	1	21	259.640513059	NA	1	0	3.77	1	257.886271338	257.888401987	"20"	3327.948714419	3325.861389765	1.5	0.1
0.01	1	0.00234219599997232	1	21	259.640513059	NA	1	0	3.77	1	258.119946711	258.122288907	"20"	3327.948714419	3325.861389765	1.5	0.1
0.01	1	0.00224975199989785	1	21	259.640513059	NA	1	0	3.77	1	258.353691916	258.355941668	"20"	3327.948714419	3325.861389765	1.5	0.1
0.01	1	0.00229151100029412	1	21	259.640513059	NA	1	0	3.77	1	258.587410706	258.589702217	"20"	3327.948714419	3325.861389765	1.5	0.1
0.01	1	0.00229941799989319	1	21	259.640513059	NA	1	0	3.77	1	258.821092484	258.823391902	"20"	3327.948714419	3325.861389765	1.5	0.1
0.01	1	0.00228027799994379	1	21	259.640513059	NA	1	0	3.77	1	259.054864932	259.05714521	"20"	3327.948714419	3325.861389765	1.5	0.1
0.01	1	0.0022765939997953	1	21	259.640513059	NA	1	0	3.77	1	259.288570427	259.290847021	"20"	3327.948714419	3325.861389765	1.5	0.1
0.01	1	0.00342186899979424	1	21	259.640513059	NA	1	0	3.77	1	259.522587242	259.526009111	"20"	3327.948714419	3325.861389765	1.5	0.1
0.01	1	0.00230379300001005	1	26	NA	267.065449587	0	0.21	3.98	1	261.692584995	261.694888788	"21"	3327.948714419	3325.861389765	1.5	0.1
0.01	1	0.00216309699999329	1	26	NA	267.065449587	0	0.21	3.98	1	261.926503931	261.928667028	"21"	3327.948714419	3325.861389765	1.5	0.1
0.01	1	0.00229831300021033	1	26	NA	267.065449587	0	0.21	3.98	1	262.160099757	262.16239807	"21"	3327.948714419	3325.861389765	1.5	0.1
0.01	1	0.0024772669999038	1	26	NA	267.065449587	0	0.21	3.98	1	262.393880077	262.396357344	"21"	3327.948714419	3325.861389765	1.5	0.1
0.01	1	0.00216094799998245	1	26	NA	267.065449587	0	0.21	3.98	1	262.627480244	262.629641192	"21"	3327.948714419	3325.861389765	1.5	0.1
0.01	1	0.00215946299977077	1	26	NA	267.065449587	0	0.21	3.98	1	262.861188289	262.863347752	"21"	3327.948714419	3325.861389765	1.5	0.1
0.01	1	0.0021448830002555	1	26	NA	267.065449587	0	0.21	3.98	1	263.094954719	263.097099602	"21"	3327.948714419	3325.861389765	1.5	0.1
0.01	1	0.00228737099996579	1	26	NA	267.065449587	0	0.21	3.98	1	263.328712715	263.331000086	"21"	3327.948714419	3325.861389765	1.5	0.1
0.01	1	0.00228722600013498	1	26	NA	267.065449587	0	0.21	3.98	1	263.562429301	263.564716527	"21"	3327.948714419	3325.861389765	1.5	0.1
0.01	1	0.00212518999978784	1	26	NA	267.065449587	0	0.21	3.98	1	263.796138147	263.798263337	"21"	3327.948714419	3325.861389765	1.5	0.1
0.01	1	0.00213600699999006	1	26	NA	267.065449587	0	0.21	3.98	1	264.029822583	264.03195859	"21"	3327.948714419	3325.861389765	1.5	0.1
0.01	1	0.00237095200009207	1	26	NA	267.065449587	0	0.21	3.98	1	264.263568388	264.26593934	"21"	3327.948714419	3325.861389765	1.5	0.1
0.01	1	0.00212734199976694	1	26	NA	267.065449587	0	0.21	3.98	1	264.497322785	264.499450127	"21"	3327.948714419	3325.861389765	1.5	0.1
0.01	1	0.00231765600028666	1	26	NA	267.065449587	0	0.21	3.98	1	264.731089441	264.733407097	"21"	3327.948714419	3325.861389765	1.5	0.1
0.01	1	0.00229784000021027	1	26	NA	267.065449587	0	0.21	3.98	1	264.964822599	264.967120439	"21"	3327.948714419	3325.861389765	1.5	0.1
0.01	1	0.00228303799985952	1	26	NA	267.065449587	0	0.21	3.98	1	265.198476333	265.200759371	"21"	3327.948714419	3325.861389765	1.5	0.1
0.01	1	0.00229365999985021	1	26	NA	267.065449587	0	0.21	3.98	1	265.432241209	265.434534869	"21"	3327.948714419	3325.861389765	1.5	0.1
0.01	1	0.00271475799991094	1	26	NA	267.065449587	0	0.21	3.98	1	265.666013733	265.668728491	"21"	3327.948714419	3325.861389765	1.5	0.1
0.01	1	0.00358845400023711	1	26	NA	267.065449587	0	0.21	3.98	1	265.899747098	265.903335552	"21"	3327.948714419	3325.861389765	1.5	0.1
0.01	1	0.0023147639999479	1	26	NA	267.065449587	0	0.21	3.98	1	266.13342251	266.135737274	"21"	3327.948714419	3325.861389765	1.5	0.1
0.01	1	0.00217278999980408	1	26	NA	267.065449587	0	0.21	3.98	1	266.367111819	266.369284609	"21"	3327.948714419	3325.861389765	1.5	0.1
0.01	1	0.463085604000298	2	26	NA	267.065449587	0	0.21	3.98	1	266.60081259	267.063898194	"21"	3327.948714419	3325.861389765	1.5	0.1
0.01	1	0.00229376900006173	1	97	NA	289.28854438	0	0.74	4.72	1	269.10508363	269.107377399	"22"	3327.948714419	3325.861389765	1.5	0.1
0.01	1	0.00250685000037265	1	97	NA	289.28854438	0	0.74	4.72	1	269.338844135	269.341350985	"22"	3327.948714419	3325.861389765	1.5	0.1
0.01	1	0.00216049699974974	1	97	NA	289.28854438	0	0.74	4.72	1	269.572564473	269.57472497	"22"	3327.948714419	3325.861389765	1.5	0.1
0.01	1	0.00260790299989822	1	97	NA	289.28854438	0	0.74	4.72	1	269.806308222	269.808916125	"22"	3327.948714419	3325.861389765	1.5	0.1
0.01	1	0.00246432999983881	1	97	NA	289.28854438	0	0.74	4.72	1	270.04003594	270.04250027	"22"	3327.948714419	3325.861389765	1.5	0.1
0.01	1	0.00311438100015948	1	97	NA	289.28854438	0	0.74	4.72	1	270.273793672	270.276908053	"22"	3327.948714419	3325.861389765	1.5	0.1
0.01	1	0.00208981100013261	1	97	NA	289.28854438	0	0.74	4.72	1	270.507481998	270.509571809	"22"	3327.948714419	3325.861389765	1.5	0.1
0.01	1	0.00233916199977102	1	97	NA	289.28854438	0	0.74	4.72	1	270.741264323	270.743603485	"22"	3327.948714419	3325.861389765	1.5	0.1
0.01	1	0.624648568999874	1	97	NA	289.28854438	0	0.74	4.72	1	270.975026524	271.599675093	"22"	3327.948714419	3325.861389765	1.5	0.1
0.01	1	0.00212690199987264	1	97	NA	289.28854438	0	0.74	4.72	1	271.82649479	271.828621692	"22"	3327.948714419	3325.861389765	1.5	0.1
0.01	1	0.00242803599985564	1	97	NA	289.28854438	0	0.74	4.72	1	272.060239074	272.06266711	"22"	3327.948714419	3325.861389765	1.5	0.1
0.01	1	0.00233142699971722	1	97	NA	289.28854438	0	0.74	4.72	1	272.2939276	272.296259027	"22"	3327.948714419	3325.861389765	1.5	0.1
0.01	1	0.00231140000005325	1	97	NA	289.28854438	0	0.74	4.72	1	272.527516567	272.529827967	"22"	3327.948714419	3325.861389765	1.5	0.1
0.01	1	0.00206240000034086	1	97	NA	289.28854438	0	0.74	4.72	1	272.761306776	272.763369176	"22"	3327.948714419	3325.861389765	1.5	0.1
0.01	1	0.00243543000033242	1	97	NA	289.28854438	0	0.74	4.72	1	272.99500474	272.99744017	"22"	3327.948714419	3325.861389765	1.5	0.1
0.01	1	0.0035902019999412	1	97	NA	289.28854438	0	0.74	4.72	1	273.228744286	273.232334488	"22"	3327.948714419	3325.861389765	1.5	0.1
0.01	1	0.00243338700011009	1	97	NA	289.28854438	0	0.74	4.72	1	273.46241521	273.464848597	"22"	3327.948714419	3325.861389765	1.5	0.1
0.01	1	0.511483620000035	1	97	NA	289.28854438	0	0.74	4.72	1	273.696203707	274.207687327	"22"	3327.948714419	3325.861389765	1.5	0.1
0.01	1	0.00239378599962947	1	97	NA	289.28854438	0	0.74	4.72	1	274.43075643	274.433150216	"22"	3327.948714419	3325.861389765	1.5	0.1
0.01	1	0.00241206400005467	1	97	NA	289.28854438	0	0.74	4.72	1	274.664531546	274.66694361	"22"	3327.948714419	3325.861389765	1.5	0.1
0.01	1	0.00211013900025137	1	97	NA	289.28854438	0	0.74	4.72	1	274.898328513	274.900438652	"22"	3327.948714419	3325.861389765	1.5	0.1
0.01	1	0.00232721400016089	1	97	NA	289.28854438	0	0.74	4.72	1	275.131962701	275.134289915	"22"	3327.948714419	3325.861389765	1.5	0.1
0.01	1	0.00206379000019297	1	97	NA	289.28854438	0	0.74	4.72	1	275.365766773	275.367830563	"22"	3327.948714419	3325.861389765	1.5	0.1
0.01	1	0.00231590699968365	1	97	NA	289.28854438	0	0.74	4.72	1	275.599397974	275.601713881	"22"	3327.948714419	3325.861389765	1.5	0.1
0.01	1	0.00221717100021124	1	97	NA	289.28854438	0	0.74	4.72	1	275.833157614	275.835374785	"22"	3327.948714419	3325.861389765	1.5	0.1
0.01	1	0.00229617800005144	1	97	NA	289.28854438	0	0.74	4.72	1	276.066822912	276.06911909	"22"	3327.948714419	3325.861389765	1.5	0.1
0.01	1	0.00368255500006853	1	97	NA	289.28854438	0	0.74	4.72	1	276.300573432	276.304255987	"22"	3327.948714419	3325.861389765	1.5	0.1
0.01	1	0.00217456800010041	1	97	NA	289.28854438	0	0.74	4.72	1	276.534269638	276.536444206	"22"	3327.948714419	3325.861389765	1.5	0.1
0.01	1	0.00222207800015894	1	97	NA	289.28854438	0	0.74	4.72	1	276.767963244	276.770185322	"22"	3327.948714419	3325.861389765	1.5	0.1
0.01	1	0.00241825500006598	1	97	NA	289.28854438	0	0.74	4.72	1	277.001811969	277.004230224	"22"	3327.948714419	3325.861389765	1.5	0.1
0.01	1	0.00215079200006585	1	97	NA	289.28854438	0	0.74	4.72	1	277.235560039	277.237710831	"22"	3327.948714419	3325.861389765	1.5	0.1
0.01	1	0.00227383299989015	1	97	NA	289.28854438	0	0.74	4.72	1	277.469139281	277.471413114	"22"	3327.948714419	3325.861389765	1.5	0.1
0.01	1	0.00238450500000909	1	97	NA	289.28854438	0	0.74	4.72	1	277.702835202	277.705219707	"22"	3327.948714419	3325.861389765	1.5	0.1
0.01	1	0.00227106100010133	1	97	NA	289.28854438	0	0.74	4.72	1	277.936590669	277.93886173	"22"	3327.948714419	3325.861389765	1.5	0.1
0.01	1	0.00227309700039768	1	97	NA	289.28854438	0	0.74	4.72	1	278.17034012	278.172613217	"22"	3327.948714419	3325.861389765	1.5	0.1
0.01	1	0.0022691690001011	1	97	NA	289.28854438	0	0.74	4.72	1	278.404041595	278.406310764	"22"	3327.948714419	3325.861389765	1.5	0.1
0.01	1	0.00246128700018744	1	97	NA	289.28854438	0	0.74	4.72	1	278.637792751	278.640254038	"22"	3327.948714419	3325.861389765	1.5	0.1
0.01	1	0.00229675499986115	1	97	NA	289.28854438	0	0.74	4.72	1	278.871632751	278.873929506	"22"	3327.948714419	3325.861389765	1.5	0.1
0.01	1	0.00476041999991139	1	97	NA	289.28854438	0	0.74	4.72	1	279.105404892	279.110165312	"22"	3327.948714419	3325.861389765	1.5	0.1
0.01	1	0.00230094700009431	1	97	NA	289.28854438	0	0.74	4.72	1	279.339047034	279.341347981	"22"	3327.948714419	3325.861389765	1.5	0.1
0.01	1	0.00230028099986157	1	97	NA	289.28854438	0	0.74	4.72	1	279.572898676	279.575198957	"22"	3327.948714419	3325.861389765	1.5	0.1
0.01	1	0.00219792300003974	1	97	NA	289.28854438	0	0.74	4.72	1	279.806352996	279.808550919	"22"	3327.948714419	3325.861389765	1.5	0.1
0.01	1	0.00224458699995012	1	97	NA	289.28854438	0	0.74	4.72	1	280.040083331	280.042327918	"22"	3327.948714419	3325.861389765	1.5	0.1
0.01	1	0.00230523899972468	1	97	NA	289.28854438	0	0.74	4.72	1	280.273812458	280.276117697	"22"	3327.948714419	3325.861389765	1.5	0.1
0.01	1	0.00225779199990939	1	97	NA	289.28854438	0	0.74	4.72	1	280.507743192	280.510000984	"22"	3327.948714419	3325.861389765	1.5	0.1
0.01	1	0.00242305099982332	1	97	NA	289.28854438	0	0.74	4.72	1	280.741303971	280.743727022	"22"	3327.948714419	3325.861389765	1.5	0.1
0.01	1	0.00404602500020701	1	97	NA	289.28854438	0	0.74	4.72	1	280.975090947	280.979136972	"22"	3327.948714419	3325.861389765	1.5	0.1
0.01	1	0.00229768799999874	1	97	NA	289.28854438	0	0.74	4.72	1	281.208847075	281.211144763	"22"	3327.948714419	3325.861389765	1.5	0.1
0.01	1	0.00275193000015861	1	97	NA	289.28854438	0	0.74	4.72	1	281.442566369	281.445318299	"22"	3327.948714419	3325.861389765	1.5	0.1
0.01	1	0.0027024060000258	1	97	NA	289.28854438	0	0.74	4.72	1	281.676299332	281.679001738	"22"	3327.948714419	3325.861389765	1.5	0.1
0.01	1	0.547706386999835	1	97	NA	289.28854438	0	0.74	4.72	1	281.910014117	282.457720504	"22"	3327.948714419	3325.861389765	1.5	0.1
0.01	1	0.00260213399997156	1	97	NA	289.28854438	0	0.74	4.72	1	282.694569089	282.697171223	"22"	3327.948714419	3325.861389765	1.5	0.1
0.01	1	0.00330656899996029	1	97	NA	289.28854438	0	0.74	4.72	1	282.928373508	282.931680077	"22"	3327.948714419	3325.861389765	1.5	0.1
0.01	1	0.00214043500000116	1	97	NA	289.28854438	0	0.74	4.72	1	283.162147907	283.164288342	"22"	3327.948714419	3325.861389765	1.5	0.1
0.01	1	0.00243235800007824	1	97	NA	289.28854438	0	0.74	4.72	1	283.39574876	283.398181118	"22"	3327.948714419	3325.861389765	1.5	0.1
0.01	1	0.00269999500005724	1	97	NA	289.28854438	0	0.74	4.72	1	283.629485075	283.63218507	"22"	3327.948714419	3325.861389765	1.5	0.1
0.01	1	0.00215083000011873	1	97	NA	289.28854438	0	0.74	4.72	1	283.863189808	283.865340638	"22"	3327.948714419	3325.861389765	1.5	0.1
0.01	1	0.00227582700017592	1	97	NA	289.28854438	0	0.74	4.72	1	284.096951484	284.099227311	"22"	3327.948714419	3325.861389765	1.5	0.1
0.01	1	0.00250956099989708	1	97	NA	289.28854438	0	0.74	4.72	1	284.330781005	284.333290566	"22"	3327.948714419	3325.861389765	1.5	0.1
0.01	1	0.00215066200007641	1	97	NA	289.28854438	0	0.74	4.72	1	284.564448486	284.566599148	"22"	3327.948714419	3325.861389765	1.5	0.1
0.01	1	0.00229515000000902	1	97	NA	289.28854438	0	0.74	4.72	1	284.798229897	284.800525047	"22"	3327.948714419	3325.861389765	1.5	0.1
0.01	1	0.0023104280003281	1	97	NA	289.28854438	0	0.74	4.72	1	285.032021747	285.034332175	"22"	3327.948714419	3325.861389765	1.5	0.1
0.01	1	0.00236555899982704	1	97	NA	289.28854438	0	0.74	4.72	1	285.265643781	285.26800934	"22"	3327.948714419	3325.861389765	1.5	0.1
0.01	1	0.00243529900035355	1	97	NA	289.28854438	0	0.74	4.72	1	285.499386357	285.501821656	"22"	3327.948714419	3325.861389765	1.5	0.1
0.01	1	0.00230938499998956	1	97	NA	289.28854438	0	0.74	4.72	1	285.733198032	285.735507417	"22"	3327.948714419	3325.861389765	1.5	0.1
0.01	1	0.656477096999879	1	97	NA	289.28854438	0	0.74	4.72	1	285.966917477	286.623394574	"22"	3327.948714419	3325.861389765	1.5	0.1
0.01	1	0.00231719300018085	1	97	NA	289.28854438	0	0.74	4.72	1	286.851558474	286.853875667	"22"	3327.948714419	3325.861389765	1.5	0.1
0.01	1	0.00243286800014175	1	97	NA	289.28854438	0	0.74	4.72	1	287.085367637	287.087800505	"22"	3327.948714419	3325.861389765	1.5	0.1
0.01	1	0.00258410600008574	1	97	NA	289.28854438	0	0.74	4.72	1	287.319011885	287.321595991	"22"	3327.948714419	3325.861389765	1.5	0.1
0.01	1	0.00234248799961279	1	97	NA	289.28854438	0	0.74	4.72	1	287.552829004	287.555171492	"22"	3327.948714419	3325.861389765	1.5	0.1
0.01	1	0.453492404999906	1	97	NA	289.28854438	0	0.74	4.72	1	287.78657368	288.240066085	"22"	3327.948714419	3325.861389765	1.5	0.1
0.01	1	0.0021449539999594	1	97	NA	289.28854438	0	0.74	4.72	1	288.470991097	288.473136051	"22"	3327.948714419	3325.861389765	1.5	0.1
0.01	1	0.00224800600017261	1	97	NA	289.28854438	0	0.74	4.72	1	288.704784393	288.707032399	"22"	3327.948714419	3325.861389765	1.5	0.1
0.01	1	0.00213758300014888	1	97	NA	289.28854438	0	0.74	4.72	1	288.938507417	288.940645	"22"	3327.948714419	3325.861389765	1.5	0.1
0.01	1	0.114789548000317	2	97	NA	289.28854438	0	0.74	4.72	1	289.172192152	289.2869817	"22"	3327.948714419	3325.861389765	1.5	0.1
0.01	1	0.00209174300016457	1	118	NA	306.082078884	0	0.58	5.3	1	291.342547757	291.3446395	"23"	3327.948714419	3325.861389765	1.5	0.1
0.01	1	0.0961772959999507	1	118	NA	306.082078884	0	0.58	5.3	1	291.576183411	291.672360707	"23"	3327.948714419	3325.861389765	1.5	0.1
0.01	1	0.0023219079998853	1	118	NA	306.082078884	0	0.58	5.3	1	291.910223509	291.912545417	"23"	3327.948714419	3325.861389765	1.5	0.1
0.01	1	0.00248094800008403	1	118	NA	306.082078884	0	0.58	5.3	1	292.143773033	292.146253981	"23"	3327.948714419	3325.861389765	1.5	0.1
0.01	1	0.00217586600001596	1	118	NA	306.082078884	0	0.58	5.3	1	292.37749919	292.379675056	"23"	3327.948714419	3325.861389765	1.5	0.1
0.01	1	0.00351165399979436	1	118	NA	306.082078884	0	0.58	5.3	1	292.611323254	292.614834908	"23"	3327.948714419	3325.861389765	1.5	0.1
0.01	1	0.00211701299986089	1	118	NA	306.082078884	0	0.58	5.3	1	292.845070528	292.847187541	"23"	3327.948714419	3325.861389765	1.5	0.1
0.01	1	0.00396688000000722	1	118	NA	306.082078884	0	0.58	5.3	1	293.078850232	293.082817112	"23"	3327.948714419	3325.861389765	1.5	0.1
0.01	1	0.00372796999999991	1	118	NA	306.082078884	0	0.58	5.3	1	293.312625212	293.316353182	"23"	3327.948714419	3325.861389765	1.5	0.1
0.01	1	0.00216532600006758	1	118	NA	306.082078884	0	0.58	5.3	1	293.546258496	293.548423822	"23"	3327.948714419	3325.861389765	1.5	0.1
0.01	1	0.00215363899997101	1	118	NA	306.082078884	0	0.58	5.3	1	293.77992873	293.782082369	"23"	3327.948714419	3325.861389765	1.5	0.1
0.01	1	0.00218172199993205	1	118	NA	306.082078884	0	0.58	5.3	1	294.01367094	294.015852662	"23"	3327.948714419	3325.861389765	1.5	0.1
0.01	1	0.00240788900009647	1	118	NA	306.082078884	0	0.58	5.3	1	294.247417047	294.249824936	"23"	3327.948714419	3325.861389765	1.5	0.1
0.01	1	0.00243364700008897	1	118	NA	306.082078884	0	0.58	5.3	1	294.481098282	294.483531929	"23"	3327.948714419	3325.861389765	1.5	0.1
0.01	1	0.00239157999976669	1	118	NA	306.082078884	0	0.58	5.3	1	294.714805857	294.717197437	"23"	3327.948714419	3325.861389765	1.5	0.1
0.01	1	0.00230500800034861	1	118	NA	306.082078884	0	0.58	5.3	1	294.948594018	294.950899026	"23"	3327.948714419	3325.861389765	1.5	0.1
0.01	1	0.00236241999982667	1	118	NA	306.082078884	0	0.58	5.3	1	295.182327844	295.184690264	"23"	3327.948714419	3325.861389765	1.5	0.1
0.01	1	0.00211640399993485	1	118	NA	306.082078884	0	0.58	5.3	1	295.416113708	295.418230112	"23"	3327.948714419	3325.861389765	1.5	0.1
0.01	1	0.00291353100010383	1	118	NA	306.082078884	0	0.58	5.3	1	295.649766961	295.652680492	"23"	3327.948714419	3325.861389765	1.5	0.1
0.01	1	0.00229597899988221	1	118	NA	306.082078884	0	0.58	5.3	1	295.88343492	295.885730899	"23"	3327.948714419	3325.861389765	1.5	0.1
0.01	1	0.00247411500004091	1	118	NA	306.082078884	0	0.58	5.3	1	296.117168704	296.119642819	"23"	3327.948714419	3325.861389765	1.5	0.1
0.01	1	0.00238250999973388	1	118	NA	306.082078884	0	0.58	5.3	1	296.35090682	296.35328933	"23"	3327.948714419	3325.861389765	1.5	0.1
0.01	1	0.00230321400022149	1	118	NA	306.082078884	0	0.58	5.3	1	296.584674468	296.586977682	"23"	3327.948714419	3325.861389765	1.5	0.1
0.01	1	0.00225130099988746	1	118	NA	306.082078884	0	0.58	5.3	1	296.818332229	296.82058353	"23"	3327.948714419	3325.861389765	1.5	0.1
0.01	1	0.00237850300027276	1	118	NA	306.082078884	0	0.58	5.3	1	297.0520592	297.054437703	"23"	3327.948714419	3325.861389765	1.5	0.1
0.01	1	0.00214194099999077	1	118	NA	306.082078884	0	0.58	5.3	1	297.28584521	297.287987151	"23"	3327.948714419	3325.861389765	1.5	0.1
0.01	1	0.00355354200019065	1	118	NA	306.082078884	0	0.58	5.3	1	297.519507922	297.523061464	"23"	3327.948714419	3325.861389765	1.5	0.1
0.01	1	0.00467702100013412	1	118	NA	306.082078884	0	0.58	5.3	1	297.753385061	297.758062082	"23"	3327.948714419	3325.861389765	1.5	0.1
0.01	1	0.00220536599999832	1	118	NA	306.082078884	0	0.58	5.3	1	297.987019132	297.989224498	"23"	3327.948714419	3325.861389765	1.5	0.1
0.01	1	0.00229246300023078	1	118	NA	306.082078884	0	0.58	5.3	1	298.220679063	298.222971526	"23"	3327.948714419	3325.861389765	1.5	0.1
0.01	1	0.0022970179998083	1	118	NA	306.082078884	0	0.58	5.3	1	298.454515794	298.456812812	"23"	3327.948714419	3325.861389765	1.5	0.1
0.01	1	0.00235027700000501	1	118	NA	306.082078884	0	0.58	5.3	1	298.688197572	298.690547849	"23"	3327.948714419	3325.861389765	1.5	0.1
0.01	1	0.00228520600012416	1	118	NA	306.082078884	0	0.58	5.3	1	298.921949844	298.92423505	"23"	3327.948714419	3325.861389765	1.5	0.1
0.01	1	0.00221399700012626	1	118	NA	306.082078884	0	0.58	5.3	1	299.155668939	299.157882936	"23"	3327.948714419	3325.861389765	1.5	0.1
0.01	1	0.00260223100030998	1	118	NA	306.082078884	0	0.58	5.3	1	299.389341027	299.391943258	"23"	3327.948714419	3325.861389765	1.5	0.1
0.01	1	0.00214092099986374	1	118	NA	306.082078884	0	0.58	5.3	1	299.62319816	299.625339081	"23"	3327.948714419	3325.861389765	1.5	0.1
0.01	1	0.00230389700027445	1	118	NA	306.082078884	0	0.58	5.3	1	299.856948021	299.859251918	"23"	3327.948714419	3325.861389765	1.5	0.1
0.01	1	0.00225987200019517	1	118	NA	306.082078884	0	0.58	5.3	1	300.090564445	300.092824317	"23"	3327.948714419	3325.861389765	1.5	0.1
0.01	1	0.00224772999990819	1	118	NA	306.082078884	0	0.58	5.3	1	300.324269677	300.326517407	"23"	3327.948714419	3325.861389765	1.5	0.1
0.01	1	0.00230782400012686	1	118	NA	306.082078884	0	0.58	5.3	1	300.557938766	300.56024659	"23"	3327.948714419	3325.861389765	1.5	0.1
0.01	1	0.00257106100025339	1	118	NA	306.082078884	0	0.58	5.3	1	300.791769607	300.794340668	"23"	3327.948714419	3325.861389765	1.5	0.1
0.01	1	0.00241882799991799	1	118	NA	306.082078884	0	0.58	5.3	1	301.025494599	301.027913427	"23"	3327.948714419	3325.861389765	1.5	0.1
0.01	1	0.00450119000015547	1	118	NA	306.082078884	0	0.58	5.3	1	301.259261167	301.263762357	"23"	3327.948714419	3325.861389765	1.5	0.1
0.01	1	0.00230840499989426	1	118	NA	306.082078884	0	0.58	5.3	1	301.492829336	301.495137741	"23"	3327.948714419	3325.861389765	1.5	0.1
0.01	1	0.00226243600036469	1	118	NA	306.082078884	0	0.58	5.3	1	301.726657591	301.728920027	"23"	3327.948714419	3325.861389765	1.5	0.1
0.01	1	0.00229889899992486	1	118	NA	306.082078884	0	0.58	5.3	1	301.960369881	301.96266878	"23"	3327.948714419	3325.861389765	1.5	0.1
0.01	1	0.00220360800039998	1	118	NA	306.082078884	0	0.58	5.3	1	302.194111	302.196314608	"23"	3327.948714419	3325.861389765	1.5	0.1
0.01	1	0.00214748399957898	1	118	NA	306.082078884	0	0.58	5.3	1	302.427806167	302.429953651	"23"	3327.948714419	3325.861389765	1.5	0.1
0.01	1	0.00227313300001697	1	118	NA	306.082078884	0	0.58	5.3	1	302.661601764	302.663874897	"23"	3327.948714419	3325.861389765	1.5	0.1
0.01	1	0.00212903400006326	1	118	NA	306.082078884	0	0.58	5.3	1	302.895374667	302.897503701	"23"	3327.948714419	3325.861389765	1.5	0.1
0.01	1	0.00227637500029232	1	118	NA	306.082078884	0	0.58	5.3	1	303.129033125	303.1313095	"23"	3327.948714419	3325.861389765	1.5	0.1
0.01	1	0.525392760999694	1	118	NA	306.082078884	0	0.58	5.3	1	303.362744641	303.888137402	"23"	3327.948714419	3325.861389765	1.5	0.1
0.01	1	0.00233122399959029	1	118	NA	306.082078884	0	0.58	5.3	1	304.11391274	304.116243964	"23"	3327.948714419	3325.861389765	1.5	0.1
0.01	1	0.00241427500031932	1	118	NA	306.082078884	0	0.58	5.3	1	304.347744415	304.35015869	"23"	3327.948714419	3325.861389765	1.5	0.1
0.01	1	0.00256807899995692	1	118	NA	306.082078884	0	0.58	5.3	1	304.581438214	304.584006293	"23"	3327.948714419	3325.861389765	1.5	0.1
