"payoff.level"	"balloon"	"rt"	"resp"	"explode.trial"	"explode.time"	"finish.time"	"exploded"	"trial.total"	"cumulative.total"	"finished"	"trial.start"	"trial.end"	"trial.num"	"secs"	"start.time"	"iti"	"isi"
0.01	1	1.44487413600018	1	64	NA	21.5511530499998	0	0.21	0.21	1	0.0245517149996886	1.46942585099987	"1"	5503.400018821	5501.121457224	1.5	0.1
0.01	1	0.652677530999426	1	64	NA	21.5511530499998	0	0.21	0.21	1	1.77751377799996	2.43019130899938	"1"	5503.400018821	5501.121457224	1.5	0.1
0.01	1	0.832192778000717	1	64	NA	21.5511530499998	0	0.21	0.21	1	2.6623848499994	3.49457762800012	"1"	5503.400018821	5501.121457224	1.5	0.1
0.01	1	0.529869465000047	1	64	NA	21.5511530499998	0	0.21	0.21	1	3.73074743699999	4.26061690200004	"1"	5503.400018821	5501.121457224	1.5	0.1
0.01	1	0.714979284999572	1	64	NA	21.5511530499998	0	0.21	0.21	1	4.49870098500014	5.21368026999971	"1"	5503.400018821	5501.121457224	1.5	0.1
0.01	1	0.923881276000429	1	64	NA	21.5511530499998	0	0.21	0.21	1	5.45025175999945	6.37413303599988	"1"	5503.400018821	5501.121457224	1.5	0.1
0.01	1	0.746899599999779	1	64	NA	21.5511530499998	0	0.21	0.21	1	6.60237707499982	7.3492766749996	"1"	5503.400018821	5501.121457224	1.5	0.1
0.01	1	0.849680825999712	1	64	NA	21.5511530499998	0	0.21	0.21	1	7.58720206199996	8.43688288799967	"1"	5503.400018821	5501.121457224	1.5	0.1
0.01	1	0.766021262000322	1	64	NA	21.5511530499998	0	0.21	0.21	1	8.67244920499979	9.43847046700012	"1"	5503.400018821	5501.121457224	1.5	0.1
0.01	1	1.49955834699995	1	64	NA	21.5511530499998	0	0.21	0.21	1	9.67401012200025	11.1735684690002	"1"	5503.400018821	5501.121457224	1.5	0.1
0.01	1	0.755204852999668	1	64	NA	21.5511530499998	0	0.21	0.21	1	11.4103767320003	12.1655815849999	"1"	5503.400018821	5501.121457224	1.5	0.1
0.01	1	0.681652064000446	1	64	NA	21.5511530499998	0	0.21	0.21	1	12.3953389869994	13.0769910509998	"1"	5503.400018821	5501.121457224	1.5	0.1
0.01	1	0.923946788000649	1	64	NA	21.5511530499998	0	0.21	0.21	1	13.3135939269996	14.2375407150003	"1"	5503.400018821	5501.121457224	1.5	0.1
0.01	1	0.348048494999603	1	64	NA	21.5511530499998	0	0.21	0.21	1	14.4654268650002	14.8134753599998	"1"	5503.400018821	5501.121457224	1.5	0.1
0.01	1	0.780271739999989	1	64	NA	21.5511530499998	0	0.21	0.21	1	15.0498548619998	15.8301266019998	"1"	5503.400018821	5501.121457224	1.5	0.1
0.01	1	0.696993704999841	1	64	NA	21.5511530499998	0	0.21	0.21	1	16.0682212350002	16.7652149400001	"1"	5503.400018821	5501.121457224	1.5	0.1
0.01	1	0.442284400999597	1	64	NA	21.5511530499998	0	0.21	0.21	1	17.0031006449999	17.4453850459995	"1"	5503.400018821	5501.121457224	1.5	0.1
0.01	1	0.701885595999556	1	64	NA	21.5511530499998	0	0.21	0.21	1	17.6709058269998	18.3727914229994	"1"	5503.400018821	5501.121457224	1.5	0.1
0.01	1	0.687879132000489	1	64	NA	21.5511530499998	0	0.21	0.21	1	18.6058266969994	19.2937058289999	"1"	5503.400018821	5501.121457224	1.5	0.1
0.01	1	0.848852638000608	1	64	NA	21.5511530499998	0	0.21	0.21	1	19.5239152899994	20.372767928	"1"	5503.400018821	5501.121457224	1.5	0.1
0.01	1	0.364465980999739	1	64	NA	21.5511530499998	0	0.21	0.21	1	20.609102847	20.9735688279998	"1"	5503.400018821	5501.121457224	1.5	0.1
0.01	1	0.339197208000769	2	64	NA	21.5511530499998	0	0.21	0.21	1	21.2102264999994	21.5494237080002	"1"	5503.400018821	5501.121457224	1.5	0.1
0.01	1	1.33597250700041	1	102	NA	39.9104464579996	0	0.25	0.46	1	23.5809458949998	24.9169184020002	"2"	5503.400018821	5501.121457224	1.5	0.1
0.01	1	0.352464804000192	1	102	NA	39.9104464579996	0	0.25	0.46	1	25.15005853	25.5025233340002	"2"	5503.400018821	5501.121457224	1.5	0.1
0.01	1	0.287889057999564	1	102	NA	39.9104464579996	0	0.25	0.46	1	25.7344220300001	26.0223110879997	"2"	5503.400018821	5501.121457224	1.5	0.1
0.01	1	0.234427782999774	1	102	NA	39.9104464579996	0	0.25	0.46	1	26.2520247849998	26.4864525679995	"2"	5503.400018821	5501.121457224	1.5	0.1
0.01	1	0.253714644999491	1	102	NA	39.9104464579996	0	0.25	0.46	1	26.71954955	26.9732641949995	"2"	5503.400018821	5501.121457224	1.5	0.1
0.01	1	0.274847276999935	1	102	NA	39.9104464579996	0	0.25	0.46	1	27.2035475849998	27.4783948619997	"2"	5503.400018821	5501.121457224	1.5	0.1
0.01	1	0.198096854999676	1	102	NA	39.9104464579996	0	0.25	0.46	1	27.7044493200001	27.9025461749998	"2"	5503.400018821	5501.121457224	1.5	0.1
0.01	1	0.203322105000552	1	102	NA	39.9104464579996	0	0.25	0.46	1	28.1385370299995	28.341859135	"2"	5503.400018821	5501.121457224	1.5	0.1
0.01	1	0.218035189999682	1	102	NA	39.9104464579996	0	0.25	0.46	1	28.5725349949998	28.7905701849995	"2"	5503.400018821	5501.121457224	1.5	0.1
0.01	1	0.222818483000083	1	102	NA	39.9104464579996	0	0.25	0.46	1	29.0232475049997	29.2460659879998	"2"	5503.400018821	5501.121457224	1.5	0.1
0.01	1	0.459258869999758	1	102	NA	39.9104464579996	0	0.25	0.46	1	29.4740704850001	29.9333293549998	"2"	5503.400018821	5501.121457224	1.5	0.1
0.01	1	0.367134133000036	1	102	NA	39.9104464579996	0	0.25	0.46	1	30.1586742849995	30.5258084179995	"2"	5503.400018821	5501.121457224	1.5	0.1
0.01	1	0.301218747000348	1	102	NA	39.9104464579996	0	0.25	0.46	1	30.7595567199996	31.060775467	"2"	5503.400018821	5501.121457224	1.5	0.1
0.01	1	0.303745534999507	1	102	NA	39.9104464579996	0	0.25	0.46	1	31.2938712300001	31.5976167649997	"2"	5503.400018821	5501.121457224	1.5	0.1
0.01	1	0.37760161299957	1	102	NA	39.9104464579996	0	0.25	0.46	1	31.8280551349999	32.2056567479995	"2"	5503.400018821	5501.121457224	1.5	0.1
0.01	1	0.288567393000449	1	102	NA	39.9104464579996	0	0.25	0.46	1	32.4291277849998	32.7176951780002	"2"	5503.400018821	5501.121457224	1.5	0.1
0.01	1	0.339241560000119	1	102	NA	39.9104464579996	0	0.25	0.46	1	32.9466777950001	33.2859193550003	"2"	5503.400018821	5501.121457224	1.5	0.1
0.01	1	0.282873292000659	1	102	NA	39.9104464579996	0	0.25	0.46	1	33.5141369389994	33.7970102310001	"2"	5503.400018821	5501.121457224	1.5	0.1
0.01	1	0.293953045999842	1	102	NA	39.9104464579996	0	0.25	0.46	1	34.0317201799999	34.3256732259997	"2"	5503.400018821	5501.121457224	1.5	0.1
0.01	1	0.26286135600003	1	102	NA	39.9104464579996	0	0.25	0.46	1	34.5659625669996	34.8288239229996	"2"	5503.400018821	5501.121457224	1.5	0.1
0.01	1	1.89904295800079	1	102	NA	39.9104464579996	0	0.25	0.46	1	35.0669031769994	36.9659461350002	"2"	5503.400018821	5501.121457224	1.5	0.1
0.01	1	0.497720129000299	1	102	NA	39.9104464579996	0	0.25	0.46	1	37.2037587499999	37.7014788790002	"2"	5503.400018821	5501.121457224	1.5	0.1
0.01	1	0.307442217999778	1	102	NA	39.9104464579996	0	0.25	0.46	1	37.9383053219999	38.2457475399997	"2"	5503.400018821	5501.121457224	1.5	0.1
0.01	1	0.725089796000248	1	102	NA	39.9104464579996	0	0.25	0.46	1	38.4726024189995	39.1976922149997	"2"	5503.400018821	5501.121457224	1.5	0.1
0.01	1	0.0371927849992062	1	102	NA	39.9104464579996	0	0.25	0.46	1	39.4241471670002	39.4613399519994	"2"	5503.400018821	5501.121457224	1.5	0.1
0.01	1	0.217568795000261	2	102	NA	39.9104464579996	0	0.25	0.46	1	39.6912056969995	39.9087744919998	"2"	5503.400018821	5501.121457224	1.5	0.1
0.01	1	1.19673794899973	1	97	NA	58.574536356	0	0.34	0.8	1	41.961720235	43.1584581839998	"3"	5503.400018821	5501.121457224	1.5	0.1
0.01	1	0.287561700999504	1	97	NA	58.574536356	0	0.34	0.8	1	43.3974594470001	43.6850211479996	"3"	5503.400018821	5501.121457224	1.5	0.1
0.01	1	0.185480128000563	1	97	NA	58.574536356	0	0.34	0.8	1	43.9150994149995	44.1005795430001	"3"	5503.400018821	5501.121457224	1.5	0.1
0.01	1	0.192568483000287	1	97	NA	58.574536356	0	0.34	0.8	1	44.3324727649997	44.525041248	"3"	5503.400018821	5501.121457224	1.5	0.1
0.01	1	0.184470004999639	1	97	NA	58.574536356	0	0.34	0.8	1	44.7497991370001	44.9342691419997	"3"	5503.400018821	5501.121457224	1.5	0.1
0.01	1	0.173996567999893	1	97	NA	58.574536356	0	0.34	0.8	1	45.1671449149999	45.3411414829998	"3"	5503.400018821	5501.121457224	1.5	0.1
0.01	1	0.157682336999642	1	97	NA	58.574536356	0	0.34	0.8	1	45.567834857	45.7255171939996	"3"	5503.400018821	5501.121457224	1.5	0.1
0.01	1	0.206730111999605	1	97	NA	58.574536356	0	0.34	0.8	1	45.9517926950002	46.1585228069998	"3"	5503.400018821	5501.121457224	1.5	0.1
0.01	1	0.138889817000745	1	97	NA	58.574536356	0	0.34	0.8	1	46.3859086799994	46.5247984970001	"3"	5503.400018821	5501.121457224	1.5	0.1
0.01	1	0.627540006000345	1	97	NA	58.574536356	0	0.34	0.8	1	46.7531711769998	47.3807111830001	"3"	5503.400018821	5501.121457224	1.5	0.1
0.01	1	0.369114533000356	1	97	NA	58.574536356	0	0.34	0.8	1	47.6212591849999	47.9903737180002	"3"	5503.400018821	5501.121457224	1.5	0.1
0.01	1	0.175555435000206	1	97	NA	58.574536356	0	0.34	0.8	1	48.2222139819996	48.3977694169998	"3"	5503.400018821	5501.121457224	1.5	0.1
0.01	1	0.134074456000235	1	97	NA	58.574536356	0	0.34	0.8	1	48.6230087899994	48.7570832459996	"3"	5503.400018821	5501.121457224	1.5	0.1
0.01	1	0.118598644000485	1	97	NA	58.574536356	0	0.34	0.8	1	48.9903023299994	49.1089009739999	"3"	5503.400018821	5501.121457224	1.5	0.1
0.01	1	0.127662215999408	1	97	NA	58.574536356	0	0.34	0.8	1	49.3409235620002	49.4685857779996	"3"	5503.400018821	5501.121457224	1.5	0.1
0.01	1	0.138618856999528	1	97	NA	58.574536356	0	0.34	0.8	1	49.6914522050001	49.8300710619997	"3"	5503.400018821	5501.121457224	1.5	0.1
0.01	1	0.11525926000013	1	97	NA	58.574536356	0	0.34	0.8	1	50.0586861199999	50.1739453800001	"3"	5503.400018821	5501.121457224	1.5	0.1
0.01	1	0.107391890000144	1	97	NA	58.574536356	0	0.34	0.8	1	50.4093329219995	50.5167248119997	"3"	5503.400018821	5501.121457224	1.5	0.1
0.01	1	0.141666319000251	1	97	NA	58.574536356	0	0.34	0.8	1	50.7432246099997	50.884890929	"3"	5503.400018821	5501.121457224	1.5	0.1
0.01	1	0.288150710999616	1	97	NA	58.574536356	0	0.34	0.8	1	51.11041931	51.3985700209996	"3"	5503.400018821	5501.121457224	1.5	0.1
0.01	1	0.256910758000231	1	97	NA	58.574536356	0	0.34	0.8	1	51.6279782499996	51.8848890079998	"3"	5503.400018821	5501.121457224	1.5	0.1
0.01	1	0.262182461000521	1	97	NA	58.574536356	0	0.34	0.8	1	52.1121942499994	52.374376711	"3"	5503.400018821	5501.121457224	1.5	0.1
0.01	1	0.185149144000206	1	97	NA	58.574536356	0	0.34	0.8	1	52.613023805	52.7981729490002	"3"	5503.400018821	5501.121457224	1.5	0.1
0.01	1	0.151134707999518	1	97	NA	58.574536356	0	0.34	0.8	1	53.030327337	53.1814620449995	"3"	5503.400018821	5501.121457224	1.5	0.1
0.01	1	0.23941729299986	1	97	NA	58.574536356	0	0.34	0.8	1	53.4144120649999	53.6538293579997	"3"	5503.400018821	5501.121457224	1.5	0.1
0.01	1	0.235517705000348	1	97	NA	58.574536356	0	0.34	0.8	1	53.8817811669996	54.117298872	"3"	5503.400018821	5501.121457224	1.5	0.1
0.01	1	0.257316139000068	1	97	NA	58.574536356	0	0.34	0.8	1	54.3491700049999	54.606486144	"3"	5503.400018821	5501.121457224	1.5	0.1
0.01	1	0.444992699999602	1	97	NA	58.574536356	0	0.34	0.8	1	54.8334545150001	55.2784472149997	"3"	5503.400018821	5501.121457224	1.5	0.1
0.01	1	0.288033613999687	1	97	NA	58.574536356	0	0.34	0.8	1	55.5178505519998	55.8058841659995	"3"	5503.400018821	5501.121457224	1.5	0.1
0.01	1	0.266849542000273	1	97	NA	58.574536356	0	0.34	0.8	1	56.0354343099998	56.3022838520001	"3"	5503.400018821	5501.121457224	1.5	0.1
0.01	1	0.24609098000019	1	97	NA	58.574536356	0	0.34	0.8	1	56.53629387	56.7823848500002	"3"	5503.400018821	5501.121457224	1.5	0.1
0.01	1	0.489085905999673	1	97	NA	58.574536356	0	0.34	0.8	1	57.0203497570001	57.5094356629997	"3"	5503.400018821	5501.121457224	1.5	0.1
0.01	1	0.178434901999935	1	97	NA	58.574536356	0	0.34	0.8	1	57.738421215	57.916856117	"3"	5503.400018821	5501.121457224	1.5	0.1
0.01	1	0.122967477999737	1	97	NA	58.574536356	0	0.34	0.8	1	58.1390146399999	58.2619821179997	"3"	5503.400018821	5501.121457224	1.5	0.1
0.01	1	0.0832983919999606	2	97	NA	58.574536356	0	0.34	0.8	1	58.4895478199996	58.5728462119996	"3"	5503.400018821	5501.121457224	1.5	0.1
0.01	1	0.499927528000626	1	51	77.7092782170002	NA	1	0	0.8	1	60.6265588489996	61.1264863770002	"4"	5503.400018821	5501.121457224	1.5	0.1
0.01	1	0.0445721930000218	1	51	77.7092782170002	NA	1	0	0.8	1	61.3609841349999	61.4055563279999	"4"	5503.400018821	5501.121457224	1.5	0.1
0.01	1	0.122356656000193	1	51	77.7092782170002	NA	1	0	0.8	1	61.6282332419996	61.7505898979998	"4"	5503.400018821	5501.121457224	1.5	0.1
0.01	1	0.0354603139994651	1	51	77.7092782170002	NA	1	0	0.8	1	61.9787297000003	62.0141900139997	"4"	5503.400018821	5501.121457224	1.5	0.1
0.01	1	0.0227333519997046	1	51	77.7092782170002	NA	1	0	0.8	1	62.2459808220001	62.2687141739998	"4"	5503.400018821	5501.121457224	1.5	0.1
0.01	1	0.0779978559994561	1	51	77.7092782170002	NA	1	0	0.8	1	62.49627951	62.5742773659995	"4"	5503.400018821	5501.121457224	1.5	0.1
0.01	1	0.0241943430000902	1	51	77.7092782170002	NA	1	0	0.8	1	62.7967888419998	62.8209831849999	"4"	5503.400018821	5501.121457224	1.5	0.1
0.01	1	0.0871540139996796	1	51	77.7092782170002	NA	1	0	0.8	1	63.0472492600002	63.1344032739999	"4"	5503.400018821	5501.121457224	1.5	0.1
0.01	1	0.0493101060001209	1	51	77.7092782170002	NA	1	0	0.8	1	63.3644528499999	63.413762956	"4"	5503.400018821	5501.121457224	1.5	0.1
0.01	1	0.0376016589998471	1	51	77.7092782170002	NA	1	0	0.8	1	63.648184785	63.6857864439999	"4"	5503.400018821	5501.121457224	1.5	0.1
0.01	1	0.0669665400000667	1	51	77.7092782170002	NA	1	0	0.8	1	63.9153593069996	63.9823258469996	"4"	5503.400018821	5501.121457224	1.5	0.1
0.01	1	0.0694370870005514	1	51	77.7092782170002	NA	1	0	0.8	1	64.2158267469995	64.285263834	"4"	5503.400018821	5501.121457224	1.5	0.1
0.01	1	0.0173431980001624	1	51	77.7092782170002	NA	1	0	0.8	1	64.5164132869995	64.5337564849997	"4"	5503.400018821	5501.121457224	1.5	0.1
0.01	1	0.0387348490003205	1	51	77.7092782170002	NA	1	0	0.8	1	64.7667171849998	64.8054520340002	"4"	5503.400018821	5501.121457224	1.5	0.1
0.01	1	0.0191366999997626	1	51	77.7092782170002	NA	1	0	0.8	1	65.033911382	65.0530480819998	"4"	5503.400018821	5501.121457224	1.5	0.1
0.01	1	0.0481819229999019	1	51	77.7092782170002	NA	1	0	0.8	1	65.2843657399999	65.3325476629998	"4"	5503.400018821	5501.121457224	1.5	0.1
0.01	1	0.0224381760008328	1	51	77.7092782170002	NA	1	0	0.8	1	65.5682244499994	65.5906626260003	"4"	5503.400018821	5501.121457224	1.5	0.1
0.01	1	0.0660535510005502	1	51	77.7092782170002	NA	1	0	0.8	1	65.8185883859996	65.8846419370002	"4"	5503.400018821	5501.121457224	1.5	0.1
0.01	1	0.0295710290001807	1	51	77.7092782170002	NA	1	0	0.8	1	66.1191250849997	66.1486961139999	"4"	5503.400018821	5501.121457224	1.5	0.1
0.01	1	0.0521921649997239	1	51	77.7092782170002	NA	1	0	0.8	1	66.3862930349997	66.4384851999994	"4"	5503.400018821	5501.121457224	1.5	0.1
0.01	1	0.0160637560002215	1	51	77.7092782170002	NA	1	0	0.8	1	66.6700494549996	66.6861132109998	"4"	5503.400018821	5501.121457224	1.5	0.1
0.01	1	0.0606792150001638	1	51	77.7092782170002	NA	1	0	0.8	1	66.92043543	66.9811146450002	"4"	5503.400018821	5501.121457224	1.5	0.1
0.01	1	0.0264773889994103	1	51	77.7092782170002	NA	1	0	0.8	1	67.2043123200001	67.2307897089995	"4"	5503.400018821	5501.121457224	1.5	0.1
0.01	1	0.029219670999737	1	51	77.7092782170002	NA	1	0	0.8	1	67.4714532950002	67.5006729659999	"4"	5503.400018821	5501.121457224	1.5	0.1
0.01	1	0.082179349999933	1	51	77.7092782170002	NA	1	0	0.8	1	67.7384496329996	67.8206289829996	"4"	5503.400018821	5501.121457224	1.5	0.1
0.01	1	0.126686153000264	1	51	77.7092782170002	NA	1	0	0.8	1	68.0555474049997	68.182233558	"4"	5503.400018821	5501.121457224	1.5	0.1
0.01	1	0.152338583999153	1	51	77.7092782170002	NA	1	0	0.8	1	68.4062318300003	68.5585704139994	"4"	5503.400018821	5501.121457224	1.5	0.1
0.01	1	0.103176820000044	1	51	77.7092782170002	NA	1	0	0.8	1	68.7903013099994	68.8934781299995	"4"	5503.400018821	5501.121457224	1.5	0.1
0.01	1	0.122435820000646	1	51	77.7092782170002	NA	1	0	0.8	1	69.1241109249995	69.2465467450002	"4"	5503.400018821	5501.121457224	1.5	0.1
0.01	1	0.0901785019996169	1	51	77.7092782170002	NA	1	0	0.8	1	69.4746934200002	69.5648719219998	"4"	5503.400018821	5501.121457224	1.5	0.1
0.01	1	0.12566774700008	1	51	77.7092782170002	NA	1	0	0.8	1	69.7918301069994	69.9174978539995	"4"	5503.400018821	5501.121457224	1.5	0.1
0.01	1	0.102942818999509	1	51	77.7092782170002	NA	1	0	0.8	1	70.1425079800001	70.2454507989996	"4"	5503.400018821	5501.121457224	1.5	0.1
0.01	1	0.114017848999538	1	51	77.7092782170002	NA	1	0	0.8	1	70.47646824	70.5904860889996	"4"	5503.400018821	5501.121457224	1.5	0.1
0.01	1	0.355482881999706	1	51	77.7092782170002	NA	1	0	0.8	1	70.8269573019998	71.1824401839995	"4"	5503.400018821	5501.121457224	1.5	0.1
0.01	1	0.129823190000025	1	51	77.7092782170002	NA	1	0	0.8	1	71.4114332649997	71.5412564549997	"4"	5503.400018821	5501.121457224	1.5	0.1
0.01	1	0.0987539309999192	1	51	77.7092782170002	NA	1	0	0.8	1	71.7785428819998	71.8772968129997	"4"	5503.400018821	5501.121457224	1.5	0.1
0.01	1	0.0761518689996592	1	51	77.7092782170002	NA	1	0	0.8	1	72.1126102449998	72.1887621139995	"4"	5503.400018821	5501.121457224	1.5	0.1
0.01	1	0.153135948999989	1	51	77.7092782170002	NA	1	0	0.8	1	72.4130847449997	72.5662206939996	"4"	5503.400018821	5501.121457224	1.5	0.1
0.01	1	0.0733400810004241	1	51	77.7092782170002	NA	1	0	0.8	1	72.7969792819995	72.8703193629999	"4"	5503.400018821	5501.121457224	1.5	0.1
0.01	1	0.101125208999292	1	51	77.7092782170002	NA	1	0	0.8	1	73.0975593200001	73.1986845289994	"4"	5503.400018821	5501.121457224	1.5	0.1
0.01	1	0.0852158349998717	1	51	77.7092782170002	NA	1	0	0.8	1	73.43138189	73.5165977249999	"4"	5503.400018821	5501.121457224	1.5	0.1
0.01	1	0.0730322819999856	1	51	77.7092782170002	NA	1	0	0.8	1	73.7485965999995	73.8216288819995	"4"	5503.400018821	5501.121457224	1.5	0.1
0.01	1	0.0929886130006707	1	51	77.7092782170002	NA	1	0	0.8	1	74.0491198889995	74.1421085020002	"4"	5503.400018821	5501.121457224	1.5	0.1
0.01	1	0.190708600000107	1	51	77.7092782170002	NA	1	0	0.8	1	74.3662337719998	74.5569423719999	"4"	5503.400018821	5501.121457224	1.5	0.1
0.01	1	0.27859127100055	1	51	77.7092782170002	NA	1	0	0.8	1	74.7837842049994	75.0623754759999	"4"	5503.400018821	5501.121457224	1.5	0.1
0.01	1	0.0974650199996177	1	51	77.7092782170002	NA	1	0	0.8	1	75.2844127070002	75.3818777269998	"4"	5503.400018821	5501.121457224	1.5	0.1
0.01	1	0.187031116999606	1	51	77.7092782170002	NA	1	0	0.8	1	75.6184521690002	75.8054832859998	"4"	5503.400018821	5501.121457224	1.5	0.1
0.01	1	0.138638614000229	1	51	77.7092782170002	NA	1	0	0.8	1	76.0357549549999	76.1743935690001	"4"	5503.400018821	5501.121457224	1.5	0.1
0.01	1	0.307030060000216	1	51	77.7092782170002	NA	1	0	0.8	1	76.4031370699995	76.7101671299997	"4"	5503.400018821	5501.121457224	1.5	0.1
0.01	1	0.140244303000145	1	51	77.7092782170002	NA	1	0	0.8	1	76.9373607549996	77.0776050579998	"4"	5503.400018821	5501.121457224	1.5	0.1
0.01	1	0.285407074999966	1	51	77.7092782170002	NA	1	0	0.8	1	77.3046032020002	77.5900102770001	"4"	5503.400018821	5501.121457224	1.5	0.1
0.01	1	0.440172833000361	1	116	NA	89.8980940439997	0	0.32	1.12	1	79.7586497249995	80.1988225579998	"5"	5503.400018821	5501.121457224	1.5	0.1
0.01	1	0.00479073699989385	1	116	NA	89.8980940439997	0	0.32	1.12	1	80.4264658450002	80.4312565820001	"5"	5503.400018821	5501.121457224	1.5	0.1
0.01	1	0.0805300060001173	1	116	NA	89.8980940439997	0	0.32	1.12	1	80.6601624019995	80.7406924079996	"5"	5503.400018821	5501.121457224	1.5	0.1
0.01	1	0.140152038999986	1	116	NA	89.8980940439997	0	0.32	1.12	1	80.9774458350003	81.1175978740002	"5"	5503.400018821	5501.121457224	1.5	0.1
0.01	1	0.109610583000176	1	116	NA	89.8980940439997	0	0.32	1.12	1	81.344653272	81.4542638550001	"5"	5503.400018821	5501.121457224	1.5	0.1
0.01	1	0.00212523699974554	1	116	NA	89.8980940439997	0	0.32	1.12	1	81.6786803180003	81.680805555	"5"	5503.400018821	5501.121457224	1.5	0.1
0.01	1	0.109901883999555	1	116	NA	89.8980940439997	0	0.32	1.12	1	81.9122645950001	82.0221664789997	"5"	5503.400018821	5501.121457224	1.5	0.1
0.01	1	0.119963533000373	1	116	NA	89.8980940439997	0	0.32	1.12	1	82.2461491499998	82.3661126830002	"5"	5503.400018821	5501.121457224	1.5	0.1
0.01	1	0.145251770999494	1	116	NA	89.8980940439997	0	0.32	1.12	1	82.596850123	82.7421018939995	"5"	5503.400018821	5501.121457224	1.5	0.1
0.01	1	0.00213611300023331	1	116	NA	89.8980940439997	0	0.32	1.12	1	82.9641569969999	82.9662931100002	"5"	5503.400018821	5501.121457224	1.5	0.1
0.01	1	0.104682129000139	1	116	NA	89.8980940439997	0	0.32	1.12	1	83.1978460849996	83.3025282139997	"5"	5503.400018821	5501.121457224	1.5	0.1
0.01	1	0.146445139999742	1	116	NA	89.8980940439997	0	0.32	1.12	1	83.5317076849997	83.6781528249994	"5"	5503.400018821	5501.121457224	1.5	0.1
0.01	1	0.130056672999672	1	116	NA	89.8980940439997	0	0.32	1.12	1	83.9157159460001	84.0457726189998	"5"	5503.400018821	5501.121457224	1.5	0.1
0.01	1	0.129933356000038	1	116	NA	89.8980940439997	0	0.32	1.12	1	84.2829392819995	84.4128726379995	"5"	5503.400018821	5501.121457224	1.5	0.1
0.01	1	0.116302946999895	1	116	NA	89.8980940439997	0	0.32	1.12	1	84.6502308199997	84.7665337669996	"5"	5503.400018821	5501.121457224	1.5	0.1
0.01	1	0.30025286900036	1	116	NA	89.8980940439997	0	0.32	1.12	1	85.0008415759994	85.3010944449998	"5"	5503.400018821	5501.121457224	1.5	0.1
0.01	1	0.00207251399933739	1	116	NA	89.8980940439997	0	0.32	1.12	1	85.5350691060003	85.5371416199996	"5"	5503.400018821	5501.121457224	1.5	0.1
0.01	1	0.117803101999925	1	116	NA	89.8980940439997	0	0.32	1.12	1	85.7687728450001	85.886575947	"5"	5503.400018821	5501.121457224	1.5	0.1
0.01	1	0.00470230199971411	1	116	NA	89.8980940439997	0	0.32	1.12	1	86.1193719450002	86.124074247	"5"	5503.400018821	5501.121457224	1.5	0.1
0.01	1	0.00403373400058626	1	116	NA	89.8980940439997	0	0.32	1.12	1	86.3530920799994	86.357125814	"5"	5503.400018821	5501.121457224	1.5	0.1
0.01	1	0.122887404000721	1	116	NA	89.8980940439997	0	0.32	1.12	1	86.5868604649995	86.7097478690002	"5"	5503.400018821	5501.121457224	1.5	0.1
0.01	1	0.00207761999990907	1	116	NA	89.8980940439997	0	0.32	1.12	1	86.9374390319999	86.9395166519998	"5"	5503.400018821	5501.121457224	1.5	0.1
0.01	1	0.0045539259999714	1	116	NA	89.8980940439997	0	0.32	1.12	1	87.1711626790002	87.1757166050002	"5"	5503.400018821	5501.121457224	1.5	0.1
0.01	1	0.353055234999374	1	116	NA	89.8980940439997	0	0.32	1.12	1	87.4048291150002	87.7578843499996	"5"	5503.400018821	5501.121457224	1.5	0.1
0.01	1	0.0412871190001169	1	116	NA	89.8980940439997	0	0.32	1.12	1	87.9892878199998	88.030574939	"5"	5503.400018821	5501.121457224	1.5	0.1
0.01	1	0.00430366299951856	1	116	NA	89.8980940439997	0	0.32	1.12	1	88.2563217070001	88.2606253699996	"5"	5503.400018821	5501.121457224	1.5	0.1
0.01	1	0.00364917900060391	1	116	NA	89.8980940439997	0	0.32	1.12	1	88.4899735669997	88.4936227460003	"5"	5503.400018821	5501.121457224	1.5	0.1
0.01	1	0.00324200599970936	1	116	NA	89.8980940439997	0	0.32	1.12	1	88.7237255760001	88.7269675819998	"5"	5503.400018821	5501.121457224	1.5	0.1
0.01	1	0.00272489399958431	1	116	NA	89.8980940439997	0	0.32	1.12	1	88.9574309720001	88.9601558659997	"5"	5503.400018821	5501.121457224	1.5	0.1
0.01	1	0.00218410100023902	1	116	NA	89.8980940439997	0	0.32	1.12	1	89.1912929049995	89.1934770059997	"5"	5503.400018821	5501.121457224	1.5	0.1
0.01	1	0.00214914099979069	1	116	NA	89.8980940439997	0	0.32	1.12	1	89.4249180079996	89.4270671489994	"5"	5503.400018821	5501.121457224	1.5	0.1
0.01	1	0.00352083400048286	1	116	NA	89.8980940439997	0	0.32	1.12	1	89.6586366519996	89.6621574860001	"5"	5503.400018821	5501.121457224	1.5	0.1
0.01	1	0.00404511200031266	2	116	NA	89.8980940439997	0	0.32	1.12	1	89.8923490019997	89.896394114	"5"	5503.400018821	5501.121457224	1.5	0.1
0.01	1	0.427233299999898	1	118	NA	105.238655346	0	0.37	1.49	1	91.9458179570001	92.373051257	"6"	5503.400018821	5501.121457224	1.5	0.1
0.01	1	0.00212149900016811	1	118	NA	105.238655346	0	0.37	1.49	1	92.6136889539994	92.6158104529995	"6"	5503.400018821	5501.121457224	1.5	0.1
0.01	1	0.0139310619997559	1	118	NA	105.238655346	0	0.37	1.49	1	92.8474325400002	92.861363602	"6"	5503.400018821	5501.121457224	1.5	0.1
0.01	1	0.00221662300009484	1	118	NA	105.238655346	0	0.37	1.49	1	93.0977892889996	93.1000059119997	"6"	5503.400018821	5501.121457224	1.5	0.1
0.01	1	0.00383775799946307	1	118	NA	105.238655346	0	0.37	1.49	1	93.3314718020001	93.3353095599996	"6"	5503.400018821	5501.121457224	1.5	0.1
0.01	1	0.00390043199968204	1	118	NA	105.238655346	0	0.37	1.49	1	93.5652878820001	93.5691883139998	"6"	5503.400018821	5501.121457224	1.5	0.1
0.01	1	0.0950239270005113	1	118	NA	105.238655346	0	0.37	1.49	1	93.7990370219995	93.894060949	"6"	5503.400018821	5501.121457224	1.5	0.1
0.01	1	0.00281966900001862	1	118	NA	105.238655346	0	0.37	1.49	1	94.1160957599996	94.1189154289996	"6"	5503.400018821	5501.121457224	1.5	0.1
0.01	1	0.00474341999961325	1	118	NA	105.238655346	0	0.37	1.49	1	94.349938845	94.3546822649996	"6"	5503.400018821	5501.121457224	1.5	0.1
0.01	1	0.00389113599976554	1	118	NA	105.238655346	0	0.37	1.49	1	94.5835544900001	94.5874456259999	"6"	5503.400018821	5501.121457224	1.5	0.1
0.01	1	0.268675420000363	1	118	NA	105.238655346	0	0.37	1.49	1	94.8173576769996	95.0860330969999	"6"	5503.400018821	5501.121457224	1.5	0.1
0.01	1	0.00399950599967269	1	118	NA	105.238655346	0	0.37	1.49	1	95.3182158	95.3222153059996	"6"	5503.400018821	5501.121457224	1.5	0.1
0.01	1	0.0620701070001815	1	118	NA	105.238655346	0	0.37	1.49	1	95.552068129	95.6141382360001	"6"	5503.400018821	5501.121457224	1.5	0.1
0.01	1	0.119996450000144	1	118	NA	105.238655346	0	0.37	1.49	1	95.8525226749998	95.972519125	"6"	5503.400018821	5501.121457224	1.5	0.1
0.01	1	0.00462321299983159	1	118	NA	105.238655346	0	0.37	1.49	1	96.2031037119996	96.2077269249994	"6"	5503.400018821	5501.121457224	1.5	0.1
0.01	1	0.0962588049997066	1	118	NA	105.238655346	0	0.37	1.49	1	96.4367519469997	96.5330107519994	"6"	5503.400018821	5501.121457224	1.5	0.1
0.01	1	0.162426253999911	1	118	NA	105.238655346	0	0.37	1.49	1	96.7706747089996	96.9331009629996	"6"	5503.400018821	5501.121457224	1.5	0.1
0.01	1	0.15382904100079	1	118	NA	105.238655346	0	0.37	1.49	1	97.1712214439995	97.3250504850002	"6"	5503.400018821	5501.121457224	1.5	0.1
0.01	1	0.00220629699924757	1	118	NA	105.238655346	0	0.37	1.49	1	97.5553443500003	97.5575506469995	"6"	5503.400018821	5501.121457224	1.5	0.1
0.01	1	0.00207053499980248	1	118	NA	105.238655346	0	0.37	1.49	1	97.7890695839997	97.7911401189995	"6"	5503.400018821	5501.121457224	1.5	0.1
0.01	1	0.00479193000046507	1	118	NA	105.238655346	0	0.37	1.49	1	98.0227330299995	98.0275249599999	"6"	5503.400018821	5501.121457224	1.5	0.1
0.01	1	0.100340379000045	1	118	NA	105.238655346	0	0.37	1.49	1	98.2564335299994	98.3567739089995	"6"	5503.400018821	5501.121457224	1.5	0.1
0.01	1	0.16648783600067	1	118	NA	105.238655346	0	0.37	1.49	1	98.5904508839994	98.7569387200001	"6"	5503.400018821	5501.121457224	1.5	0.1
0.01	1	0.0022778130005463	1	118	NA	105.238655346	0	0.37	1.49	1	98.9910854089994	98.993363222	"6"	5503.400018821	5501.121457224	1.5	0.1
0.01	1	0.00542144999963057	1	118	NA	105.238655346	0	0.37	1.49	1	99.224719328	99.2301407779996	"6"	5503.400018821	5501.121457224	1.5	0.1
0.01	1	0.0519910980001441	1	118	NA	105.238655346	0	0.37	1.49	1	99.4584720069997	99.5104631049999	"6"	5503.400018821	5501.121457224	1.5	0.1
0.01	1	0.00739704299940058	1	118	NA	105.238655346	0	0.37	1.49	1	99.7422941770001	99.7496912199995	"6"	5503.400018821	5501.121457224	1.5	0.1
0.01	1	0.00740357300037431	1	118	NA	105.238655346	0	0.37	1.49	1	99.9761183849996	99.983521958	"6"	5503.400018821	5501.121457224	1.5	0.1
0.01	1	0.0203225390005173	1	118	NA	105.238655346	0	0.37	1.49	1	100.209773047	100.230095586	"6"	5503.400018821	5501.121457224	1.5	0.1
0.01	1	0.0178649330000553	1	118	NA	105.238655346	0	0.37	1.49	1	100.460238515	100.478103448	"6"	5503.400018821	5501.121457224	1.5	0.1
0.01	1	0.0236438429992631	1	118	NA	105.238655346	0	0.37	1.49	1	100.710686055	100.734329897999	"6"	5503.400018821	5501.121457224	1.5	0.1
0.01	1	0.0936070139996446	1	118	NA	105.238655346	0	0.37	1.49	1	100.961039367	101.054646381	"6"	5503.400018821	5501.121457224	1.5	0.1
0.01	1	0.486330280000402	1	118	NA	105.238655346	0	0.37	1.49	1	101.278233935	101.764564215	"6"	5503.400018821	5501.121457224	1.5	0.1
0.01	1	0.385442868000609	1	118	NA	105.238655346	0	0.37	1.49	1	101.996108967	102.381551835	"6"	5503.400018821	5501.121457224	1.5	0.1
0.01	1	0.487986125000134	1	118	NA	105.238655346	0	0.37	1.49	1	102.61378306	103.101769185	"6"	5503.400018821	5501.121457224	1.5	0.1
0.01	1	0.569965415000297	1	118	NA	105.238655346	0	0.37	1.49	1	103.331690585	103.901656	"6"	5503.400018821	5501.121457224	1.5	0.1
0.01	1	0.559737538000263	1	118	NA	105.238655346	0	0.37	1.49	1	104.133007177	104.692744715	"6"	5503.400018821	5501.121457224	1.5	0.1
0.01	1	0.319464571000026	2	118	NA	105.238655346	0	0.37	1.49	1	104.91764976	105.237114331	"6"	5503.400018821	5501.121457224	1.5	0.1
0.01	1	0.00227413900029205	1	87	NA	122.286629368999	0	0.44	1.93	1	107.288411476999	107.290685616	"7"	5503.400018821	5501.121457224	1.5	0.1
0.01	1	0.0120373399995515	1	87	NA	122.286629368999	0	0.44	1.93	1	107.52204026	107.534077599999	"7"	5503.400018821	5501.121457224	1.5	0.1
0.01	1	0.112081332999878	1	87	NA	122.286629368999	0	0.44	1.93	1	107.77245509	107.884536423	"7"	5503.400018821	5501.121457224	1.5	0.1
0.01	1	0.00210406899986992	1	87	NA	122.286629368999	0	0.44	1.93	1	108.106410934	108.108515002999	"7"	5503.400018821	5501.121457224	1.5	0.1
0.01	1	0.00227524599995377	1	87	NA	122.286629368999	0	0.44	1.93	1	108.340148258	108.342423504	"7"	5503.400018821	5501.121457224	1.5	0.1
0.01	1	0.00382768300005409	1	87	NA	122.286629368999	0	0.44	1.93	1	108.573830537	108.57765822	"7"	5503.400018821	5501.121457224	1.5	0.1
0.01	1	0.101106154999798	1	87	NA	122.286629368999	0	0.44	1.93	1	108.807496765	108.90860292	"7"	5503.400018821	5501.121457224	1.5	0.1
0.01	1	0.00209738100056711	1	87	NA	122.286629368999	0	0.44	1.93	1	109.141560917999	109.143658299	"7"	5503.400018821	5501.121457224	1.5	0.1
0.01	1	0.00473559500005649	1	87	NA	122.286629368999	0	0.44	1.93	1	109.375214674999	109.379950269999	"7"	5503.400018821	5501.121457224	1.5	0.1
0.01	1	0.0996219879998534	1	87	NA	122.286629368999	0	0.44	1.93	1	109.60896176	109.708583748	"7"	5503.400018821	5501.121457224	1.5	0.1
0.01	1	0.00437633999990794	1	87	NA	122.286629368999	0	0.44	1.93	1	109.94278805	109.94716439	"7"	5503.400018821	5501.121457224	1.5	0.1
0.01	1	0.00486612499935291	1	87	NA	122.286629368999	0	0.44	1.93	1	110.176523035	110.18138916	"7"	5503.400018821	5501.121457224	1.5	0.1
0.01	1	0.00423012200008088	1	87	NA	122.286629368999	0	0.44	1.93	1	110.410194222	110.414424344	"7"	5503.400018821	5501.121457224	1.5	0.1
0.01	1	0.00420235300043714	1	87	NA	122.286629368999	0	0.44	1.93	1	110.643988577	110.64819093	"7"	5503.400018821	5501.121457224	1.5	0.1
0.01	1	0.0388382490000367	1	87	NA	122.286629368999	0	0.44	1.93	1	110.87772584	110.916564089	"7"	5503.400018821	5501.121457224	1.5	0.1
0.01	1	0.0075231149994579	1	87	NA	122.286629368999	0	0.44	1.93	1	111.144914155	111.15243727	"7"	5503.400018821	5501.121457224	1.5	0.1
0.01	1	0.00225471200064931	1	87	NA	122.286629368999	0	0.44	1.93	1	111.378443045	111.380697757	"7"	5503.400018821	5501.121457224	1.5	0.1
0.01	1	0.00267062100010662	1	87	NA	122.286629368999	0	0.44	1.93	1	111.612268754	111.614939375	"7"	5503.400018821	5501.121457224	1.5	0.1
0.01	1	0.00959172600050806	1	87	NA	122.286629368999	0	0.44	1.93	1	111.846030969999	111.855622696	"7"	5503.400018821	5501.121457224	1.5	0.1
0.01	1	0.0021460930001922	1	87	NA	122.286629368999	0	0.44	1.93	1	112.079763506999	112.0819096	"7"	5503.400018821	5501.121457224	1.5	0.1
0.01	1	0.00218852999933006	1	87	NA	122.286629368999	0	0.44	1.93	1	112.313498757	112.315687286999	"7"	5503.400018821	5501.121457224	1.5	0.1
0.01	1	0.00403017000007821	1	87	NA	122.286629368999	0	0.44	1.93	1	112.54723315	112.55126332	"7"	5503.400018821	5501.121457224	1.5	0.1
0.01	1	0.16077545600001	1	87	NA	122.286629368999	0	0.44	1.93	1	112.780926542	112.941701998	"7"	5503.400018821	5501.121457224	1.5	0.1
0.01	1	0.0164201110001159	1	87	NA	122.286629368999	0	0.44	1.93	1	113.164862279999	113.181282391	"7"	5503.400018821	5501.121457224	1.5	0.1
0.01	1	0.0389425749999646	1	87	NA	122.286629368999	0	0.44	1.93	1	113.415309434999	113.454252009999	"7"	5503.400018821	5501.121457224	1.5	0.1
0.01	1	0.0589690279994102	1	87	NA	122.286629368999	0	0.44	1.93	1	113.68265881	113.741627838	"7"	5503.400018821	5501.121457224	1.5	0.1
0.01	1	0.0392564990006576	1	87	NA	122.286629368999	0	0.44	1.93	1	113.96626307	114.005519569	"7"	5503.400018821	5501.121457224	1.5	0.1
0.01	1	0.00795827399997506	1	87	NA	122.286629368999	0	0.44	1.93	1	114.23335781	114.241316084	"7"	5503.400018821	5501.121457224	1.5	0.1
0.01	1	0.0417611670000042	1	87	NA	122.286629368999	0	0.44	1.93	1	114.467012465	114.508773632	"7"	5503.400018821	5501.121457224	1.5	0.1
0.01	1	0.0465674630004287	1	87	NA	122.286629368999	0	0.44	1.93	1	114.734328805	114.780896268	"7"	5503.400018821	5501.121457224	1.5	0.1
0.01	1	0.0193144220002068	1	87	NA	122.286629368999	0	0.44	1.93	1	115.017958632	115.037273054	"7"	5503.400018821	5501.121457224	1.5	0.1
0.01	1	0.056909285999609	1	87	NA	122.286629368999	0	0.44	1.93	1	115.268476452	115.325385738	"7"	5503.400018821	5501.121457224	1.5	0.1
0.01	1	0.0772627209998973	1	87	NA	122.286629368999	0	0.44	1.93	1	115.55224197	115.629504691	"7"	5503.400018821	5501.121457224	1.5	0.1
0.01	1	0.105552111000179	1	87	NA	122.286629368999	0	0.44	1.93	1	115.852777495	115.958329606	"7"	5503.400018821	5501.121457224	1.5	0.1
0.01	1	0.186751950000144	1	87	NA	122.286629368999	0	0.44	1.93	1	116.186711034999	116.373462985	"7"	5503.400018821	5501.121457224	1.5	0.1
0.01	1	0.193491482999889	1	87	NA	122.286629368999	0	0.44	1.93	1	116.604132595	116.797624078	"7"	5503.400018821	5501.121457224	1.5	0.1
0.01	1	0.17695133899997	1	87	NA	122.286629368999	0	0.44	1.93	1	117.02138689	117.198338229	"7"	5503.400018821	5501.121457224	1.5	0.1
0.01	1	0.184541949000049	1	87	NA	122.286629368999	0	0.44	1.93	1	117.422047202	117.606589151	"7"	5503.400018821	5501.121457224	1.5	0.1
0.01	1	0.254475599999751	1	87	NA	122.286629368999	0	0.44	1.93	1	117.839489675	118.093965274999	"7"	5503.400018821	5501.121457224	1.5	0.1
0.01	1	0.330180492000181	1	87	NA	122.286629368999	0	0.44	1.93	1	118.323493757	118.653674249	"7"	5503.400018821	5501.121457224	1.5	0.1
0.01	1	0.442076197999995	1	87	NA	122.286629368999	0	0.44	1.93	1	118.891182077	119.333258275	"7"	5503.400018821	5501.121457224	1.5	0.1
0.01	1	0.359318404000078	1	87	NA	122.286629368999	0	0.44	1.93	1	119.558998265	119.918316669	"7"	5503.400018821	5501.121457224	1.5	0.1
0.01	1	0.622687154999767	1	87	NA	122.286629368999	0	0.44	1.93	1	120.143263925	120.765951079999	"7"	5503.400018821	5501.121457224	1.5	0.1
0.01	1	0.82624905800003	1	87	NA	122.286629368999	0	0.44	1.93	1	120.994769049999	121.821018107999	"7"	5503.400018821	5501.121457224	1.5	0.1
0.01	1	0.238628989999597	2	87	NA	122.286629368999	0	0.44	1.93	1	122.046470599	122.285099588999	"7"	5503.400018821	5501.121457224	1.5	0.1
0.01	1	0.176093675000629	1	6	126.023945309999	NA	1	0	1.93	1	124.333712969999	124.509806645	"8"	5503.400018821	5501.121457224	1.5	0.1
0.01	1	0.0047717070001454	1	6	126.023945309999	NA	1	0	1.93	1	124.751060255	124.755831962	"8"	5503.400018821	5501.121457224	1.5	0.1
0.01	1	0.0614695149997715	1	6	126.023945309999	NA	1	0	1.93	1	124.98480381	125.046273325	"8"	5503.400018821	5501.121457224	1.5	0.1
0.01	1	0.0882999080004083	1	6	126.023945309999	NA	1	0	1.93	1	125.26862035	125.356920258	"8"	5503.400018821	5501.121457224	1.5	0.1
0.01	1	0.00415010199958488	1	6	126.023945309999	NA	1	0	1.93	1	125.58578672	125.589936822	"8"	5503.400018821	5501.121457224	1.5	0.1
0.01	1	0.0824786820003283	1	6	126.023945309999	NA	1	0	1.93	1	125.819491042	125.901969724	"8"	5503.400018821	5501.121457224	1.5	0.1
0.01	1	0.00226992500029155	1	106	NA	134.071251945999	0	0.24	2.17	1	128.056552755	128.05882268	"9"	5503.400018821	5501.121457224	1.5	0.1
0.01	1	0.00394695799968758	1	106	NA	134.071251945999	0	0.24	2.17	1	128.29037808	128.294325037999	"9"	5503.400018821	5501.121457224	1.5	0.1
0.01	1	0.0902590280002187	1	106	NA	134.071251945999	0	0.24	2.17	1	128.524200287	128.614459315	"9"	5503.400018821	5501.121457224	1.5	0.1
0.01	1	0.00215269799991802	1	106	NA	134.071251945999	0	0.24	2.17	1	128.841268479	128.843421177	"9"	5503.400018821	5501.121457224	1.5	0.1
0.01	1	0.00208949900024891	1	106	NA	134.071251945999	0	0.24	2.17	1	129.074993196999	129.077082696	"9"	5503.400018821	5501.121457224	1.5	0.1
0.01	1	0.0896098160001202	1	106	NA	134.071251945999	0	0.24	2.17	1	129.30871609	129.398325906	"9"	5503.400018821	5501.121457224	1.5	0.1
0.01	1	0.00218216900066182	1	106	NA	134.071251945999	0	0.24	2.17	1	129.625904258	129.628086427	"9"	5503.400018821	5501.121457224	1.5	0.1
0.01	1	0.00223519599967403	1	106	NA	134.071251945999	0	0.24	2.17	1	129.859723198	129.861958394	"9"	5503.400018821	5501.121457224	1.5	0.1
0.01	1	0.00221564100047544	1	106	NA	134.071251945999	0	0.24	2.17	1	130.093433436999	130.095649078	"9"	5503.400018821	5501.121457224	1.5	0.1
0.01	1	0.00231041900042328	1	106	NA	134.071251945999	0	0.24	2.17	1	130.327079807	130.329390226	"9"	5503.400018821	5501.121457224	1.5	0.1
0.01	1	0.0118733680001242	1	106	NA	134.071251945999	0	0.24	2.17	1	130.56084999	130.572723358	"9"	5503.400018821	5501.121457224	1.5	0.1
0.01	1	0.0502337849993637	1	106	NA	134.071251945999	0	0.24	2.17	1	130.794569167	130.844802952	"9"	5503.400018821	5501.121457224	1.5	0.1
0.01	1	0.0306643419999091	1	106	NA	134.071251945999	0	0.24	2.17	1	131.07831757	131.108981912	"9"	5503.400018821	5501.121457224	1.5	0.1
0.01	1	0.00738442700003361	1	106	NA	134.071251945999	0	0.24	2.17	1	131.345536435	131.352920862	"9"	5503.400018821	5501.121457224	1.5	0.1
0.01	1	0.0102037819997349	1	106	NA	134.071251945999	0	0.24	2.17	1	131.579198195	131.589401976999	"9"	5503.400018821	5501.121457224	1.5	0.1
0.01	1	0.00975154200023098	1	106	NA	134.071251945999	0	0.24	2.17	1	131.812878297	131.822629839	"9"	5503.400018821	5501.121457224	1.5	0.1
0.01	1	0.00746010100010608	1	106	NA	134.071251945999	0	0.24	2.17	1	132.046753066999	132.054213167999	"9"	5503.400018821	5501.121457224	1.5	0.1
0.01	1	0.00230681599987292	1	106	NA	134.071251945999	0	0.24	2.17	1	132.280307655	132.282614471	"9"	5503.400018821	5501.121457224	1.5	0.1
0.01	1	0.00213331200029643	1	106	NA	134.071251945999	0	0.24	2.17	1	132.514117082	132.516250394	"9"	5503.400018821	5501.121457224	1.5	0.1
0.01	1	0.00245167899993248	1	106	NA	134.071251945999	0	0.24	2.17	1	132.7478684	132.750320079	"9"	5503.400018821	5501.121457224	1.5	0.1
0.01	1	0.00210720099948958	1	106	NA	134.071251945999	0	0.24	2.17	1	132.981615476	132.983722677	"9"	5503.400018821	5501.121457224	1.5	0.1
0.01	1	0.00463838199993916	1	106	NA	134.071251945999	0	0.24	2.17	1	133.215370854999	133.220009236999	"9"	5503.400018821	5501.121457224	1.5	0.1
0.01	1	0.00394636100008938	1	106	NA	134.071251945999	0	0.24	2.17	1	133.449036207	133.452982568	"9"	5503.400018821	5501.121457224	1.5	0.1
0.01	1	0.146274278999954	1	106	NA	134.071251945999	0	0.24	2.17	1	133.68273258	133.829006858999	"9"	5503.400018821	5501.121457224	1.5	0.1
0.01	1	0.00303107599938812	2	106	NA	134.071251945999	0	0.24	2.17	1	134.06670768	134.069738755999	"9"	5503.400018821	5501.121457224	1.5	0.1
0.01	1	0.101147485999718	1	21	142.200317922	NA	1	0	2.17	1	136.120137145	136.221284630999	"10"	5503.400018821	5501.121457224	1.5	0.1
0.01	1	0.00370355500035657	1	21	142.200317922	NA	1	0	2.17	1	136.454086975	136.45779053	"10"	5503.400018821	5501.121457224	1.5	0.1
0.01	1	0.00319037799999933	1	21	142.200317922	NA	1	0	2.17	1	136.68774059	136.690930968	"10"	5503.400018821	5501.121457224	1.5	0.1
0.01	1	0.123592187999748	1	21	142.200317922	NA	1	0	2.17	1	136.921597327	137.045189515	"10"	5503.400018821	5501.121457224	1.5	0.1
0.01	1	0.0020487880001383	1	21	142.200317922	NA	1	0	2.17	1	137.272152474	137.274201262	"10"	5503.400018821	5501.121457224	1.5	0.1
0.01	1	0.123769851999896	1	21	142.200317922	NA	1	0	2.17	1	137.505880365	137.629650217	"10"	5503.400018821	5501.121457224	1.5	0.1
0.01	1	0.00206974499997159	1	21	142.200317922	NA	1	0	2.17	1	137.856525495	137.85859524	"10"	5503.400018821	5501.121457224	1.5	0.1
0.01	1	0.122635612000522	1	21	142.200317922	NA	1	0	2.17	1	138.09014583	138.212781442	"10"	5503.400018821	5501.121457224	1.5	0.1
0.01	1	0.00232293699991715	1	21	142.200317922	NA	1	0	2.17	1	138.440721665	138.443044602	"10"	5503.400018821	5501.121457224	1.5	0.1
0.01	1	0.00375612300013017	1	21	142.200317922	NA	1	0	2.17	1	138.674483217	138.67823934	"10"	5503.400018821	5501.121457224	1.5	0.1
0.01	1	0.129600073999427	1	21	142.200317922	NA	1	0	2.17	1	138.908187555	139.037787628999	"10"	5503.400018821	5501.121457224	1.5	0.1
0.01	1	0.170085686000675	1	21	142.200317922	NA	1	0	2.17	1	139.275455524999	139.445541211	"10"	5503.400018821	5501.121457224	1.5	0.1
0.01	1	0.00227331599944591	1	21	142.200317922	NA	1	0	2.17	1	139.676185935	139.678459250999	"10"	5503.400018821	5501.121457224	1.5	0.1
0.01	1	0.136298731000352	1	21	142.200317922	NA	1	0	2.17	1	139.909913017	140.046211748	"10"	5503.400018821	5501.121457224	1.5	0.1
0.01	1	0.00213310400067712	1	21	142.200317922	NA	1	0	2.17	1	140.277144363999	140.279277468	"10"	5503.400018821	5501.121457224	1.5	0.1
0.01	1	0.135202441999354	1	21	142.200317922	NA	1	0	2.17	1	140.510968675	140.646171117	"10"	5503.400018821	5501.121457224	1.5	0.1
0.01	1	0.002104270000018	1	21	142.200317922	NA	1	0	2.17	1	140.878128601999	140.880232871999	"10"	5503.400018821	5501.121457224	1.5	0.1
0.01	1	0.142386902999533	1	21	142.200317922	NA	1	0	2.17	1	141.111852217	141.25423912	"10"	5503.400018821	5501.121457224	1.5	0.1
0.01	1	0.00455391699961183	1	21	142.200317922	NA	1	0	2.17	1	141.47943632	141.483990236999	"10"	5503.400018821	5501.121457224	1.5	0.1
0.01	1	0.0022678060004182	1	21	142.200317922	NA	1	0	2.17	1	141.713006706	141.715274512	"10"	5503.400018821	5501.121457224	1.5	0.1
0.01	1	0.139272014000198	1	21	142.200317922	NA	1	0	2.17	1	141.946689675	142.085961689	"10"	5503.400018821	5501.121457224	1.5	0.1
0.01	1	0.0835229100002834	1	19	149.579319165	NA	1	0	2.17	1	144.250577745	144.334100655	"11"	5503.400018821	5501.121457224	1.5	0.1
0.01	1	0.00209488499967847	1	19	149.579319165	NA	1	0	2.17	1	144.56778666	144.569881545	"11"	5503.400018821	5501.121457224	1.5	0.1
0.01	1	0.132664750000004	1	19	149.579319165	NA	1	0	2.17	1	144.801495885	144.934160635	"11"	5503.400018821	5501.121457224	1.5	0.1
0.01	1	0.0020460389996515	1	19	149.579319165	NA	1	0	2.17	1	145.168849343	145.170895382	"11"	5503.400018821	5501.121457224	1.5	0.1
0.01	1	0.00215007699989656	1	19	149.579319165	NA	1	0	2.17	1	145.402379722	145.404529799	"11"	5503.400018821	5501.121457224	1.5	0.1
0.01	1	0.00945054800013168	1	19	149.579319165	NA	1	0	2.17	1	145.636240117	145.645690665	"11"	5503.400018821	5501.121457224	1.5	0.1
0.01	1	0.0100128649992257	1	19	149.579319165	NA	1	0	2.17	1	145.869985567	145.879998431999	"11"	5503.400018821	5501.121457224	1.5	0.1
0.01	1	0.00216640500002541	1	19	149.579319165	NA	1	0	2.17	1	146.103666442	146.105832847	"11"	5503.400018821	5501.121457224	1.5	0.1
0.01	1	0.00380252499962808	1	19	149.579319165	NA	1	0	2.17	1	146.337317497	146.341120022	"11"	5503.400018821	5501.121457224	1.5	0.1
0.01	1	0.0988975189993653	1	19	149.579319165	NA	1	0	2.17	1	146.57118608	146.670083599	"11"	5503.400018821	5501.121457224	1.5	0.1
0.01	1	0.00206508100018254	1	19	149.579319165	NA	1	0	2.17	1	146.904969056	146.907034137	"11"	5503.400018821	5501.121457224	1.5	0.1
0.01	1	0.00391266599945084	1	19	149.579319165	NA	1	0	2.17	1	147.13879909	147.142711756	"11"	5503.400018821	5501.121457224	1.5	0.1
0.01	1	0.168958991000181	1	19	149.579319165	NA	1	0	2.17	1	147.372554535	147.541513526	"11"	5503.400018821	5501.121457224	1.5	0.1
0.01	1	0.311904838999908	1	19	149.579319165	NA	1	0	2.17	1	147.773096955	148.085001794	"11"	5503.400018821	5501.121457224	1.5	0.1
0.01	1	0.0579345539999849	1	19	149.579319165	NA	1	0	2.17	1	148.307375095	148.365309649	"11"	5503.400018821	5501.121457224	1.5	0.1
0.01	1	0.0139672720006274	1	19	149.579319165	NA	1	0	2.17	1	148.591193967	148.605161239	"11"	5503.400018821	5501.121457224	1.5	0.1
0.01	1	0.0835977659999116	1	19	149.579319165	NA	1	0	2.17	1	148.84157803	148.925175796	"11"	5503.400018821	5501.121457224	1.5	0.1
0.01	1	0.0381984740006374	1	19	149.579319165	NA	1	0	2.17	1	149.1587463	149.196944774	"11"	5503.400018821	5501.121457224	1.5	0.1
0.01	1	0.036653166999713	1	19	149.579319165	NA	1	0	2.17	1	149.42589901	149.462552176999	"11"	5503.400018821	5501.121457224	1.5	0.1
0.01	1	0.00389723599982972	1	63	NA	153.204541061999	0	0.06	2.23	1	151.629609572	151.633506808	"12"	5503.400018821	5501.121457224	1.5	0.1
0.01	1	0.00212886700046511	1	63	NA	153.204541061999	0	0.06	2.23	1	151.863364698	151.865493565	"12"	5503.400018821	5501.121457224	1.5	0.1
0.01	1	0.108203720000347	1	63	NA	153.204541061999	0	0.06	2.23	1	152.097148684999	152.205352405	"12"	5503.400018821	5501.121457224	1.5	0.1
0.01	1	0.00483168499977182	1	63	NA	153.204541061999	0	0.06	2.23	1	152.430977195	152.43580888	"12"	5503.400018821	5501.121457224	1.5	0.1
0.01	1	0.0766112459996293	1	63	NA	153.204541061999	0	0.06	2.23	1	152.664662602	152.741273848	"12"	5503.400018821	5501.121457224	1.5	0.1
0.01	1	0.00455140699978074	1	63	NA	153.204541061999	0	0.06	2.23	1	152.965134108	152.969685515	"12"	5503.400018821	5501.121457224	1.5	0.1
0.01	1	0.00397602199973335	2	63	NA	153.204541061999	0	0.06	2.23	1	153.198839682	153.202815703999	"12"	5503.400018821	5501.121457224	1.5	0.1
0.01	1	0.0977664199999708	1	54	NA	157.796001792	0	0.09	2.32	1	155.252421045	155.350187465	"13"	5503.400018821	5501.121457224	1.5	0.1
0.01	1	0.00230943999940791	1	54	NA	157.796001792	0	0.09	2.32	1	155.586341815	155.588651255	"13"	5503.400018821	5501.121457224	1.5	0.1
0.01	1	0.0977013870005976	1	54	NA	157.796001792	0	0.09	2.32	1	155.819924717	155.917626104	"13"	5503.400018821	5501.121457224	1.5	0.1
0.01	1	0.00408629899993684	1	54	NA	157.796001792	0	0.09	2.32	1	156.153916487	156.158002786	"13"	5503.400018821	5501.121457224	1.5	0.1
0.01	1	0.0977545650002867	1	54	NA	157.796001792	0	0.09	2.32	1	156.38763108	156.485385645	"13"	5503.400018821	5501.121457224	1.5	0.1
0.01	1	0.00476342999991175	1	54	NA	157.796001792	0	0.09	2.32	1	156.721610985	156.726374415	"13"	5503.400018821	5501.121457224	1.5	0.1
0.01	1	0.138649610000357	1	54	NA	157.796001792	0	0.09	2.32	1	156.955271889999	157.0939215	"13"	5503.400018821	5501.121457224	1.5	0.1
0.01	1	0.00349646200083953	1	54	NA	157.796001792	0	0.09	2.32	1	157.322485975999	157.325982438	"13"	5503.400018821	5501.121457224	1.5	0.1
0.01	1	0.00213044500014803	1	54	NA	157.796001792	0	0.09	2.32	1	157.556191062999	157.558321508	"13"	5503.400018821	5501.121457224	1.5	0.1
0.01	1	0.00414786799956346	2	54	NA	157.796001792	0	0.09	2.32	1	157.789964562	157.79411243	"13"	5503.400018821	5501.121457224	1.5	0.1
0.01	1	0.0909857679998822	1	103	NA	165.506971055	0	0.21	2.53	1	159.843417517	159.934403284999	"14"	5503.400018821	5501.121457224	1.5	0.1
0.01	1	0.00406191799993394	1	103	NA	165.506971055	0	0.21	2.53	1	160.160573659999	160.164635577999	"14"	5503.400018821	5501.121457224	1.5	0.1
0.01	1	0.107798676000129	1	103	NA	165.506971055	0	0.21	2.53	1	160.39430179	160.502100466	"14"	5503.400018821	5501.121457224	1.5	0.1
0.01	1	0.00211883400061197	1	103	NA	165.506971055	0	0.21	2.53	1	160.72822236	160.730341194	"14"	5503.400018821	5501.121457224	1.5	0.1
0.01	1	0.132251064000229	1	103	NA	165.506971055	0	0.21	2.53	1	160.961937587	161.094188651	"14"	5503.400018821	5501.121457224	1.5	0.1
0.01	1	0.00211677600054827	1	103	NA	165.506971055	0	0.21	2.53	1	161.329248403999	161.33136518	"14"	5503.400018821	5501.121457224	1.5	0.1
0.01	1	0.16224117999991	1	103	NA	165.506971055	0	0.21	2.53	1	161.562964609	161.725205789	"14"	5503.400018821	5501.121457224	1.5	0.1
0.01	1	0.00476236499980587	1	103	NA	165.506971055	0	0.21	2.53	1	161.96368931	161.968451674999	"14"	5503.400018821	5501.121457224	1.5	0.1
0.01	1	0.00204534499971487	1	103	NA	165.506971055	0	0.21	2.53	1	162.197437445	162.19948279	"14"	5503.400018821	5501.121457224	1.5	0.1
0.01	1	0.00480245499966259	1	103	NA	165.506971055	0	0.21	2.53	1	162.43111518	162.435917635	"14"	5503.400018821	5501.121457224	1.5	0.1
0.01	1	0.0047388899993166	1	103	NA	165.506971055	0	0.21	2.53	1	162.66489833	162.669637219999	"14"	5503.400018821	5501.121457224	1.5	0.1
0.01	1	0.00405629099986982	1	103	NA	165.506971055	0	0.21	2.53	1	162.898560797	162.902617088	"14"	5503.400018821	5501.121457224	1.5	0.1
0.01	1	0.00472624000030919	1	103	NA	165.506971055	0	0.21	2.53	1	163.132314214999	163.137040455	"14"	5503.400018821	5501.121457224	1.5	0.1
0.01	1	0.00483224700019491	1	103	NA	165.506971055	0	0.21	2.53	1	163.36608559	163.370917837	"14"	5503.400018821	5501.121457224	1.5	0.1
0.01	1	0.00741807899976266	1	103	NA	165.506971055	0	0.21	2.53	1	163.599770267	163.607188346	"14"	5503.400018821	5501.121457224	1.5	0.1
0.01	1	0.0521390449994215	1	103	NA	165.506971055	0	0.21	2.53	1	163.83345919	163.885598235	"14"	5503.400018821	5501.121457224	1.5	0.1
0.01	1	0.0312967250001748	1	103	NA	165.506971055	0	0.21	2.53	1	164.117259799999	164.148556525	"14"	5503.400018821	5501.121457224	1.5	0.1
0.01	1	0.0699734519994308	1	103	NA	165.506971055	0	0.21	2.53	1	164.384435445	164.454408897	"14"	5503.400018821	5501.121457224	1.5	0.1
0.01	1	0.0484604329994909	1	103	NA	165.506971055	0	0.21	2.53	1	164.684928525	164.733388958	"14"	5503.400018821	5501.121457224	1.5	0.1
0.01	1	0.037642909999704	1	103	NA	165.506971055	0	0.21	2.53	1	164.96869403	165.00633694	"14"	5503.400018821	5501.121457224	1.5	0.1
0.01	1	0.0334864710002876	1	103	NA	165.506971055	0	0.21	2.53	1	165.235853935	165.269340406	"14"	5503.400018821	5501.121457224	1.5	0.1
0.01	1	0.00226678600029118	2	103	NA	165.506971055	0	0.21	2.53	1	165.502990905999	165.505257692	"14"	5503.400018821	5501.121457224	1.5	0.1
0.01	1	0.00460275600016757	1	120	NA	173.375850476999	0	0.2	2.73	1	167.556450819	167.561053575	"15"	5503.400018821	5501.121457224	1.5	0.1
0.01	1	0.143779668999741	1	120	NA	173.375850476999	0	0.2	2.73	1	167.790131455	167.933911124	"15"	5503.400018821	5501.121457224	1.5	0.1
0.01	1	0.00212799600012659	1	120	NA	173.375850476999	0	0.2	2.73	1	168.174079468999	168.176207465	"15"	5503.400018821	5501.121457224	1.5	0.1
0.01	1	0.0927165830007652	1	120	NA	173.375850476999	0	0.2	2.73	1	168.407860421999	168.500577005	"15"	5503.400018821	5501.121457224	1.5	0.1
0.01	1	0.00217872699977306	1	120	NA	173.375850476999	0	0.2	2.73	1	168.725075188	168.727253915	"15"	5503.400018821	5501.121457224	1.5	0.1
0.01	1	0.111503533000359	1	120	NA	173.375850476999	0	0.2	2.73	1	168.958849324999	169.070352858	"15"	5503.400018821	5501.121457224	1.5	0.1
0.01	1	0.00478945000031672	1	120	NA	173.375850476999	0	0.2	2.73	1	169.29265755	169.297447	"15"	5503.400018821	5501.121457224	1.5	0.1
0.01	1	0.118348117000096	1	120	NA	173.375850476999	0	0.2	2.73	1	169.526434035	169.644782152	"15"	5503.400018821	5501.121457224	1.5	0.1
0.01	1	0.00214018499991653	1	120	NA	173.375850476999	0	0.2	2.73	1	169.87700648	169.879146665	"15"	5503.400018821	5501.121457224	1.5	0.1
0.01	1	0.118195670000205	1	120	NA	173.375850476999	0	0.2	2.73	1	170.110731428	170.228927098	"15"	5503.400018821	5501.121457224	1.5	0.1
0.01	1	0.004052968999531	1	120	NA	173.375850476999	0	0.2	2.73	1	170.461337375	170.465390343999	"15"	5503.400018821	5501.121457224	1.5	0.1
0.01	1	0.0943433720003668	1	120	NA	173.375850476999	0	0.2	2.73	1	170.69499399	170.789337362	"15"	5503.400018821	5501.121457224	1.5	0.1
0.01	1	0.00211642400063283	1	120	NA	173.375850476999	0	0.2	2.73	1	171.01234324	171.014459664	"15"	5503.400018821	5501.121457224	1.5	0.1
0.01	1	0.135580941000626	1	120	NA	173.375850476999	0	0.2	2.73	1	171.245970264999	171.381551206	"15"	5503.400018821	5501.121457224	1.5	0.1
0.01	1	0.00207387800037395	1	120	NA	173.375850476999	0	0.2	2.73	1	171.613292135999	171.615366014	"15"	5503.400018821	5501.121457224	1.5	0.1
0.01	1	0.00417837700024393	1	120	NA	173.375850476999	0	0.2	2.73	1	171.846928094999	171.851106472	"15"	5503.400018821	5501.121457224	1.5	0.1
0.01	1	0.13995332200011	1	120	NA	173.375850476999	0	0.2	2.73	1	172.080754867	172.220708189	"15"	5503.400018821	5501.121457224	1.5	0.1
0.01	1	0.00207008999950631	1	120	NA	173.375850476999	0	0.2	2.73	1	172.448047414	172.450117504	"15"	5503.400018821	5501.121457224	1.5	0.1
0.01	1	0.107581889000357	1	120	NA	173.375850476999	0	0.2	2.73	1	172.681669475	172.789251364	"15"	5503.400018821	5501.121457224	1.5	0.1
0.01	1	0.00210879600035696	1	120	NA	173.375850476999	0	0.2	2.73	1	173.015607386	173.017716182	"15"	5503.400018821	5501.121457224	1.5	0.1
0.01	1	0.124920861000646	2	120	NA	173.375850476999	0	0.2	2.73	1	173.249374436999	173.374295298	"15"	5503.400018821	5501.121457224	1.5	0.1
0.01	1	0.138604638999823	1	109	NA	183.00801833	0	0.26	2.99	1	175.419627426	175.558232065	"16"	5503.400018821	5501.121457224	1.5	0.1
0.01	1	0.00219728699994448	1	109	NA	183.00801833	0	0.26	2.99	1	175.786933698	175.789130985	"16"	5503.400018821	5501.121457224	1.5	0.1
0.01	1	0.00395654499970988	1	109	NA	183.00801833	0	0.26	2.99	1	176.020637287	176.024593831999	"16"	5503.400018821	5501.121457224	1.5	0.1
0.01	1	0.0959482890002619	1	109	NA	183.00801833	0	0.26	2.99	1	176.25446452	176.350412809	"16"	5503.400018821	5501.121457224	1.5	0.1
0.01	1	0.00449119499990047	1	109	NA	183.00801833	0	0.26	2.99	1	176.588277352	176.592768547	"16"	5503.400018821	5501.121457224	1.5	0.1
0.01	1	0.111393004000092	1	109	NA	183.00801833	0	0.26	2.99	1	176.822053492	176.933446496	"16"	5503.400018821	5501.121457224	1.5	0.1
0.01	1	0.00214403999962087	1	109	NA	183.00801833	0	0.26	2.99	1	177.155861434	177.158005474	"16"	5503.400018821	5501.121457224	1.5	0.1
0.01	1	0.14324221699917	1	109	NA	183.00801833	0	0.26	2.99	1	177.389559297	177.532801513999	"16"	5503.400018821	5501.121457224	1.5	0.1
0.01	1	0.00204486700022244	1	109	NA	183.00801833	0	0.26	2.99	1	177.756923469	177.758968336	"16"	5503.400018821	5501.121457224	1.5	0.1
0.01	1	0.134814365000238	1	109	NA	183.00801833	0	0.26	2.99	1	177.99068085	178.125495215	"16"	5503.400018821	5501.121457224	1.5	0.1
0.01	1	0.00214976000006573	1	109	NA	183.00801833	0	0.26	2.99	1	178.357960917	178.360110677	"16"	5503.400018821	5501.121457224	1.5	0.1
0.01	1	0.00399698299952433	1	109	NA	183.00801833	0	0.26	2.99	1	178.591559665	178.595556648	"16"	5503.400018821	5501.121457224	1.5	0.1
0.01	1	0.123897448999742	1	109	NA	183.00801833	0	0.26	2.99	1	178.82539281	178.949290259	"16"	5503.400018821	5501.121457224	1.5	0.1
0.01	1	0.00454024999999092	1	109	NA	183.00801833	0	0.26	2.99	1	179.175960715	179.180500965	"16"	5503.400018821	5501.121457224	1.5	0.1
0.01	1	0.00226724500043929	1	109	NA	183.00801833	0	0.26	2.99	1	179.409643092999	179.411910338	"16"	5503.400018821	5501.121457224	1.5	0.1
0.01	1	0.14525675799996	1	109	NA	183.00801833	0	0.26	2.99	1	179.643475882	179.78873264	"16"	5503.400018821	5501.121457224	1.5	0.1
0.01	1	0.00214859500010789	1	109	NA	183.00801833	0	0.26	2.99	1	180.010762072	180.012910667	"16"	5503.400018821	5501.121457224	1.5	0.1
0.01	1	0.160678378999364	1	109	NA	183.00801833	0	0.26	2.99	1	180.244445575	180.405123953999	"16"	5503.400018821	5501.121457224	1.5	0.1
0.01	1	0.00212022399955458	1	109	NA	183.00801833	0	0.26	2.99	1	180.628430594	180.630550817999	"16"	5503.400018821	5501.121457224	1.5	0.1
0.01	1	0.00396759599971119	1	109	NA	183.00801833	0	0.26	2.99	1	180.86213605	180.866103646	"16"	5503.400018821	5501.121457224	1.5	0.1
0.01	1	0.166685341999255	1	109	NA	183.00801833	0	0.26	2.99	1	181.09583	181.262515341999	"16"	5503.400018821	5501.121457224	1.5	0.1
0.01	1	0.0021494469992831	1	109	NA	183.00801833	0	0.26	2.99	1	181.496558476	181.498707923	"16"	5503.400018821	5501.121457224	1.5	0.1
0.01	1	0.00212148199989315	1	109	NA	183.00801833	0	0.26	2.99	1	181.730240895	181.732362377	"16"	5503.400018821	5501.121457224	1.5	0.1
0.01	1	0.169077045000449	1	109	NA	183.00801833	0	0.26	2.99	1	181.964088451999	182.133165497	"16"	5503.400018821	5501.121457224	1.5	0.1
0.01	1	0.0021357089999583	1	109	NA	183.00801833	0	0.26	2.99	1	182.364626619	182.366762328	"16"	5503.400018821	5501.121457224	1.5	0.1
0.01	1	0.00212909299989406	1	109	NA	183.00801833	0	0.26	2.99	1	182.598432273	182.600561366	"16"	5503.400018821	5501.121457224	1.5	0.1
0.01	1	0.174391612999898	2	109	NA	183.00801833	0	0.26	2.99	1	182.832055285	183.006446898	"16"	5503.400018821	5501.121457224	1.5	0.1
0.01	1	0.0814353839996329	1	71	NA	191.984840347	0	0.25	3.24	1	185.035823145	185.117258529	"17"	5503.400018821	5501.121457224	1.5	0.1
0.01	1	0.00212567000016861	1	71	NA	191.984840347	0	0.25	3.24	1	185.352968599	185.355094269	"17"	5503.400018821	5501.121457224	1.5	0.1
0.01	1	0.00211327099987102	1	71	NA	191.984840347	0	0.25	3.24	1	185.586706208	185.588819479	"17"	5503.400018821	5501.121457224	1.5	0.1
0.01	1	0.130674631999682	1	71	NA	191.984840347	0	0.25	3.24	1	185.820361022	185.951035653999	"17"	5503.400018821	5501.121457224	1.5	0.1
0.01	1	0.138819740999679	1	71	NA	191.984840347	0	0.25	3.24	1	186.187681775	186.326501516	"17"	5503.400018821	5501.121457224	1.5	0.1
0.01	1	0.00204520399984176	1	71	NA	191.984840347	0	0.25	3.24	1	186.555034384	186.557079587999	"17"	5503.400018821	5501.121457224	1.5	0.1
0.01	1	0.135905310999988	1	71	NA	191.984840347	0	0.25	3.24	1	186.788801087	186.924706398	"17"	5503.400018821	5501.121457224	1.5	0.1
0.01	1	0.0021306779999577	1	71	NA	191.984840347	0	0.25	3.24	1	187.156025108	187.158155786	"17"	5503.400018821	5501.121457224	1.5	0.1
0.01	1	0.150884448999932	1	71	NA	191.984840347	0	0.25	3.24	1	187.389807824999	187.540692273999	"17"	5503.400018821	5501.121457224	1.5	0.1
0.01	1	0.0021485710003617	1	71	NA	191.984840347	0	0.25	3.24	1	187.773774085	187.775922656	"17"	5503.400018821	5501.121457224	1.5	0.1
0.01	1	0.00404162300037569	1	71	NA	191.984840347	0	0.25	3.24	1	188.007450265	188.011491888	"17"	5503.400018821	5501.121457224	1.5	0.1
0.01	1	0.00393395799983409	1	71	NA	191.984840347	0	0.25	3.24	1	188.24124073	188.245174688	"17"	5503.400018821	5501.121457224	1.5	0.1
0.01	1	0.171427012000095	1	71	NA	191.984840347	0	0.25	3.24	1	188.474912361999	188.646339374	"17"	5503.400018821	5501.121457224	1.5	0.1
0.01	1	0.00292407699998876	1	71	NA	191.984840347	0	0.25	3.24	1	188.875540972	188.878465049	"17"	5503.400018821	5501.121457224	1.5	0.1
0.01	1	0.00227235900001688	1	71	NA	191.984840347	0	0.25	3.24	1	189.109312447999	189.111584806999	"17"	5503.400018821	5501.121457224	1.5	0.1
0.01	1	0.00227924399951007	1	71	NA	191.984840347	0	0.25	3.24	1	189.343088091	189.345367335	"17"	5503.400018821	5501.121457224	1.5	0.1
0.01	1	0.00407300899951224	1	71	NA	191.984840347	0	0.25	3.24	1	189.576805195	189.580878203999	"17"	5503.400018821	5501.121457224	1.5	0.1
0.01	1	0.00400728699969477	1	71	NA	191.984840347	0	0.25	3.24	1	189.810528305	189.814535592	"17"	5503.400018821	5501.121457224	1.5	0.1
0.01	1	0.160713207000299	1	71	NA	191.984840347	0	0.25	3.24	1	190.0441751	190.204888307	"17"	5503.400018821	5501.121457224	1.5	0.1
0.01	1	0.00206772500041552	1	71	NA	191.984840347	0	0.25	3.24	1	190.428255995	190.43032372	"17"	5503.400018821	5501.121457224	1.5	0.1
0.01	1	0.00281405499936227	1	71	NA	191.984840347	0	0.25	3.24	1	190.661885984	190.664700038999	"17"	5503.400018821	5501.121457224	1.5	0.1
0.01	1	0.00209222399917053	1	71	NA	191.984840347	0	0.25	3.24	1	190.895641932	190.897734155999	"17"	5503.400018821	5501.121457224	1.5	0.1
0.01	1	0.00209155599986843	1	71	NA	191.984840347	0	0.25	3.24	1	191.129452669	191.131544225	"17"	5503.400018821	5501.121457224	1.5	0.1
0.01	1	0.154055901999527	1	71	NA	191.984840347	0	0.25	3.24	1	191.36306186	191.517117762	"17"	5503.400018821	5501.121457224	1.5	0.1
0.01	1	0.00205004000054032	1	71	NA	191.984840347	0	0.25	3.24	1	191.747114981999	191.749165022	"17"	5503.400018821	5501.121457224	1.5	0.1
0.01	1	0.00223661600011837	2	71	NA	191.984840347	0	0.25	3.24	1	191.980920831	191.983157447	"17"	5503.400018821	5501.121457224	1.5	0.1
0.01	1	0.00209016200005863	1	96	NA	201.150106538	0	0.26	3.5	1	194.017550865	194.019641027	"18"	5503.400018821	5501.121457224	1.5	0.1
0.01	1	0.0418050879998191	1	96	NA	201.150106538	0	0.26	3.5	1	194.251287497	194.293092585	"18"	5503.400018821	5501.121457224	1.5	0.1
0.01	1	0.00729406199934601	1	96	NA	201.150106538	0	0.26	3.5	1	194.518469122	194.525763184	"18"	5503.400018821	5501.121457224	1.5	0.1
0.01	1	0.0864402930001233	1	96	NA	201.150106538	0	0.26	3.5	1	194.752147755	194.838588048	"18"	5503.400018821	5501.121457224	1.5	0.1
0.01	1	0.0713585280000189	1	96	NA	201.150106538	0	0.26	3.5	1	195.069443055	195.140801583	"18"	5503.400018821	5501.121457224	1.5	0.1
0.01	1	0.0512100100004318	1	96	NA	201.150106538	0	0.26	3.5	1	195.369854295	195.421064305	"18"	5503.400018821	5501.121457224	1.5	0.1
0.01	1	0.0561570400004712	1	96	NA	201.150106538	0	0.26	3.5	1	195.653667825	195.709824865	"18"	5503.400018821	5501.121457224	1.5	0.1
0.01	1	0.0514254610006901	1	96	NA	201.150106538	0	0.26	3.5	1	195.937483504999	195.988908966	"18"	5503.400018821	5501.121457224	1.5	0.1
0.01	1	0.0729953480004042	1	96	NA	201.150106538	0	0.26	3.5	1	196.22136	196.294355348	"18"	5503.400018821	5501.121457224	1.5	0.1
0.01	1	0.0668300580000505	1	96	NA	201.150106538	0	0.26	3.5	1	196.52173274	196.588562798	"18"	5503.400018821	5501.121457224	1.5	0.1
0.01	1	0.0636970670002484	1	96	NA	201.150106538	0	0.26	3.5	1	196.822341255	196.886038322	"18"	5503.400018821	5501.121457224	1.5	0.1
0.01	1	0.0416626620008174	1	96	NA	201.150106538	0	0.26	3.5	1	197.122826209999	197.164488872	"18"	5503.400018821	5501.121457224	1.5	0.1
0.01	1	0.0309970590005832	1	96	NA	201.150106538	0	0.26	3.5	1	197.38987503	197.420872089	"18"	5503.400018821	5501.121457224	1.5	0.1
0.01	1	0.027807120000034	1	96	NA	201.150106538	0	0.26	3.5	1	197.657028222	197.684835342	"18"	5503.400018821	5501.121457224	1.5	0.1
0.01	1	0.0507628219993421	1	96	NA	201.150106538	0	0.26	3.5	1	197.907492217	197.958255039	"18"	5503.400018821	5501.121457224	1.5	0.1
0.01	1	0.03829786300048	1	96	NA	201.150106538	0	0.26	3.5	1	198.191335635	198.229633498	"18"	5503.400018821	5501.121457224	1.5	0.1
0.01	1	0.0353043229997638	1	96	NA	201.150106538	0	0.26	3.5	1	198.458292675	198.493596998	"18"	5503.400018821	5501.121457224	1.5	0.1
0.01	1	0.010272924999299	1	96	NA	201.150106538	0	0.26	3.5	1	198.7255205	198.735793424999	"18"	5503.400018821	5501.121457224	1.5	0.1
0.01	1	0.046287126999232	1	96	NA	201.150106538	0	0.26	3.5	1	198.95916208	199.005449206999	"18"	5503.400018821	5501.121457224	1.5	0.1
0.01	1	0.0347847729999557	1	96	NA	201.150106538	0	0.26	3.5	1	199.243083122	199.277867895	"18"	5503.400018821	5501.121457224	1.5	0.1
0.01	1	0.0402827280004203	1	96	NA	201.150106538	0	0.26	3.5	1	199.510165596	199.550448324	"18"	5503.400018821	5501.121457224	1.5	0.1
0.01	1	0.00212100599947007	1	96	NA	201.150106538	0	0.26	3.5	1	199.777267554	199.779388559999	"18"	5503.400018821	5501.121457224	1.5	0.1
0.01	1	0.0194330179992903	1	96	NA	201.150106538	0	0.26	3.5	1	200.010949933	200.030382950999	"18"	5503.400018821	5501.121457224	1.5	0.1
0.01	1	0.00215624299926276	1	96	NA	201.150106538	0	0.26	3.5	1	200.261441423	200.263597665999	"18"	5503.400018821	5501.121457224	1.5	0.1
0.01	1	0.11010678599996	1	96	NA	201.150106538	0	0.26	3.5	1	200.495122954	200.60522974	"18"	5503.400018821	5501.121457224	1.5	0.1
0.01	1	0.0888552830001572	1	96	NA	201.150106538	0	0.26	3.5	1	200.829059111999	200.917914395	"18"	5503.400018821	5501.121457224	1.5	0.1
0.01	1	0.00225758500073425	2	96	NA	201.150106538	0	0.26	3.5	1	201.146173229999	201.148430815	"18"	5503.400018821	5501.121457224	1.5	0.1
0.01	1	0.00360910200015496	1	91	NA	214.486536218999	0	0.35	3.85	1	203.199666662	203.203275764	"19"	5503.400018821	5501.121457224	1.5	0.1
0.01	1	0.108414182000161	1	91	NA	214.486536218999	0	0.35	3.85	1	203.433488215	203.541902397	"19"	5503.400018821	5501.121457224	1.5	0.1
0.01	1	0.110621484999683	1	91	NA	214.486536218999	0	0.35	3.85	1	203.7673378	203.877959285	"19"	5503.400018821	5501.121457224	1.5	0.1
0.01	1	0.111900142000195	1	91	NA	214.486536218999	0	0.35	3.85	1	204.117941635	204.229841777	"19"	5503.400018821	5501.121457224	1.5	0.1
0.01	1	0.136939707999773	1	91	NA	214.486536218999	0	0.35	3.85	1	204.451720207	204.588659915	"19"	5503.400018821	5501.121457224	1.5	0.1
0.01	1	0.121957501999532	1	91	NA	214.486536218999	0	0.35	3.85	1	204.819090385	204.941047887	"19"	5503.400018821	5501.121457224	1.5	0.1
0.01	1	0.107024863000333	1	91	NA	214.486536218999	0	0.35	3.85	1	205.169748941999	205.276773805	"19"	5503.400018821	5501.121457224	1.5	0.1
0.01	1	0.00212513599944941	1	91	NA	214.486536218999	0	0.35	3.85	1	205.503595598	205.505720734	"19"	5503.400018821	5501.121457224	1.5	0.1
0.01	1	0.108810319999975	1	91	NA	214.486536218999	0	0.35	3.85	1	205.737274399999	205.846084719999	"19"	5503.400018821	5501.121457224	1.5	0.1
0.01	1	0.142361439000524	1	91	NA	214.486536218999	0	0.35	3.85	1	206.071143595	206.213505034	"19"	5503.400018821	5501.121457224	1.5	0.1
0.01	1	0.00210192300073686	1	91	NA	214.486536218999	0	0.35	3.85	1	206.438442453999	206.440544377	"19"	5503.400018821	5501.121457224	1.5	0.1
0.01	1	0.117127712999718	1	91	NA	214.486536218999	0	0.35	3.85	1	206.672138373	206.789266086	"19"	5503.400018821	5501.121457224	1.5	0.1
0.01	1	0.127638959000251	1	91	NA	214.486536218999	0	0.35	3.85	1	207.022851725	207.150490684	"19"	5503.400018821	5501.121457224	1.5	0.1
0.01	1	0.112469022999903	1	91	NA	214.486536218999	0	0.35	3.85	1	207.373402012	207.485871035	"19"	5503.400018821	5501.121457224	1.5	0.1
0.01	1	0.105094339999596	1	91	NA	214.486536218999	0	0.35	3.85	1	207.723900015	207.828994355	"19"	5503.400018821	5501.121457224	1.5	0.1
0.01	1	0.331250111999907	1	91	NA	214.486536218999	0	0.35	3.85	1	208.057888823	208.389138935	"19"	5503.400018821	5501.121457224	1.5	0.1
0.01	1	0.115986740999688	1	91	NA	214.486536218999	0	0.35	3.85	1	208.625486475	208.741473216	"19"	5503.400018821	5501.121457224	1.5	0.1
0.01	1	0.0038885180001671	1	91	NA	214.486536218999	0	0.35	3.85	1	208.976040699999	208.979929218	"19"	5503.400018821	5501.121457224	1.5	0.1
0.01	1	0.0989323690000674	1	91	NA	214.486536218999	0	0.35	3.85	1	209.209826485	209.308758854	"19"	5503.400018821	5501.121457224	1.5	0.1
0.01	1	0.429627491999781	1	91	NA	214.486536218999	0	0.35	3.85	1	209.543638605	209.973266096999	"19"	5503.400018821	5501.121457224	1.5	0.1
0.01	1	0.083166185000664	1	91	NA	214.486536218999	0	0.35	3.85	1	210.211494669999	210.294660855	"19"	5503.400018821	5501.121457224	1.5	0.1
0.01	1	0.0849430549997123	1	91	NA	214.486536218999	0	0.35	3.85	1	210.52869989	210.613642945	"19"	5503.400018821	5501.121457224	1.5	0.1
0.01	1	0.00392904300042574	1	91	NA	214.486536218999	0	0.35	3.85	1	210.845921964999	210.849851008	"19"	5503.400018821	5501.121457224	1.5	0.1
0.01	1	0.133567275000132	1	91	NA	214.486536218999	0	0.35	3.85	1	211.079635665	211.21320294	"19"	5503.400018821	5501.121457224	1.5	0.1
0.01	1	0.00465496000015264	1	91	NA	214.486536218999	0	0.35	3.85	1	211.44698659	211.45164155	"19"	5503.400018821	5501.121457224	1.5	0.1
0.01	1	0.123968326999602	1	91	NA	214.486536218999	0	0.35	3.85	1	211.680849335	211.804817662	"19"	5503.400018821	5501.121457224	1.5	0.1
0.01	1	0.00476543000058882	1	91	NA	214.486536218999	0	0.35	3.85	1	212.031210095	212.035975525	"19"	5503.400018821	5501.121457224	1.5	0.1
0.01	1	0.00393852999968658	1	91	NA	214.486536218999	0	0.35	3.85	1	212.26498927	212.2689278	"19"	5503.400018821	5501.121457224	1.5	0.1
0.01	1	0.0595503900003678	1	91	NA	214.486536218999	0	0.35	3.85	1	212.498716964999	212.558267355	"19"	5503.400018821	5501.121457224	1.5	0.1
0.01	1	0.00228710200008209	1	91	NA	214.486536218999	0	0.35	3.85	1	212.782437935	212.784725037	"19"	5503.400018821	5501.121457224	1.5	0.1
0.01	1	0.00423791399953188	1	91	NA	214.486536218999	0	0.35	3.85	1	213.01628943	213.020527344	"19"	5503.400018821	5501.121457224	1.5	0.1
0.01	1	0.0846553369992762	1	91	NA	214.486536218999	0	0.35	3.85	1	213.249865222	213.334520558999	"19"	5503.400018821	5501.121457224	1.5	0.1
0.01	1	0.00408594900000026	1	91	NA	214.486536218999	0	0.35	3.85	1	213.567204165	213.571290114	"19"	5503.400018821	5501.121457224	1.5	0.1
0.01	1	0.101376403000359	1	91	NA	214.486536218999	0	0.35	3.85	1	213.800891217	213.90226762	"19"	5503.400018821	5501.121457224	1.5	0.1
0.01	1	0.00454658399939945	1	91	NA	214.486536218999	0	0.35	3.85	1	214.134751306	214.139297889999	"19"	5503.400018821	5501.121457224	1.5	0.1
0.01	1	0.116425385000184	2	91	NA	214.486536218999	0	0.35	3.85	1	214.368535977	214.484961362	"19"	5503.400018821	5501.121457224	1.5	0.1
0.01	1	0.483309689000635	1	5	218.36196801	NA	1	0	3.85	1	216.538801016	217.022110705	"20"	5503.400018821	5501.121457224	1.5	0.1
0.01	1	0.115988442000344	1	5	218.36196801	NA	1	0	3.85	1	217.25667	217.372658442	"20"	5503.400018821	5501.121457224	1.5	0.1
0.01	1	0.118075287000465	1	5	218.36196801	NA	1	0	3.85	1	217.607311315	217.725386602	"20"	5503.400018821	5501.121457224	1.5	0.1
0.01	1	0.0041008279995367	1	5	218.36196801	NA	1	0	3.85	1	217.95799171	217.962092538	"20"	5503.400018821	5501.121457224	1.5	0.1
0.01	1	0.0538547989999643	1	5	218.36196801	NA	1	0	3.85	1	218.19156872	218.245423519	"20"	5503.400018821	5501.121457224	1.5	0.1
0.01	1	0.0348160439998537	1	123	NA	221.820987956999	0	0.05	3.9	1	220.395259785	220.430075829	"21"	5503.400018821	5501.121457224	1.5	0.1
0.01	1	0.00466961700021784	1	123	NA	221.820987956999	0	0.05	3.9	1	220.66250253	220.667172147	"21"	5503.400018821	5501.121457224	1.5	0.1
0.01	1	0.126099226999941	1	123	NA	221.820987956999	0	0.05	3.9	1	220.89620926	221.022308486999	"21"	5503.400018821	5501.121457224	1.5	0.1
0.01	1	0.00206105800043588	1	123	NA	221.820987956999	0	0.05	3.9	1	221.246692279999	221.248753338	"21"	5503.400018821	5501.121457224	1.5	0.1
0.01	1	0.109579850000046	1	123	NA	221.820987956999	0	0.05	3.9	1	221.480391697	221.589971547	"21"	5503.400018821	5501.121457224	1.5	0.1
0.01	1	0.00469117700049537	2	123	NA	221.820987956999	0	0.05	3.9	1	221.814388629999	221.819079807	"21"	5503.400018821	5501.121457224	1.5	0.1
0.01	1	0.0888886200000343	1	81	NA	228.665035216	0	0.17	4.07	1	223.867815995	223.956704615	"22"	5503.400018821	5501.121457224	1.5	0.1
0.01	1	0.00210239799980627	1	81	NA	228.665035216	0	0.17	4.07	1	224.185010429	224.187112827	"22"	5503.400018821	5501.121457224	1.5	0.1
0.01	1	0.139827527000307	1	81	NA	228.665035216	0	0.17	4.07	1	224.418745522	224.558573049	"22"	5503.400018821	5501.121457224	1.5	0.1
0.01	1	0.00212366100004147	1	81	NA	228.665035216	0	0.17	4.07	1	224.786056503	224.788180164	"22"	5503.400018821	5501.121457224	1.5	0.1
0.01	1	0.00471956499950466	1	81	NA	228.665035216	0	0.17	4.07	1	225.01973816	225.024457725	"22"	5503.400018821	5501.121457224	1.5	0.1
0.01	1	0.152761277000536	1	81	NA	228.665035216	0	0.17	4.07	1	225.253429242	225.406190519	"22"	5503.400018821	5501.121457224	1.5	0.1
0.01	1	0.00447948300006829	1	81	NA	228.665035216	0	0.17	4.07	1	225.637466942	225.641946425	"22"	5503.400018821	5501.121457224	1.5	0.1
0.01	1	0.166261907000262	1	81	NA	228.665035216	0	0.17	4.07	1	225.871122967	226.037384874	"22"	5503.400018821	5501.121457224	1.5	0.1
0.01	1	0.0380713499998819	1	81	NA	228.665035216	0	0.17	4.07	1	226.27184441	226.30991576	"22"	5503.400018821	5501.121457224	1.5	0.1
0.01	1	0.0274907960001656	1	81	NA	228.665035216	0	0.17	4.07	1	226.538949367	226.566440163	"22"	5503.400018821	5501.121457224	1.5	0.1
0.01	1	0.0235153120001996	1	81	NA	228.665035216	0	0.17	4.07	1	226.789485595	226.813000907	"22"	5503.400018821	5501.121457224	1.5	0.1
0.01	1	0.0298891820002609	1	81	NA	228.665035216	0	0.17	4.07	1	227.039843007	227.069732189	"22"	5503.400018821	5501.121457224	1.5	0.1
0.01	1	0.0275406060000023	1	81	NA	228.665035216	0	0.17	4.07	1	227.306819642	227.334360248	"22"	5503.400018821	5501.121457224	1.5	0.1
0.01	1	0.0488235669999995	1	81	NA	228.665035216	0	0.17	4.07	1	227.55733333	227.606156897	"22"	5503.400018821	5501.121457224	1.5	0.1
0.01	1	0.0287047680003525	1	81	NA	228.665035216	0	0.17	4.07	1	227.84118134	227.869886108	"22"	5503.400018821	5501.121457224	1.5	0.1
0.01	1	0.0489858929995535	1	81	NA	228.665035216	0	0.17	4.07	1	228.108164735	228.157150628	"22"	5503.400018821	5501.121457224	1.5	0.1
0.01	1	0.0448300680000102	1	81	NA	228.665035216	0	0.17	4.07	1	228.392149634999	228.436979702999	"22"	5503.400018821	5501.121457224	1.5	0.1
0.01	1	0.00414164100038761	2	81	NA	228.665035216	0	0.17	4.07	1	228.659176884999	228.663318526	"22"	5503.400018821	5501.121457224	1.5	0.1
0.01	1	0.420141156999307	1	117	NA	236.936192875	0	0.2	4.27	1	230.712583065	231.132724222	"23"	5503.400018821	5501.121457224	1.5	0.1
0.01	1	0.218015790000209	1	117	NA	236.936192875	0	0.2	4.27	1	231.363767622	231.581783412	"23"	5503.400018821	5501.121457224	1.5	0.1
0.01	1	0.10399030499957	1	117	NA	236.936192875	0	0.2	4.27	1	231.814508495	231.9184988	"23"	5503.400018821	5501.121457224	1.5	0.1
0.01	1	0.105111561999365	1	117	NA	236.936192875	0	0.2	4.27	1	232.148315292	232.253426853999	"23"	5503.400018821	5501.121457224	1.5	0.1
0.01	1	0.083212896999612	1	117	NA	236.936192875	0	0.2	4.27	1	232.482306037	232.565518934	"23"	5503.400018821	5501.121457224	1.5	0.1
0.01	1	0.0614201309999771	1	117	NA	236.936192875	0	0.2	4.27	1	232.799539257	232.860959388	"23"	5503.400018821	5501.121457224	1.5	0.1
0.01	1	0.0826241519998803	1	117	NA	236.936192875	0	0.2	4.27	1	233.08327267	233.165896822	"23"	5503.400018821	5501.121457224	1.5	0.1
0.01	1	0.0284187769993878	1	117	NA	236.936192875	0	0.2	4.27	1	233.400545257	233.428964033999	"23"	5503.400018821	5501.121457224	1.5	0.1
0.01	1	0.0504349689999799	1	117	NA	236.936192875	0	0.2	4.27	1	233.650942595	233.701377564	"23"	5503.400018821	5501.121457224	1.5	0.1
0.01	1	0.0313225319996491	1	117	NA	236.936192875	0	0.2	4.27	1	233.934800575	233.966123106999	"23"	5503.400018821	5501.121457224	1.5	0.1
0.01	1	0.0524619140005598	1	117	NA	236.936192875	0	0.2	4.27	1	234.201870121999	234.254332036	"23"	5503.400018821	5501.121457224	1.5	0.1
0.01	1	0.0238974499998221	1	117	NA	236.936192875	0	0.2	4.27	1	234.485613885	234.509511335	"23"	5503.400018821	5501.121457224	1.5	0.1
0.01	1	0.0778044610005963	1	117	NA	236.936192875	0	0.2	4.27	1	234.736086045999	234.813890507	"23"	5503.400018821	5501.121457224	1.5	0.1
0.01	1	0.0403013730001476	1	117	NA	236.936192875	0	0.2	4.27	1	235.036542907	235.07684428	"23"	5503.400018821	5501.121457224	1.5	0.1
0.01	1	0.061804705999748	1	117	NA	236.936192875	0	0.2	4.27	1	235.30369258	235.365497285999	"23"	5503.400018821	5501.121457224	1.5	0.1
0.01	1	0.0414575710001372	1	117	NA	236.936192875	0	0.2	4.27	1	235.587477104999	235.628934676	"23"	5503.400018821	5501.121457224	1.5	0.1
0.01	1	0.0315408919996116	1	117	NA	236.936192875	0	0.2	4.27	1	235.854667195	235.886208086999	"23"	5503.400018821	5501.121457224	1.5	0.1
0.01	1	0.0275857320002615	1	117	NA	236.936192875	0	0.2	4.27	1	236.121696487	236.149282219	"23"	5503.400018821	5501.121457224	1.5	0.1
0.01	1	0.0499573769993731	1	117	NA	236.936192875	0	0.2	4.27	1	236.37213314	236.422090517	"23"	5503.400018821	5501.121457224	1.5	0.1
0.01	1	0.0295693050002228	1	117	NA	236.936192875	0	0.2	4.27	1	236.655963315	236.68553262	"23"	5503.400018821	5501.121457224	1.5	0.1
0.01	1	0.0114792469994427	2	117	NA	236.936192875	0	0.2	4.27	1	236.923130362	236.934609608999	"23"	5503.400018821	5501.121457224	1.5	0.1
0.01	1	0.253308913000183	1	84	NA	248.655358469	0	0.25	4.52	1	238.976546434999	239.229855348	"24"	5503.400018821	5501.121457224	1.5	0.1
0.01	1	0.0658327920000374	1	84	NA	248.655358469	0	0.25	4.52	1	239.46073095	239.526563742	"24"	5503.400018821	5501.121457224	1.5	0.1
0.01	1	0.0451176189999387	1	84	NA	248.655358469	0	0.25	4.52	1	239.761215557	239.806333175999	"24"	5503.400018821	5501.121457224	1.5	0.1
0.01	1	0.011013023000487	1	84	NA	248.655358469	0	0.25	4.52	1	240.044980838999	240.055993862	"24"	5503.400018821	5501.121457224	1.5	0.1
0.01	1	0.0545075199997882	1	84	NA	248.655358469	0	0.25	4.52	1	240.278774177	240.333281697	"24"	5503.400018821	5501.121457224	1.5	0.1
0.01	1	0.0351090169997406	1	84	NA	248.655358469	0	0.25	4.52	1	240.56258413	240.597693147	"24"	5503.400018821	5501.121457224	1.5	0.1
0.01	1	0.0407732389994635	1	84	NA	248.655358469	0	0.25	4.52	1	240.829633595	240.870406833999	"24"	5503.400018821	5501.121457224	1.5	0.1
0.01	1	0.0118521679996775	1	84	NA	248.655358469	0	0.25	4.52	1	241.09676478	241.108616948	"24"	5503.400018821	5501.121457224	1.5	0.1
0.01	1	0.0671933519997765	1	84	NA	248.655358469	0	0.25	4.52	1	241.330502312	241.397695664	"24"	5503.400018821	5501.121457224	1.5	0.1
0.01	1	0.053785340000104	1	84	NA	248.655358469	0	0.25	4.52	1	241.631078896999	241.684864237	"24"	5503.400018821	5501.121457224	1.5	0.1
0.01	1	0.049938844999815	1	84	NA	248.655358469	0	0.25	4.52	1	241.91492731	241.964866155	"24"	5503.400018821	5501.121457224	1.5	0.1
0.01	1	0.0463578950002557	1	84	NA	248.655358469	0	0.25	4.52	1	242.198587182	242.244945077	"24"	5503.400018821	5501.121457224	1.5	0.1
0.01	1	0.0358155479998459	1	84	NA	248.655358469	0	0.25	4.52	1	242.48245222	242.518267768	"24"	5503.400018821	5501.121457224	1.5	0.1
0.01	1	0.0407808429999932	1	84	NA	248.655358469	0	0.25	4.52	1	242.749585555	242.790366398	"24"	5503.400018821	5501.121457224	1.5	0.1
0.01	1	0.324930032999873	1	84	NA	248.655358469	0	0.25	4.52	1	243.016588525	243.341518558	"24"	5503.400018821	5501.121457224	1.5	0.1
0.01	1	0.175161073999334	1	84	NA	248.655358469	0	0.25	4.52	1	243.567563845	243.742724919	"24"	5503.400018821	5501.121457224	1.5	0.1
0.01	1	0.148382172999845	1	84	NA	248.655358469	0	0.25	4.52	1	243.968291855	244.116674028	"24"	5503.400018821	5501.121457224	1.5	0.1
0.01	1	0.181424280000101	1	84	NA	248.655358469	0	0.25	4.52	1	244.352268815	244.533693095	"24"	5503.400018821	5501.121457224	1.5	0.1
0.01	1	0.692969644000186	1	84	NA	248.655358469	0	0.25	4.52	1	244.769547987	245.462517631	"24"	5503.400018821	5501.121457224	1.5	0.1
0.01	1	0.30188406599973	1	84	NA	248.655358469	0	0.25	4.52	1	245.6878458	245.989729866	"24"	5503.400018821	5501.121457224	1.5	0.1
0.01	1	0.440051071999733	1	84	NA	248.655358469	0	0.25	4.52	1	246.222157997	246.662209069	"24"	5503.400018821	5501.121457224	1.5	0.1
0.01	1	0.204658421000204	1	84	NA	248.655358469	0	0.25	4.52	1	246.889819642	247.094478063	"24"	5503.400018821	5501.121457224	1.5	0.1
0.01	1	0.169725558000209	1	84	NA	248.655358469	0	0.25	4.52	1	247.323952142	247.4936777	"24"	5503.400018821	5501.121457224	1.5	0.1
0.01	1	0.129797343000064	1	84	NA	248.655358469	0	0.25	4.52	1	247.724538295	247.854335638	"24"	5503.400018821	5501.121457224	1.5	0.1
0.01	1	0.16934192700046	1	84	NA	248.655358469	0	0.25	4.52	1	248.091836002	248.261177929	"24"	5503.400018821	5501.121457224	1.5	0.1
0.01	1	0.161143670999991	2	84	NA	248.655358469	0	0.25	4.52	1	248.492579799999	248.653723470999	"24"	5503.400018821	5501.121457224	1.5	0.1
0.01	1	0.428594243000589	1	22	257.177718467	NA	1	0	4.52	1	250.696243455	251.124837698	"25"	5503.400018821	5501.121457224	1.5	0.1
0.01	1	0.0408088080002926	1	22	257.177718467	NA	1	0	4.52	1	251.364098049999	251.404906858	"25"	5503.400018821	5501.121457224	1.5	0.1
0.01	1	0.0294638199993642	1	22	257.177718467	NA	1	0	4.52	1	251.631168797	251.660632616999	"25"	5503.400018821	5501.121457224	1.5	0.1
0.01	1	0.0203880979997848	1	22	257.177718467	NA	1	0	4.52	1	251.898304647	251.918692745	"25"	5503.400018821	5501.121457224	1.5	0.1
0.01	1	0.0482501460001004	1	22	257.177718467	NA	1	0	4.52	1	252.14887696	252.197127106	"25"	5503.400018821	5501.121457224	1.5	0.1
0.01	1	0.0084524509993571	1	22	257.177718467	NA	1	0	4.52	1	252.432547925	252.441000375999	"25"	5503.400018821	5501.121457224	1.5	0.1
0.01	1	0.0523345479996351	1	22	257.177718467	NA	1	0	4.52	1	252.666216707	252.718551255	"25"	5503.400018821	5501.121457224	1.5	0.1
0.01	1	0.0156710179999209	1	22	257.177718467	NA	1	0	4.52	1	252.950059905	252.965730923	"25"	5503.400018821	5501.121457224	1.5	0.1
0.01	1	0.0290925859999334	1	22	257.177718467	NA	1	0	4.52	1	253.20052256	253.229615146	"25"	5503.400018821	5501.121457224	1.5	0.1
0.01	1	0.0654750880003121	1	22	257.177718467	NA	1	0	4.52	1	253.467570057	253.533045145	"25"	5503.400018821	5501.121457224	1.5	0.1
0.01	1	0.0304064279998784	1	22	257.177718467	NA	1	0	4.52	1	253.7681703	253.798576728	"25"	5503.400018821	5501.121457224	1.5	0.1
0.01	1	0.0273666100001719	1	22	257.177718467	NA	1	0	4.52	1	254.035261765	254.062628375	"25"	5503.400018821	5501.121457224	1.5	0.1
0.01	1	0.0150932970000213	1	22	257.177718467	NA	1	0	4.52	1	254.302284349	254.317377646	"25"	5503.400018821	5501.121457224	1.5	0.1
0.01	1	0.0293702079998184	1	22	257.177718467	NA	1	0	4.52	1	254.552693007	254.582063215	"25"	5503.400018821	5501.121457224	1.5	0.1
0.01	1	0.0657937030000539	1	22	257.177718467	NA	1	0	4.52	1	254.819876985	254.885670688	"25"	5503.400018821	5501.121457224	1.5	0.1
0.01	1	0.0448237770006017	1	22	257.177718467	NA	1	0	4.52	1	255.120372859999	255.165196637	"25"	5503.400018821	5501.121457224	1.5	0.1
0.01	1	0.0432803229996352	1	22	257.177718467	NA	1	0	4.52	1	255.387508095	255.430788418	"25"	5503.400018821	5501.121457224	1.5	0.1
0.01	1	0.046903540999665	1	22	257.177718467	NA	1	0	4.52	1	255.654560137	255.701463678	"25"	5503.400018821	5501.121457224	1.5	0.1
0.01	1	0.0995055129997127	1	22	257.177718467	NA	1	0	4.52	1	255.938359842	256.037865355	"25"	5503.400018821	5501.121457224	1.5	0.1
0.01	1	0.100141832999725	1	22	257.177718467	NA	1	0	4.52	1	256.272409675	256.372551508	"25"	5503.400018821	5501.121457224	1.5	0.1
0.01	1	0.111942071000158	1	22	257.177718467	NA	1	0	4.52	1	256.606163584	256.718105655	"25"	5503.400018821	5501.121457224	1.5	0.1
0.01	1	0.121935017000396	1	22	257.177718467	NA	1	0	4.52	1	256.940106472	257.062041489	"25"	5503.400018821	5501.121457224	1.5	0.1
0.01	1	0.00418559500030824	1	36	NA	261.167930095	0	0.07	4.59	1	259.227254445	259.23144004	"26"	5503.400018821	5501.121457224	1.5	0.1
0.01	1	0.00402190399927349	1	36	NA	261.167930095	0	0.07	4.59	1	259.46107147	259.465093373999	"26"	5503.400018821	5501.121457224	1.5	0.1
0.01	1	0.0869979150002109	1	36	NA	261.167930095	0	0.07	4.59	1	259.694736957	259.781734872	"26"	5503.400018821	5501.121457224	1.5	0.1
0.01	1	0.00474643699999433	1	36	NA	261.167930095	0	0.07	4.59	1	260.01193274	260.016679177	"26"	5503.400018821	5501.121457224	1.5	0.1
0.01	1	0.128537242000675	1	36	NA	261.167930095	0	0.07	4.59	1	260.245701721999	260.374238964	"26"	5503.400018821	5501.121457224	1.5	0.1
0.01	1	0.00207150699952763	1	36	NA	261.167930095	0	0.07	4.59	1	260.596307959	260.598379466	"26"	5503.400018821	5501.121457224	1.5	0.1
0.01	1	0.00207233500077564	1	36	NA	261.167930095	0	0.07	4.59	1	260.830017456999	260.832089792	"26"	5503.400018821	5501.121457224	1.5	0.1
0.01	1	0.102686676999838	2	36	NA	261.167930095	0	0.07	4.59	1	261.063678355	261.166365032	"26"	5503.400018821	5501.121457224	1.5	0.1
0.01	1	0.723971556999459	1	124	NA	271.97418801	0	0.25	4.84	1	263.21732368	263.941295236999	"27"	5503.400018821	5501.121457224	1.5	0.1
0.01	1	0.309130931999789	1	124	NA	271.97418801	0	0.25	4.84	1	264.168941182	264.478072114	"27"	5503.400018821	5501.121457224	1.5	0.1
0.01	1	0.21514924100029	1	124	NA	271.97418801	0	0.25	4.84	1	264.70315093	264.918300171	"27"	5503.400018821	5501.121457224	1.5	0.1
0.01	1	0.171092065999801	1	124	NA	271.97418801	0	0.25	4.84	1	265.153946332	265.325038397999	"27"	5503.400018821	5501.121457224	1.5	0.1
0.01	1	0.131097939000028	1	124	NA	271.97418801	0	0.25	4.84	1	265.554600777	265.685698716	"27"	5503.400018821	5501.121457224	1.5	0.1
0.01	1	0.0925284940003621	1	124	NA	271.97418801	0	0.25	4.84	1	265.921974645	266.014503139	"27"	5503.400018821	5501.121457224	1.5	0.1
0.01	1	0.0938113510001131	1	124	NA	271.97418801	0	0.25	4.84	1	266.239002632	266.332813983	"27"	5503.400018821	5501.121457224	1.5	0.1
0.01	1	0.0653088359995309	1	124	NA	271.97418801	0	0.25	4.84	1	266.556257575	266.621566411	"27"	5503.400018821	5501.121457224	1.5	0.1
0.01	1	0.0444578769993313	1	124	NA	271.97418801	0	0.25	4.84	1	266.85679658	266.901254457	"27"	5503.400018821	5501.121457224	1.5	0.1
0.01	1	0.0582727439996233	1	124	NA	271.97418801	0	0.25	4.84	1	267.12394279	267.182215534	"27"	5503.400018821	5501.121457224	1.5	0.1
0.01	1	0.0460301780003647	1	124	NA	271.97418801	0	0.25	4.84	1	267.407787085	267.453817263	"27"	5503.400018821	5501.121457224	1.5	0.1
0.01	1	0.00224516699927335	1	124	NA	271.97418801	0	0.25	4.84	1	267.691459165	267.693704331999	"27"	5503.400018821	5501.121457224	1.5	0.1
0.01	1	0.0239321649996782	1	124	NA	271.97418801	0	0.25	4.84	1	267.925281455	267.94921362	"27"	5503.400018821	5501.121457224	1.5	0.1
0.01	1	0.0773891700000604	1	124	NA	271.97418801	0	0.25	4.84	1	268.175698694999	268.253087865	"27"	5503.400018821	5501.121457224	1.5	0.1
0.01	1	0.0570658859996911	1	124	NA	271.97418801	0	0.25	4.84	1	268.49287852	268.549944406	"27"	5503.400018821	5501.121457224	1.5	0.1
0.01	1	0.021550627000579	1	124	NA	271.97418801	0	0.25	4.84	1	268.776654539	268.798205166	"27"	5503.400018821	5501.121457224	1.5	0.1
0.01	1	0.0747918619999837	1	124	NA	271.97418801	0	0.25	4.84	1	269.027162034999	269.101953896999	"27"	5503.400018821	5501.121457224	1.5	0.1
0.01	1	0.0785544509999454	1	124	NA	271.97418801	0	0.25	4.84	1	269.327695217	269.406249668	"27"	5503.400018821	5501.121457224	1.5	0.1
0.01	1	0.121110784999473	1	124	NA	271.97418801	0	0.25	4.84	1	269.628286905	269.74939769	"27"	5503.400018821	5501.121457224	1.5	0.1
0.01	1	0.0904643890007719	1	124	NA	271.97418801	0	0.25	4.84	1	269.978709176999	270.069173566	"27"	5503.400018821	5501.121457224	1.5	0.1
0.01	1	0.0612331689999337	1	124	NA	271.97418801	0	0.25	4.84	1	270.295936805	270.357169974	"27"	5503.400018821	5501.121457224	1.5	0.1
0.01	1	0.0740858029994342	1	124	NA	271.97418801	0	0.25	4.84	1	270.57975418	270.653839983	"27"	5503.400018821	5501.121457224	1.5	0.1
0.01	1	0.0853669680000166	1	124	NA	271.97418801	0	0.25	4.84	1	270.88023222	270.965599188	"27"	5503.400018821	5501.121457224	1.5	0.1
0.01	1	0.151877986000727	1	124	NA	271.97418801	0	0.25	4.84	1	271.197404054999	271.349282041	"27"	5503.400018821	5501.121457224	1.5	0.1
0.01	1	0.127522675999899	1	124	NA	271.97418801	0	0.25	4.84	1	271.581337177	271.708859853	"27"	5503.400018821	5501.121457224	1.5	0.1
0.01	1	0.0406871500008492	2	124	NA	271.97418801	0	0.25	4.84	1	271.931952434999	271.972639585	"27"	5503.400018821	5501.121457224	1.5	0.1
0.01	1	0.738511100999858	1	13	279.264021937	NA	1	0	4.84	1	274.002176027	274.740687128	"28"	5503.400018821	5501.121457224	1.5	0.1
0.01	1	0.138086087999909	1	13	279.264021937	NA	1	0	4.84	1	274.970467957	275.108554044999	"28"	5503.400018821	5501.121457224	1.5	0.1
0.01	1	0.187523499000235	1	13	279.264021937	NA	1	0	4.84	1	275.337741695	275.525265194	"28"	5503.400018821	5501.121457224	1.5	0.1
0.01	1	0.139579078000679	1	13	279.264021937	NA	1	0	4.84	1	275.755085846999	275.894664925	"28"	5503.400018821	5501.121457224	1.5	0.1
0.01	1	0.132082105999871	1	13	279.264021937	NA	1	0	4.84	1	276.12244838	276.254530486	"28"	5503.400018821	5501.121457224	1.5	0.1
0.01	1	0.163160332000189	1	13	279.264021937	NA	1	0	4.84	1	276.489647453	276.652807785	"28"	5503.400018821	5501.121457224	1.5	0.1
0.01	1	0.108077956999296	1	13	279.264021937	NA	1	0	4.84	1	276.89032492	276.998402877	"28"	5503.400018821	5501.121457224	1.5	0.1
0.01	1	0.166651114999695	1	13	279.264021937	NA	1	0	4.84	1	277.22412446	277.390775575	"28"	5503.400018821	5501.121457224	1.5	0.1
0.01	1	0.116380879999269	1	13	279.264021937	NA	1	0	4.84	1	277.624837145	277.741218024999	"28"	5503.400018821	5501.121457224	1.5	0.1
0.01	1	0.142081052000322	1	13	279.264021937	NA	1	0	4.84	1	277.97548063	278.117561682	"28"	5503.400018821	5501.121457224	1.5	0.1
0.01	1	0.094911616999525	1	13	279.264021937	NA	1	0	4.84	1	278.3427174	278.437629016999	"28"	5503.400018821	5501.121457224	1.5	0.1
0.01	1	0.128699345000314	1	13	279.264021937	NA	1	0	4.84	1	278.659970074999	278.78866942	"28"	5503.400018821	5501.121457224	1.5	0.1
0.01	1	0.130136094000591	1	13	279.264021937	NA	1	0	4.84	1	279.02721564	279.157351734	"28"	5503.400018821	5501.121457224	1.5	0.1
0.01	1	0.00206408400026703	1	125	NA	286.719650932	0	0.15	4.99	1	281.314525199	281.316589283	"29"	5503.400018821	5501.121457224	1.5	0.1
0.01	1	0.104486547000306	1	125	NA	286.719650932	0	0.15	4.99	1	281.54821191	281.652698457	"29"	5503.400018821	5501.121457224	1.5	0.1
0.01	1	0.0907141869993211	1	125	NA	286.719650932	0	0.15	4.99	1	281.881966375	281.972680561999	"29"	5503.400018821	5501.121457224	1.5	0.1
0.01	1	0.118953732000591	1	125	NA	286.719650932	0	0.15	4.99	1	282.199303644999	282.318257377	"29"	5503.400018821	5501.121457224	1.5	0.1
0.01	1	0.151121812000383	1	125	NA	286.719650932	0	0.15	4.99	1	282.549832477	282.700954289	"29"	5503.400018821	5501.121457224	1.5	0.1
0.01	1	0.119939428999714	1	125	NA	286.719650932	0	0.15	4.99	1	282.933844205	283.053783634	"29"	5503.400018821	5501.121457224	1.5	0.1
0.01	1	0.121453298999768	1	125	NA	286.719650932	0	0.15	4.99	1	283.284390096	283.405843394999	"29"	5503.400018821	5501.121457224	1.5	0.1
0.01	1	0.114518000999851	1	125	NA	286.719650932	0	0.15	4.99	1	283.63505661	283.749574611	"29"	5503.400018821	5501.121457224	1.5	0.1
0.01	1	0.108134682999662	1	125	NA	286.719650932	0	0.15	4.99	1	283.985578555	284.093713238	"29"	5503.400018821	5501.121457224	1.5	0.1
0.01	1	0.119810158999826	1	125	NA	286.719650932	0	0.15	4.99	1	284.31950954	284.439319698999	"29"	5503.400018821	5501.121457224	1.5	0.1
0.01	1	0.103643694999846	1	125	NA	286.719650932	0	0.15	4.99	1	284.670074857	284.773718552	"29"	5503.400018821	5501.121457224	1.5	0.1
0.01	1	0.11383403400032	1	125	NA	286.719650932	0	0.15	4.99	1	285.003974755	285.117808789	"29"	5503.400018821	5501.121457224	1.5	0.1
0.01	1	0.146301707000021	1	125	NA	286.719650932	0	0.15	4.99	1	285.354583265	285.500884972	"29"	5503.400018821	5501.121457224	1.5	0.1
0.01	1	0.154344389000471	1	125	NA	286.719650932	0	0.15	4.99	1	285.738602035	285.892946424	"29"	5503.400018821	5501.121457224	1.5	0.1
0.01	1	0.275965191000068	1	125	NA	286.719650932	0	0.15	4.99	1	286.122553229	286.39851842	"29"	5503.400018821	5501.121457224	1.5	0.1
0.01	1	0.094720597999185	2	125	NA	286.719650932	0	0.15	4.99	1	286.62336054	286.718081137999	"29"	5503.400018821	5501.121457224	1.5	0.1
0.01	1	0.596681502999672	1	105	NA	297.679236169	0	0.26	5.25	1	288.760274005	289.356955507999	"30"	5503.400018821	5501.121457224	1.5	0.1
0.01	1	0.434926635999545	1	105	NA	297.679236169	0	0.26	5.25	1	289.59505069	290.029977325999	"30"	5503.400018821	5501.121457224	1.5	0.1
0.01	1	0.230524213000535	1	105	NA	297.679236169	0	0.26	5.25	1	290.26286269	290.493386903	"30"	5503.400018821	5501.121457224	1.5	0.1
0.01	1	0.0992630450000433	1	105	NA	297.679236169	0	0.26	5.25	1	290.73027649	290.829539535	"30"	5503.400018821	5501.121457224	1.5	0.1
0.01	1	0.0618994590004149	1	105	NA	297.679236169	0	0.26	5.25	1	291.064201595	291.126101054	"30"	5503.400018821	5501.121457224	1.5	0.1
0.01	1	0.0654519459994845	1	105	NA	297.679236169	0	0.26	5.25	1	291.364659807	291.430111752999	"30"	5503.400018821	5501.121457224	1.5	0.1
0.01	1	0.0123438509999687	1	105	NA	297.679236169	0	0.26	5.25	1	291.66520848	291.677552331	"30"	5503.400018821	5501.121457224	1.5	0.1
0.01	1	0.00417202799962979	1	105	NA	297.679236169	0	0.26	5.25	1	291.915553492	291.91972552	"30"	5503.400018821	5501.121457224	1.5	0.1
0.01	1	0.0476560879997123	1	105	NA	297.679236169	0	0.26	5.25	1	292.14938968	292.197045768	"30"	5503.400018821	5501.121457224	1.5	0.1
0.01	1	0.621296331999474	1	105	NA	297.679236169	0	0.26	5.25	1	292.433115742	293.054412074	"30"	5503.400018821	5501.121457224	1.5	0.1
0.01	1	0.120658898000329	1	105	NA	297.679236169	0	0.26	5.25	1	293.28459935	293.405258248	"30"	5503.400018821	5501.121457224	1.5	0.1
0.01	1	0.0586627749999025	1	105	NA	297.679236169	0	0.26	5.25	1	293.63518511	293.693847885	"30"	5503.400018821	5501.121457224	1.5	0.1
0.01	1	0.061716940000224	1	105	NA	297.679236169	0	0.26	5.25	1	293.918984084999	293.980701025	"30"	5503.400018821	5501.121457224	1.5	0.1
0.01	1	0.0268156920001275	1	105	NA	297.679236169	0	0.26	5.25	1	294.202745482	294.229561174	"30"	5503.400018821	5501.121457224	1.5	0.1
0.01	1	0.0242574860003515	1	105	NA	297.679236169	0	0.26	5.25	1	294.453113905	294.477371391	"30"	5503.400018821	5501.121457224	1.5	0.1
0.01	1	0.053915120000056	1	105	NA	297.679236169	0	0.26	5.25	1	294.703581285	294.757496405	"30"	5503.400018821	5501.121457224	1.5	0.1
0.01	1	0.0179452610000226	1	105	NA	297.679236169	0	0.26	5.25	1	294.987437997	295.005383258	"30"	5503.400018821	5501.121457224	1.5	0.1
0.01	1	0.0566220529999555	1	105	NA	297.679236169	0	0.26	5.25	1	295.237807857	295.29442991	"30"	5503.400018821	5501.121457224	1.5	0.1
0.01	1	0.0120877379995363	1	105	NA	297.679236169	0	0.26	5.25	1	295.521703022	295.53379076	"30"	5503.400018821	5501.121457224	1.5	0.1
0.01	1	0.00391994900019199	1	105	NA	297.679236169	0	0.26	5.25	1	295.772067815	295.775987764	"30"	5503.400018821	5501.121457224	1.5	0.1
0.01	1	0.0239646410000205	1	105	NA	297.679236169	0	0.26	5.25	1	296.005853125	296.029817766	"30"	5503.400018821	5501.121457224	1.5	0.1
0.01	1	0.0219503239995902	1	105	NA	297.679236169	0	0.26	5.25	1	296.2561833	296.278133624	"30"	5503.400018821	5501.121457224	1.5	0.1
0.01	1	0.00214593000055174	1	105	NA	297.679236169	0	0.26	5.25	1	296.506682927999	296.508828858	"30"	5503.400018821	5501.121457224	1.5	0.1
0.01	1	0.00216282100063836	1	105	NA	297.679236169	0	0.26	5.25	1	296.740335035	296.742497856	"30"	5503.400018821	5501.121457224	1.5	0.1
0.01	1	0.086494758000299	1	105	NA	297.679236169	0	0.26	5.25	1	296.974165836999	297.060660595	"30"	5503.400018821	5501.121457224	1.5	0.1
0.01	1	0.00218811800004914	1	105	NA	297.679236169	0	0.26	5.25	1	297.291290477	297.293478595	"30"	5503.400018821	5501.121457224	1.5	0.1
0.01	1	0.152583097000388	2	105	NA	297.679236169	0	0.26	5.25	1	297.525096939999	297.677680037	"30"	5503.400018821	5501.121457224	1.5	0.1
