"payoff.level"	"balloon"	"rt"	"resp"	"explode.trial"	"explode.time"	"finish.time"	"exploded"	"trial.total"	"cumulative.total"	"finished"	"trial.start"	"trial.end"	"trial.num"	"secs"	"start.time"	"iti"	"isi"
0.01	1	1.05310010999983	1	64	NA	10.5223722199999	0	0.15	0.15	1	0.0115428319995772	1.06464294199941	"1"	5790.748825188	5785.37871211	1.5	0.1
0.01	1	0.720446975999948	1	64	NA	10.5223722199999	0	0.15	0.15	1	1.46406601799936	2.18451299399931	"1"	5790.748825188	5785.37871211	1.5	0.1
0.01	1	0.497520444000656	1	64	NA	10.5223722199999	0	0.15	0.15	1	2.41561205399921	2.91313249799987	"1"	5790.748825188	5785.37871211	1.5	0.1
0.01	1	0.458262080999702	1	64	NA	10.5223722199999	0	0.15	0.15	1	3.15018978599983	3.60845186699953	"1"	5790.748825188	5785.37871211	1.5	0.1
0.01	1	0.366441520999615	1	64	NA	10.5223722199999	0	0.15	0.15	1	3.8346285079997	4.20107002899931	"1"	5790.748825188	5785.37871211	1.5	0.1
0.01	1	0.293086040000162	1	64	NA	10.5223722199999	0	0.15	0.15	1	4.4356163099992	4.72870234999937	"1"	5790.748825188	5785.37871211	1.5	0.1
0.01	1	0.327929531000336	1	64	NA	10.5223722199999	0	0.15	0.15	1	4.95322060599938	5.28115013699971	"1"	5790.748825188	5785.37871211	1.5	0.1
0.01	1	0.311752495000292	1	64	NA	10.5223722199999	0	0.15	0.15	1	5.5208499069995	5.83260240199979	"1"	5790.748825188	5785.37871211	1.5	0.1
0.01	1	0.297672708999926	1	64	NA	10.5223722199999	0	0.15	0.15	1	6.05503866699928	6.35271137599921	"1"	5790.748825188	5785.37871211	1.5	0.1
0.01	1	0.299233071999879	1	64	NA	10.5223722199999	0	0.15	0.15	1	6.58936214699952	6.8885952189994	"1"	5790.748825188	5785.37871211	1.5	0.1
0.01	1	0.341454228000657	1	64	NA	10.5223722199999	0	0.15	0.15	1	7.12358648399913	7.46504071199979	"1"	5790.748825188	5785.37871211	1.5	0.1
0.01	1	0.342064370000116	1	64	NA	10.5223722199999	0	0.15	0.15	1	7.69119870899976	8.03326307899988	"1"	5790.748825188	5785.37871211	1.5	0.1
0.01	1	0.350042805000157	1	64	NA	10.5223722199999	0	0.15	0.15	1	8.25879034899936	8.60883315399951	"1"	5790.748825188	5785.37871211	1.5	0.1
0.01	1	0.317929154000012	1	64	NA	10.5223722199999	0	0.15	0.15	1	8.84309163999933	9.16102079399934	"1"	5790.748825188	5785.37871211	1.5	0.1
0.01	1	0.327086098000109	1	64	NA	10.5223722199999	0	0.15	0.15	1	9.39405091399931	9.72113701199942	"1"	5790.748825188	5785.37871211	1.5	0.1
0.01	1	0.575762740000755	2	64	NA	10.5223722199999	0	0.15	0.15	1	9.94510415899913	10.5208668989999	"1"	5790.748825188	5785.37871211	1.5	0.1
0.01	1	0.498849899999186	1	102	NA	19.2908718509998	0	0.1	0.25	1	12.5663402489999	13.0651901489991	"2"	5790.748825188	5785.37871211	1.5	0.1
0.01	1	0.284089455999492	1	102	NA	19.2908718509998	0	0.1	0.25	1	13.3008205639999	13.5849100199994	"2"	5790.748825188	5785.37871211	1.5	0.1
0.01	1	0.382659430999411	1	102	NA	19.2908718509998	0	0.1	0.25	1	13.8181904319999	14.2008498629993	"2"	5790.748825188	5785.37871211	1.5	0.1
0.01	1	0.156575471999531	1	102	NA	19.2908718509998	0	0.1	0.25	1	14.435997519	14.5925729909995	"2"	5790.748825188	5785.37871211	1.5	0.1
0.01	1	0.381033853999725	1	102	NA	19.2908718509998	0	0.1	0.25	1	14.819947856	15.2009817099997	"2"	5790.748825188	5785.37871211	1.5	0.1
0.01	1	0.66735645999961	1	102	NA	19.2908718509998	0	0.1	0.25	1	15.437686626	16.1050430859996	"2"	5790.748825188	5785.37871211	1.5	0.1
0.01	1	0.749567063000541	1	102	NA	19.2908718509998	0	0.1	0.25	1	16.3390914229994	17.088658486	"2"	5790.748825188	5785.37871211	1.5	0.1
0.01	1	0.0206383519998781	1	102	NA	19.2908718509998	0	0.1	0.25	1	17.3241345789993	17.3447729309992	"2"	5790.748825188	5785.37871211	1.5	0.1
0.01	1	0.394113944999845	1	102	NA	19.2908718509998	0	0.1	0.25	1	17.5745373009995	17.9686512459994	"2"	5790.748825188	5785.37871211	1.5	0.1
0.01	1	0.416817131999778	1	102	NA	19.2908718509998	0	0.1	0.25	1	18.1923406839996	18.6091578159994	"2"	5790.748825188	5785.37871211	1.5	0.1
0.01	1	0.446037439000065	2	102	NA	19.2908718509998	0	0.1	0.25	1	18.8432747209999	19.28931216	"2"	5790.748825188	5785.37871211	1.5	0.1
0.01	1	0.349232976999701	1	97	NA	25.4899970109991	0	0.05	0.3	1	21.3476351789996	21.6968681559993	"3"	5790.748825188	5785.37871211	1.5	0.1
0.01	1	0.340465786000095	1	97	NA	25.4899970109991	0	0.05	0.3	1	21.9320301909993	22.2724959769994	"3"	5790.748825188	5785.37871211	1.5	0.1
0.01	1	0.757683044999794	1	97	NA	25.4899970109991	0	0.05	0.3	1	22.4995994089995	23.2572824539993	"3"	5790.748825188	5785.37871211	1.5	0.1
0.01	1	0.42779626399988	1	97	NA	25.4899970109991	0	0.05	0.3	1	23.4846003539997	23.9123966179995	"3"	5790.748825188	5785.37871211	1.5	0.1
0.01	1	0.496831589000067	1	97	NA	25.4899970109991	0	0.05	0.3	1	24.1355465019997	24.6323780909997	"3"	5790.748825188	5785.37871211	1.5	0.1
0.01	1	0.618311858999732	2	97	NA	25.4899970109991	0	0.05	0.3	1	24.870182871	25.4884947299997	"3"	5790.748825188	5785.37871211	1.5	0.1
0.01	1	0.523679148000156	1	51	NA	30.3140241819992	0	0.02	0.32	1	27.5246719909992	28.0483511389994	"4"	5790.748825188	5785.37871211	1.5	0.1
0.01	1	0.508675672999743	1	51	NA	30.3140241819992	0	0.02	0.32	1	28.2759396439997	28.7846153169994	"4"	5790.748825188	5785.37871211	1.5	0.1
0.01	1	1.30219766800019	2	51	NA	30.3140241819992	0	0.02	0.32	1	29.0103503219998	30.31254799	"4"	5790.748825188	5785.37871211	1.5	0.1
0.01	1	0.482834520000324	1	116	NA	36.2263602209996	0	0.05	0.37	1	32.3660364909992	32.8488710109996	"5"	5790.748825188	5785.37871211	1.5	0.1
0.01	1	0.3170488880005	1	116	NA	36.2263602209996	0	0.05	0.37	1	33.0839225459995	33.400971434	"5"	5790.748825188	5785.37871211	1.5	0.1
0.01	1	0.429604132999884	1	116	NA	36.2263602209996	0	0.05	0.37	1	33.6349757689995	34.0645799019994	"5"	5790.748825188	5785.37871211	1.5	0.1
0.01	1	0.387099346000468	1	116	NA	36.2263602209996	0	0.05	0.37	1	34.2860398529992	34.6731391989997	"5"	5790.748825188	5785.37871211	1.5	0.1
0.01	1	0.496639517999938	1	116	NA	36.2263602209996	0	0.05	0.37	1	34.9038000189994	35.4004395369993	"5"	5790.748825188	5785.37871211	1.5	0.1
0.01	1	0.586550537999756	2	116	NA	36.2263602209996	0	0.05	0.37	1	35.6382837539995	36.2248342919993	"5"	5790.748825188	5785.37871211	1.5	0.1
0.01	1	0.477056706999974	1	118	NA	39.6338739429993	0	0.01	0.38	1	38.2760071089997	38.7530638159997	"6"	5790.748825188	5785.37871211	1.5	0.1
0.01	1	0.655127539999739	2	118	NA	39.6338739429993	0	0.01	0.38	1	38.9772770399995	39.6324045799993	"6"	5790.748825188	5785.37871211	1.5	0.1
0.01	1	0.31132222800079	1	87	NA	43.874272518	0	0.02	0.4	1	41.6817482909992	41.993070519	"7"	5790.748825188	5785.37871211	1.5	0.1
0.01	1	0.664202713999657	1	87	NA	43.874272518	0	0.02	0.4	1	42.2327174479997	42.8969201619993	"7"	5790.748825188	5785.37871211	1.5	0.1
0.01	1	0.738474535000023	2	87	NA	43.874272518	0	0.02	0.4	1	43.1343082639996	43.8727827989997	"7"	5790.748825188	5785.37871211	1.5	0.1
0.01	1	0.406989294999221	1	6	NA	49.0418093789995	0	0.04	0.44	1	45.922254694	46.3292439889992	"8"	5790.748825188	5785.37871211	1.5	0.1
0.01	1	0.204569620999791	1	6	NA	49.0418093789995	0	0.04	0.44	1	46.5567166789997	46.7612862999995	"8"	5790.748825188	5785.37871211	1.5	0.1
0.01	1	0.361924859000283	1	6	NA	49.0418093789995	0	0.04	0.44	1	46.9907929009996	47.3527177599999	"8"	5790.748825188	5785.37871211	1.5	0.1
0.01	1	0.801572131000285	1	6	NA	49.0418093789995	0	0.04	0.44	1	47.5917808699996	48.3933530009999	"8"	5790.748825188	5785.37871211	1.5	0.1
0.01	1	0.41360365699984	2	6	NA	49.0418093789995	0	0.04	0.44	1	48.6267802289995	49.0403838859993	"8"	5790.748825188	5785.37871211	1.5	0.1
0.01	1	0.287353531000008	1	106	NA	53.465868409	0	0.03	0.47	1	51.0976598999996	51.3850134309996	"9"	5790.748825188	5785.37871211	1.5	0.1
0.01	1	0.362068962999729	1	106	NA	53.465868409	0	0.03	0.47	1	51.6152319889998	51.9773009519995	"9"	5790.748825188	5785.37871211	1.5	0.1
0.01	1	0.528253976999622	1	106	NA	53.465868409	0	0.03	0.47	1	52.2161410339995	52.7443950109991	"9"	5790.748825188	5785.37871211	1.5	0.1
0.01	1	0.496850502000598	2	106	NA	53.465868409	0	0.03	0.47	1	52.9675079089993	53.4643584109999	"9"	5790.748825188	5785.37871211	1.5	0.1
0.01	1	0.256222887999684	1	21	NA	64.6662410559993	0	0.15	0.62	1	55.5050723389995	55.7612952269992	"10"	5790.748825188	5785.37871211	1.5	0.1
0.01	1	0.26799683399986	1	21	NA	64.6662410559993	0	0.15	0.62	1	55.9891715139993	56.2571683479991	"10"	5790.748825188	5785.37871211	1.5	0.1
0.01	1	0.278526959999908	1	21	NA	64.6662410559993	0	0.15	0.62	1	56.4900240199995	56.7685509799994	"10"	5790.748825188	5785.37871211	1.5	0.1
0.01	1	0.330136198999753	1	21	NA	64.6662410559993	0	0.15	0.62	1	56.9908564039997	57.3209926029995	"10"	5790.748825188	5785.37871211	1.5	0.1
0.01	1	0.305813156000113	1	21	NA	64.6662410559993	0	0.15	0.62	1	57.5585439889992	57.8643571449993	"10"	5790.748825188	5785.37871211	1.5	0.1
0.01	1	0.348323940000228	1	21	NA	64.6662410559993	0	0.15	0.62	1	58.0928213889993	58.4411453289995	"10"	5790.748825188	5785.37871211	1.5	0.1
0.01	1	0.331363762000365	1	21	NA	64.6662410559993	0	0.15	0.62	1	58.6771727159994	59.0085364779998	"10"	5790.748825188	5785.37871211	1.5	0.1
0.01	1	0.459966528999757	1	21	NA	64.6662410559993	0	0.15	0.62	1	59.244777551	59.7047440799997	"10"	5790.748825188	5785.37871211	1.5	0.1
0.01	1	0.335864614000457	1	21	NA	64.6662410559993	0	0.15	0.62	1	59.9291073219993	60.2649719359997	"10"	5790.748825188	5785.37871211	1.5	0.1
0.01	1	0.38410951700007	1	21	NA	64.6662410559993	0	0.15	0.62	1	60.4968106609995	60.8809201779995	"10"	5790.748825188	5785.37871211	1.5	0.1
0.01	1	0.390640494999388	1	21	NA	64.6662410559993	0	0.15	0.62	1	61.1144022039998	61.5050426989992	"10"	5790.748825188	5785.37871211	1.5	0.1
0.01	1	0.372482239000419	1	21	NA	64.6662410559993	0	0.15	0.62	1	61.7321977039992	62.1046799429996	"10"	5790.748825188	5785.37871211	1.5	0.1
0.01	1	0.411483365000095	1	21	NA	64.6662410559993	0	0.15	0.62	1	62.3331307439994	62.7446141089995	"10"	5790.748825188	5785.37871211	1.5	0.1
0.01	1	0.384884613000395	1	21	NA	64.6662410559993	0	0.15	0.62	1	62.9676164369994	63.3525010499998	"10"	5790.748825188	5785.37871211	1.5	0.1
0.01	1	0.399142096000105	1	21	NA	64.6662410559993	0	0.15	0.62	1	63.5852840739999	63.98442617	"10"	5790.748825188	5785.37871211	1.5	0.1
0.01	1	0.444960441000148	2	21	NA	64.6662410559993	0	0.15	0.62	1	64.2197924509992	64.6647528919993	"10"	5790.748825188	5785.37871211	1.5	0.1
0.01	1	0.334407524000198	1	19	NA	68.002042739	0	0.02	0.64	1	66.6905296639998	67.024937188	"11"	5790.748825188	5785.37871211	1.5	0.1
0.01	1	0.158240508000745	1	19	NA	68.002042739	0	0.02	0.64	1	67.2581815259991	67.4164220339999	"11"	5790.748825188	5785.37871211	1.5	0.1
0.01	1	0.358463870000378	2	19	NA	68.002042739	0	0.02	0.64	1	67.6421043209994	68.0005681909997	"11"	5790.748825188	5785.37871211	1.5	0.1
0.01	1	0.55563334999988	1	63	NA	70.9539337679998	0	0.01	0.65	1	70.029439596	70.5850729459999	"12"	5790.748825188	5785.37871211	1.5	0.1
0.01	1	0.138415014000202	2	63	NA	70.9539337679998	0	0.01	0.65	1	70.8140563389998	70.952471353	"12"	5790.748825188	5785.37871211	1.5	0.1
0.01	1	0.287588443999994	1	54	NA	75.4820662339998	0	0.05	0.7	1	73.0012012559991	73.2887896999991	"13"	5790.748825188	5785.37871211	1.5	0.1
0.01	1	0.105791910999869	1	54	NA	75.4820662339998	0	0.05	0.7	1	73.518651591	73.6244435019998	"13"	5790.748825188	5785.37871211	1.5	0.1
0.01	1	0.179857313999491	1	54	NA	75.4820662339998	0	0.05	0.7	1	73.8525617739997	74.0324190879992	"13"	5790.748825188	5785.37871211	1.5	0.1
0.01	1	0.203378770000199	1	54	NA	75.4820662339998	0	0.05	0.7	1	74.2699003439993	74.4732791139995	"13"	5790.748825188	5785.37871211	1.5	0.1
0.01	1	0.256904617000146	1	54	NA	75.4820662339998	0	0.05	0.7	1	74.7039455859995	74.9608502029996	"13"	5790.748825188	5785.37871211	1.5	0.1
0.01	1	0.292460444000426	2	54	NA	75.4820662339998	0	0.05	0.7	1	75.1881238239994	75.4805842679998	"13"	5790.748825188	5785.37871211	1.5	0.1
0.01	1	0.572380640000119	1	103	NA	83.0660706219996	0	0.1	0.8	1	77.5086846409995	78.0810652809996	"14"	5790.748825188	5785.37871211	1.5	0.1
0.01	1	0.106381976000193	1	103	NA	83.0660706219996	0	0.1	0.8	1	78.3100367039997	78.4164186799999	"14"	5790.748825188	5785.37871211	1.5	0.1
0.01	1	0.196959554999921	1	103	NA	83.0660706219996	0	0.1	0.8	1	78.6439132589994	78.8408728139993	"14"	5790.748825188	5785.37871211	1.5	0.1
0.01	1	0.226798901999246	1	103	NA	83.0660706219996	0	0.1	0.8	1	79.0780329859999	79.3048318879992	"14"	5790.748825188	5785.37871211	1.5	0.1
0.01	1	0.312190659999942	1	103	NA	83.0660706219996	0	0.1	0.8	1	79.5288534689998	79.8410441289998	"14"	5790.748825188	5785.37871211	1.5	0.1
0.01	1	0.273368946000119	1	103	NA	83.0660706219996	0	0.1	0.8	1	80.0629805709996	80.3363495169997	"14"	5790.748825188	5785.37871211	1.5	0.1
0.01	1	0.260775904999718	1	103	NA	83.0660706219996	0	0.1	0.8	1	80.5638816969995	80.8246576019992	"14"	5790.748825188	5785.37871211	1.5	0.1
0.01	1	0.312660836999385	1	103	NA	83.0660706219996	0	0.1	0.8	1	81.0480460939998	81.3607069309992	"14"	5790.748825188	5785.37871211	1.5	0.1
0.01	1	0.313478400000349	1	103	NA	83.0660706219996	0	0.1	0.8	1	81.5990165739995	81.9124949739999	"14"	5790.748825188	5785.37871211	1.5	0.1
0.01	1	0.339205874999607	1	103	NA	83.0660706219996	0	0.1	0.8	1	82.1499002609999	82.4891061359995	"14"	5790.748825188	5785.37871211	1.5	0.1
0.01	1	0.347053186999801	2	103	NA	83.0660706219996	0	0.1	0.8	1	82.7175367089994	83.0645898959992	"14"	5790.748825188	5785.37871211	1.5	0.1
0.01	1	0.304452004000268	1	120	NA	87.7387821979992	0	0.05	0.85	1	85.1048437439995	85.4092957479997	"15"	5790.748825188	5785.37871211	1.5	0.1
0.01	1	0.153794193999602	1	120	NA	87.7387821979992	0	0.05	0.85	1	85.6390882879996	85.7928824819992	"15"	5790.748825188	5785.37871211	1.5	0.1
0.01	1	0.201585758999499	1	120	NA	87.7387821979992	0	0.05	0.85	1	86.0230118689997	86.2245976279992	"15"	5790.748825188	5785.37871211	1.5	0.1
0.01	1	0.255957087000752	1	120	NA	87.7387821979992	0	0.05	0.85	1	86.4571461359992	86.713103223	"15"	5790.748825188	5785.37871211	1.5	0.1
0.01	1	0.283728405000147	1	120	NA	87.7387821979992	0	0.05	0.85	1	86.9413404709994	87.2250688759996	"15"	5790.748825188	5785.37871211	1.5	0.1
0.01	1	0.278480924000178	2	120	NA	87.7387821979992	0	0.05	0.85	1	87.4587656239992	87.7372465479993	"15"	5790.748825188	5785.37871211	1.5	0.1
0.01	1	0.254100467000171	1	109	NA	95.0904478659995	0	0.09	0.94	1	89.7792729219991	90.0333733889993	"16"	5790.748825188	5785.37871211	1.5	0.1
0.01	1	0.361307715999828	1	109	NA	95.0904478659995	0	0.09	0.94	1	90.2634405769995	90.6247482929994	"16"	5790.748825188	5785.37871211	1.5	0.1
0.01	1	0.264706922000187	1	109	NA	95.0904478659995	0	0.09	0.94	1	90.8478055429996	91.1125124649998	"16"	5790.748825188	5785.37871211	1.5	0.1
0.01	1	0.323580838999987	1	109	NA	95.0904478659995	0	0.09	0.94	1	91.3487490519992	91.6723298909992	"16"	5790.748825188	5785.37871211	1.5	0.1
0.01	1	0.325471621999895	1	109	NA	95.0904478659995	0	0.09	0.94	1	91.899539301	92.2250109229999	"16"	5790.748825188	5785.37871211	1.5	0.1
0.01	1	0.333925175000331	1	109	NA	95.0904478659995	0	0.09	0.94	1	92.4504806959994	92.7844058709998	"16"	5790.748825188	5785.37871211	1.5	0.1
0.01	1	0.335020333000102	1	109	NA	95.0904478659995	0	0.09	0.94	1	93.0181574929993	93.3531778259994	"16"	5790.748825188	5785.37871211	1.5	0.1
0.01	1	0.352187059999778	1	109	NA	95.0904478659995	0	0.09	0.94	1	93.5857487719995	93.9379358319993	"16"	5790.748825188	5785.37871211	1.5	0.1
0.01	1	0.350321685999916	1	109	NA	95.0904478659995	0	0.09	0.94	1	94.1700573129992	94.5203789989991	"16"	5790.748825188	5785.37871211	1.5	0.1
0.01	1	0.334633770999972	2	109	NA	95.0904478659995	0	0.09	0.94	1	94.7543425899994	95.0889763609994	"16"	5790.748825188	5785.37871211	1.5	0.1
0.01	1	0.443188036999345	1	71	NA	98.8901833689997	0	0.03	0.97	1	97.1417265	97.5849145369993	"17"	5790.748825188	5785.37871211	1.5	0.1
0.01	1	0.102836281000236	1	71	NA	98.8901833689997	0	0.03	0.97	1	97.8263070519997	97.929143333	"17"	5790.748825188	5785.37871211	1.5	0.1
0.01	1	0.19266134999998	1	71	NA	98.8901833689997	0	0.03	0.97	1	98.1599901289992	98.3526514789992	"17"	5790.748825188	5785.37871211	1.5	0.1
0.01	1	0.311224570999912	2	71	NA	98.8901833689997	0	0.03	0.97	1	98.5774811539995	98.8887057249995	"17"	5790.748825188	5785.37871211	1.5	0.1
0.01	1	0.294153353000183	1	96	NA	102.834454254	0	0.03	1	1	100.914748693	101.208902046	"18"	5790.748825188	5785.37871211	1.5	0.1
0.01	1	0.296155109999745	1	96	NA	102.834454254	0	0.03	1	1	101.449082831999	101.745237941999	"18"	5790.748825188	5785.37871211	1.5	0.1
0.01	1	0.329951953000091	1	96	NA	102.834454254	0	0.03	1	1	101.966507638	102.296459591	"18"	5790.748825188	5785.37871211	1.5	0.1
0.01	1	0.298978116999933	2	96	NA	102.834454254	0	0.03	1	1	102.534092848	102.833070965	"18"	5790.748825188	5785.37871211	1.5	0.1
0.01	1	0.792202088000522	1	91	NA	106.570048617	0	0.02	1.02	1	104.888206248999	105.680408337	"19"	5790.748825188	5785.37871211	1.5	0.1
0.01	1	0.0861056909998297	1	91	NA	106.570048617	0	0.02	1.02	1	105.906612647999	105.992718338999	"19"	5790.748825188	5785.37871211	1.5	0.1
0.01	1	0.344915306000075	2	91	NA	106.570048617	0	0.02	1.02	1	106.223654083999	106.56856939	"19"	5790.748825188	5785.37871211	1.5	0.1
0.01	1	0.294392895999408	1	5	110.400351703999	NA	1	0	1.02	1	108.594372218	108.888765113999	"20"	5790.748825188	5785.37871211	1.5	0.1
0.01	1	0.104638265999711	1	5	110.400351703999	NA	1	0	1.02	1	109.128593017	109.233231282999	"20"	5790.748825188	5785.37871211	1.5	0.1
0.01	1	0.154701030999604	1	5	110.400351703999	NA	1	0	1.02	1	109.462424372	109.617125403	"20"	5790.748825188	5785.37871211	1.5	0.1
0.01	1	0.122601401999418	1	5	110.400351703999	NA	1	0	1.02	1	109.8464452	109.969046601999	"20"	5790.748825188	5785.37871211	1.5	0.1
0.01	1	0.0917108210005608	1	5	110.400351703999	NA	1	0	1.02	1	110.196921377999	110.288632199	"20"	5790.748825188	5785.37871211	1.5	0.1
0.01	1	0.358236387999568	1	123	NA	114.377991144999	0	0.03	1.05	1	112.434129832	112.792366219999	"21"	5790.748825188	5785.37871211	1.5	0.1
0.01	1	0.390042658999846	1	123	NA	114.377991144999	0	0.03	1.05	1	113.018518821	113.40856148	"21"	5790.748825188	5785.37871211	1.5	0.1
0.01	1	0.236633620999783	1	123	NA	114.377991144999	0	0.03	1.05	1	113.636170919	113.872804539999	"21"	5790.748825188	5785.37871211	1.5	0.1
0.01	1	0.272850975000438	2	123	NA	114.377991144999	0	0.03	1.05	1	114.103664687999	114.376515663	"21"	5790.748825188	5785.37871211	1.5	0.1
0.01	1	0.632834230000299	1	81	NA	123.585799965	0	0.21	1.26	1	116.407553640999	117.040387870999	"22"	5790.748825188	5785.37871211	1.5	0.1
0.01	1	0.0767046139999366	1	81	NA	123.585799965	0	0.21	1.26	1	117.275640997999	117.352345611999	"22"	5790.748825188	5785.37871211	1.5	0.1
0.01	1	0.0962719039998774	1	81	NA	123.585799965	0	0.21	1.26	1	117.576132241999	117.672404145999	"22"	5790.748825188	5785.37871211	1.5	0.1
0.01	1	0.0906488990003709	1	81	NA	123.585799965	0	0.21	1.26	1	117.910058201	118.0007071	"22"	5790.748825188	5785.37871211	1.5	0.1
0.01	1	0.0859207670000615	1	81	NA	123.585799965	0	0.21	1.26	1	118.227293851	118.313214618	"22"	5790.748825188	5785.37871211	1.5	0.1
0.01	1	0.0562266309998449	1	81	NA	123.585799965	0	0.21	1.26	1	118.544456371	118.600683002	"22"	5790.748825188	5785.37871211	1.5	0.1
0.01	1	0.0848509679999552	1	81	NA	123.585799965	0	0.21	1.26	1	118.828231048999	118.913082016999	"22"	5790.748825188	5785.37871211	1.5	0.1
0.01	1	0.0553533679994871	1	81	NA	123.585799965	0	0.21	1.26	1	119.145426583	119.200779950999	"22"	5790.748825188	5785.37871211	1.5	0.1
0.01	1	0.0833604119998199	1	81	NA	123.585799965	0	0.21	1.26	1	119.429157764	119.512518176	"22"	5790.748825188	5785.37871211	1.5	0.1
0.01	1	0.0947231099999044	1	81	NA	123.585799965	0	0.21	1.26	1	119.746554019	119.841277129	"22"	5790.748825188	5785.37871211	1.5	0.1
0.01	1	0.0888450949996695	1	81	NA	123.585799965	0	0.21	1.26	1	120.06351499	120.152360085	"22"	5790.748825188	5785.37871211	1.5	0.1
0.01	1	0.0522241119997489	1	81	NA	123.585799965	0	0.21	1.26	1	120.380759084	120.432983195999	"22"	5790.748825188	5785.37871211	1.5	0.1
0.01	1	0.0637110930001654	1	81	NA	123.585799965	0	0.21	1.26	1	120.664824678999	120.728535771999	"22"	5790.748825188	5785.37871211	1.5	0.1
0.01	1	0.0679616819998046	1	81	NA	123.585799965	0	0.21	1.26	1	120.965165111999	121.033126793999	"22"	5790.748825188	5785.37871211	1.5	0.1
0.01	1	0.0709938480003984	1	81	NA	123.585799965	0	0.21	1.26	1	121.265576542	121.33657039	"22"	5790.748825188	5785.37871211	1.5	0.1
0.01	1	0.0667672670006141	1	81	NA	123.585799965	0	0.21	1.26	1	121.566200787999	121.632968055	"22"	5790.748825188	5785.37871211	1.5	0.1
0.01	1	0.0776605829996697	1	81	NA	123.585799965	0	0.21	1.26	1	121.866749757	121.944410339999	"22"	5790.748825188	5785.37871211	1.5	0.1
0.01	1	0.0977526929991654	1	81	NA	123.585799965	0	0.21	1.26	1	122.167177153	122.264929845999	"22"	5790.748825188	5785.37871211	1.5	0.1
0.01	1	0.0438783769996007	1	81	NA	123.585799965	0	0.21	1.26	1	122.501141168	122.545019544999	"22"	5790.748825188	5785.37871211	1.5	0.1
0.01	1	0.0652165519995833	1	81	NA	123.585799965	0	0.21	1.26	1	122.768139409	122.833355960999	"22"	5790.748825188	5785.37871211	1.5	0.1
0.01	1	0.0676400830006969	1	81	NA	123.585799965	0	0.21	1.26	1	123.068718629999	123.136358713	"22"	5790.748825188	5785.37871211	1.5	0.1
0.01	1	0.215098288000263	2	81	NA	123.585799965	0	0.21	1.26	1	123.369239979999	123.584338268	"22"	5790.748825188	5785.37871211	1.5	0.1
0.01	1	0.441563605999363	1	117	NA	133.010234740999	0	0.24	1.5	1	125.639589859	126.081153464999	"23"	5790.748825188	5785.37871211	1.5	0.1
0.01	1	0.00546895199931896	1	117	NA	133.010234740999	0	0.24	1.5	1	126.307499107	126.312968058999	"23"	5790.748825188	5785.37871211	1.5	0.1
0.01	1	0.0753407059992242	1	117	NA	133.010234740999	0	0.24	1.5	1	126.541193743	126.616534448999	"23"	5790.748825188	5785.37871211	1.5	0.1
0.01	1	0.0474999580001167	1	117	NA	133.010234740999	0	0.24	1.5	1	126.841627291	126.889127249	"23"	5790.748825188	5785.37871211	1.5	0.1
0.01	1	0.0190554029995837	1	117	NA	133.010234740999	0	0.24	1.5	1	127.125508542	127.144563944999	"23"	5790.748825188	5785.37871211	1.5	0.1
0.01	1	0.009130450000157	1	117	NA	133.010234740999	0	0.24	1.5	1	127.375947592	127.385078042	"23"	5790.748825188	5785.37871211	1.5	0.1
0.01	1	0.0474717319993943	1	117	NA	133.010234740999	0	0.24	1.5	1	127.609611641	127.657083372999	"23"	5790.748825188	5785.37871211	1.5	0.1
0.01	1	0.00190669699986756	1	117	NA	133.010234740999	0	0.24	1.5	1	127.893476628999	127.895383325999	"23"	5790.748825188	5785.37871211	1.5	0.1
0.01	1	0.297663906000707	1	117	NA	133.010234740999	0	0.24	1.5	1	128.127283409999	128.424947316	"23"	5790.748825188	5785.37871211	1.5	0.1
0.01	1	0.000989890000710147	1	117	NA	133.010234740999	0	0.24	1.5	1	128.661451540999	128.662441431	"23"	5790.748825188	5785.37871211	1.5	0.1
0.01	1	0.00106704800055013	1	117	NA	133.010234740999	0	0.24	1.5	1	128.895204799999	128.896271848	"23"	5790.748825188	5785.37871211	1.5	0.1
0.01	1	0.0959818629999063	1	117	NA	133.010234740999	0	0.24	1.5	1	129.128928116	129.224909979	"23"	5790.748825188	5785.37871211	1.5	0.1
0.01	1	0.000977260999206919	1	117	NA	133.010234740999	0	0.24	1.5	1	129.462876693	129.463853953999	"23"	5790.748825188	5785.37871211	1.5	0.1
0.01	1	0.00100813500012009	1	117	NA	133.010234740999	0	0.24	1.5	1	129.696455257	129.697463392	"23"	5790.748825188	5785.37871211	1.5	0.1
0.01	1	0.126665476999733	1	117	NA	133.010234740999	0	0.24	1.5	1	129.930206438999	130.056871915999	"23"	5790.748825188	5785.37871211	1.5	0.1
0.01	1	0.00111818599998514	1	117	NA	133.010234740999	0	0.24	1.5	1	130.280929852999	130.282048038999	"23"	5790.748825188	5785.37871211	1.5	0.1
0.01	1	0.00103562100048293	1	117	NA	133.010234740999	0	0.24	1.5	1	130.514482256999	130.515517878	"23"	5790.748825188	5785.37871211	1.5	0.1
0.01	1	0.00108007899962104	1	117	NA	133.010234740999	0	0.24	1.5	1	130.74825504	130.749335119	"23"	5790.748825188	5785.37871211	1.5	0.1
0.01	1	0.00111293600002682	1	117	NA	133.010234740999	0	0.24	1.5	1	130.981942961999	130.983055897999	"23"	5790.748825188	5785.37871211	1.5	0.1
0.01	1	0.121276111000043	1	117	NA	133.010234740999	0	0.24	1.5	1	131.215707658	131.336983769	"23"	5790.748825188	5785.37871211	1.5	0.1
0.01	1	0.00107041800038132	1	117	NA	133.010234740999	0	0.24	1.5	1	131.566324859999	131.567395278	"23"	5790.748825188	5785.37871211	1.5	0.1
0.01	1	0.00103327899978467	1	117	NA	133.010234740999	0	0.24	1.5	1	131.800019603	131.801052882	"23"	5790.748825188	5785.37871211	1.5	0.1
0.01	1	0.143491181999707	1	117	NA	133.010234740999	0	0.24	1.5	1	132.033745778	132.177236959999	"23"	5790.748825188	5785.37871211	1.5	0.1
0.01	1	0.00111210700015363	1	117	NA	133.010234740999	0	0.24	1.5	1	132.401099375999	132.402211483	"23"	5790.748825188	5785.37871211	1.5	0.1
0.01	1	0.373973933999878	2	117	NA	133.010234740999	0	0.24	1.5	1	132.634758550999	133.008732484999	"23"	5790.748825188	5785.37871211	1.5	0.1
0.01	1	0.281310979999944	1	84	NA	142.218508448999	0	0.26	1.76	1	135.055593566	135.336904545999	"24"	5790.748825188	5785.37871211	1.5	0.1
0.01	1	0.00101470299978246	1	84	NA	142.218508448999	0	0.26	1.76	1	135.573109421	135.574124123999	"24"	5790.748825188	5785.37871211	1.5	0.1
0.01	1	0.00107103500067751	1	84	NA	142.218508448999	0	0.26	1.76	1	135.806795625999	135.807866661	"24"	5790.748825188	5785.37871211	1.5	0.1
0.01	1	0.00105957699997816	1	84	NA	142.218508448999	0	0.26	1.76	1	136.040614054	136.041673631	"24"	5790.748825188	5785.37871211	1.5	0.1
0.01	1	0.00106708800012711	1	84	NA	142.218508448999	0	0.26	1.76	1	136.274210256	136.275277344	"24"	5790.748825188	5785.37871211	1.5	0.1
0.01	1	0.00102781199984747	1	84	NA	142.218508448999	0	0.26	1.76	1	136.507940738	136.50896855	"24"	5790.748825188	5785.37871211	1.5	0.1
0.01	1	0.000987650000752183	1	84	NA	142.218508448999	0	0.26	1.76	1	136.741661933999	136.742649584	"24"	5790.748825188	5785.37871211	1.5	0.1
0.01	1	0.00101455399999395	1	84	NA	142.218508448999	0	0.26	1.76	1	136.975412758999	136.976427312999	"24"	5790.748825188	5785.37871211	1.5	0.1
0.01	1	0.00107245099934516	1	84	NA	142.218508448999	0	0.26	1.76	1	137.209058554	137.210131004999	"24"	5790.748825188	5785.37871211	1.5	0.1
0.01	1	0.00153401200077496	1	84	NA	142.218508448999	0	0.26	1.76	1	137.442920543999	137.444454556	"24"	5790.748825188	5785.37871211	1.5	0.1
0.01	1	0.12423562100048	1	84	NA	142.218508448999	0	0.26	1.76	1	137.676665675999	137.800901297	"24"	5790.748825188	5785.37871211	1.5	0.1
0.01	1	0.00150350600051752	1	84	NA	142.218508448999	0	0.26	1.76	1	138.027299529999	138.028803036	"24"	5790.748825188	5785.37871211	1.5	0.1
0.01	1	0.00107710800057248	1	84	NA	142.218508448999	0	0.26	1.76	1	138.261042327999	138.262119436	"24"	5790.748825188	5785.37871211	1.5	0.1
0.01	1	0.0011030360001314	1	84	NA	142.218508448999	0	0.26	1.76	1	138.494600481999	138.495703518	"24"	5790.748825188	5785.37871211	1.5	0.1
0.01	1	0.00101334499959194	1	84	NA	142.218508448999	0	0.26	1.76	1	138.728374767	138.729388111999	"24"	5790.748825188	5785.37871211	1.5	0.1
0.01	1	0.00108114800059411	1	84	NA	142.218508448999	0	0.26	1.76	1	138.962150406999	138.963231555	"24"	5790.748825188	5785.37871211	1.5	0.1
0.01	1	0.00101468900084001	1	84	NA	142.218508448999	0	0.26	1.76	1	139.195793370999	139.19680806	"24"	5790.748825188	5785.37871211	1.5	0.1
0.01	1	0.139052561999961	1	84	NA	142.218508448999	0	0.26	1.76	1	139.429598144	139.568650706	"24"	5790.748825188	5785.37871211	1.5	0.1
0.01	1	0.00108938599987596	1	84	NA	142.218508448999	0	0.26	1.76	1	139.79686832	139.797957706	"24"	5790.748825188	5785.37871211	1.5	0.1
0.01	1	0.00122113499946863	1	84	NA	142.218508448999	0	0.26	1.76	1	140.030476393	140.031697527999	"24"	5790.748825188	5785.37871211	1.5	0.1
0.01	1	0.0011469990004116	1	84	NA	142.218508448999	0	0.26	1.76	1	140.264268929999	140.265415929	"24"	5790.748825188	5785.37871211	1.5	0.1
0.01	1	0.110367063000012	1	84	NA	142.218508448999	0	0.26	1.76	1	140.497958360999	140.608325423999	"24"	5790.748825188	5785.37871211	1.5	0.1
0.01	1	0.0011492690000523	1	84	NA	142.218508448999	0	0.26	1.76	1	140.831913773	140.833063042	"24"	5790.748825188	5785.37871211	1.5	0.1
0.01	1	0.00109007299943187	1	84	NA	142.218508448999	0	0.26	1.76	1	141.065658326	141.066748398999	"24"	5790.748825188	5785.37871211	1.5	0.1
0.01	1	0.00107289900006435	1	84	NA	142.218508448999	0	0.26	1.76	1	141.299362745999	141.300435644999	"24"	5790.748825188	5785.37871211	1.5	0.1
0.01	1	0.00108290299976943	1	84	NA	142.218508448999	0	0.26	1.76	1	141.533031589	141.534114491999	"24"	5790.748825188	5785.37871211	1.5	0.1
0.01	1	0.450249958000313	2	84	NA	142.218508448999	0	0.26	1.76	1	141.766772243	142.217022201	"24"	5790.748825188	5785.37871211	1.5	0.1
0.01	1	0.410590761000094	1	22	150.749928523999	NA	1	0	1.76	1	144.254358374999	144.664949135999	"25"	5790.748825188	5785.37871211	1.5	0.1
0.01	1	0.00101197399999364	1	22	150.749928523999	NA	1	0	1.76	1	144.888687285999	144.889699259999	"25"	5790.748825188	5785.37871211	1.5	0.1
0.01	1	0.0302212679998775	1	22	150.749928523999	NA	1	0	1.76	1	145.122491962	145.15271323	"25"	5790.748825188	5785.37871211	1.5	0.1
0.01	1	0.00113004200011346	1	22	150.749928523999	NA	1	0	1.76	1	145.389577636	145.390707678	"25"	5790.748825188	5785.37871211	1.5	0.1
0.01	1	0.00107233299968357	1	22	150.749928523999	NA	1	0	1.76	1	145.623310116	145.624382448999	"25"	5790.748825188	5785.37871211	1.5	0.1
0.01	1	0.00102610799967806	1	22	150.749928523999	NA	1	0	1.76	1	145.857045281999	145.858071389999	"25"	5790.748825188	5785.37871211	1.5	0.1
0.01	1	0.00111239399939222	1	22	150.749928523999	NA	1	0	1.76	1	146.090663782	146.091776175999	"25"	5790.748825188	5785.37871211	1.5	0.1
0.01	1	0.188065330999962	1	22	150.749928523999	NA	1	0	1.76	1	146.324530759	146.51259609	"25"	5790.748825188	5785.37871211	1.5	0.1
0.01	1	0.0345167249997758	1	22	150.749928523999	NA	1	0	1.76	1	146.741847236	146.776363960999	"25"	5790.748825188	5785.37871211	1.5	0.1
0.01	1	0.247854480999194	1	22	150.749928523999	NA	1	0	1.76	1	147.008935758	147.256790238999	"25"	5790.748825188	5785.37871211	1.5	0.1
0.01	1	0.00107407799987413	1	22	150.749928523999	NA	1	0	1.76	1	147.493130033999	147.494204111999	"25"	5790.748825188	5785.37871211	1.5	0.1
0.01	1	0.00100189199929446	1	22	150.749928523999	NA	1	0	1.76	1	147.726784091	147.727785982999	"25"	5790.748825188	5785.37871211	1.5	0.1
0.01	1	0.160372844999983	1	22	150.749928523999	NA	1	0	1.76	1	147.960536146	148.120908991	"25"	5790.748825188	5785.37871211	1.5	0.1
0.01	1	0.00125159999970492	1	22	150.749928523999	NA	1	0	1.76	1	148.344550348	148.345801947999	"25"	5790.748825188	5785.37871211	1.5	0.1
0.01	1	0.00100288300018292	1	22	150.749928523999	NA	1	0	1.76	1	148.578237977999	148.579240861	"25"	5790.748825188	5785.37871211	1.5	0.1
0.01	1	0.172595951000403	1	22	150.749928523999	NA	1	0	1.76	1	148.812003945	148.984599896	"25"	5790.748825188	5785.37871211	1.5	0.1
0.01	1	0.012136479000219	1	22	150.749928523999	NA	1	0	1.76	1	149.212788286	149.224924765	"25"	5790.748825188	5785.37871211	1.5	0.1
0.01	1	0.0010799939991557	1	22	150.749928523999	NA	1	0	1.76	1	149.446419461	149.447499454999	"25"	5790.748825188	5785.37871211	1.5	0.1
0.01	1	0.00103991000014503	1	22	150.749928523999	NA	1	0	1.76	1	149.680111508	149.681151418	"25"	5790.748825188	5785.37871211	1.5	0.1
0.01	1	0.126901581999846	1	22	150.749928523999	NA	1	0	1.76	1	149.913814	150.040715581999	"25"	5790.748825188	5785.37871211	1.5	0.1
0.01	1	0.136581877000026	1	22	150.749928523999	NA	1	0	1.76	1	150.264375962	150.400957839	"25"	5790.748825188	5785.37871211	1.5	0.1
0.01	1	0.00115338200066617	1	22	150.749928523999	NA	1	0	1.76	1	150.631730906999	150.632884289	"25"	5790.748825188	5785.37871211	1.5	0.1
0.01	1	0.479563381999469	1	36	NA	159.994379094999	0	0.2	1.96	1	152.78542535	153.264988731999	"26"	5790.748825188	5785.37871211	1.5	0.1
0.01	1	0.0739610669998001	1	36	NA	159.994379094999	0	0.2	1.96	1	153.486627589	153.560588656	"26"	5790.748825188	5785.37871211	1.5	0.1
0.01	1	0.0947259690001374	1	36	NA	159.994379094999	0	0.2	1.96	1	153.787009113999	153.881735083	"26"	5790.748825188	5785.37871211	1.5	0.1
0.01	1	0.0874580539993985	1	36	NA	159.994379094999	0	0.2	1.96	1	154.120876315	154.208334368999	"26"	5790.748825188	5785.37871211	1.5	0.1
0.01	1	0.0827910260004501	1	36	NA	159.994379094999	0	0.2	1.96	1	154.438086663999	154.52087769	"26"	5790.748825188	5785.37871211	1.5	0.1
0.01	1	0.0930739129998983	1	36	NA	159.994379094999	0	0.2	1.96	1	154.755308115999	154.848382028999	"26"	5790.748825188	5785.37871211	1.5	0.1
0.01	1	0.0880644579992804	1	36	NA	159.994379094999	0	0.2	1.96	1	155.07256074	155.160625197999	"26"	5790.748825188	5785.37871211	1.5	0.1
0.01	1	0.098645738000414	1	36	NA	159.994379094999	0	0.2	1.96	1	155.389753257999	155.488398996	"26"	5790.748825188	5785.37871211	1.5	0.1
0.01	1	0.077279408999857	1	36	NA	159.994379094999	0	0.2	1.96	1	155.723699808999	155.800979217999	"26"	5790.748825188	5785.37871211	1.5	0.1
0.01	1	0.105104698999639	1	36	NA	159.994379094999	0	0.2	1.96	1	156.024043926	156.129148624999	"26"	5790.748825188	5785.37871211	1.5	0.1
0.01	1	0.0909150819998104	1	36	NA	159.994379094999	0	0.2	1.96	1	156.358000943	156.448916025	"26"	5790.748825188	5785.37871211	1.5	0.1
0.01	1	0.0617892489999576	1	36	NA	159.994379094999	0	0.2	1.96	1	156.675207382999	156.736996631999	"26"	5790.748825188	5785.37871211	1.5	0.1
0.01	1	0.0973905390001164	1	36	NA	159.994379094999	0	0.2	1.96	1	156.975743657	157.073134196	"26"	5790.748825188	5785.37871211	1.5	0.1
0.01	1	0.0754025520000141	1	36	NA	159.994379094999	0	0.2	1.96	1	157.309583396	157.384985948	"26"	5790.748825188	5785.37871211	1.5	0.1
0.01	1	0.102337909999733	1	36	NA	159.994379094999	0	0.2	1.96	1	157.610139597999	157.712477507999	"26"	5790.748825188	5785.37871211	1.5	0.1
0.01	1	0.137073252999471	1	36	NA	159.994379094999	0	0.2	1.96	1	157.944048576	158.081121828999	"26"	5790.748825188	5785.37871211	1.5	0.1
0.01	1	0.121423462000166	1	36	NA	159.994379094999	0	0.2	1.96	1	158.311224564	158.432648026	"26"	5790.748825188	5785.37871211	1.5	0.1
0.01	1	0.114877930000148	1	36	NA	159.994379094999	0	0.2	1.96	1	158.661889577999	158.776767507999	"26"	5790.748825188	5785.37871211	1.5	0.1
0.01	1	0.0998404480005775	1	36	NA	159.994379094999	0	0.2	1.96	1	159.012516291999	159.11235674	"26"	5790.748825188	5785.37871211	1.5	0.1
0.01	1	0.102425928999764	1	36	NA	159.994379094999	0	0.2	1.96	1	159.346420768999	159.448846697999	"26"	5790.748825188	5785.37871211	1.5	0.1
0.01	1	0.31261371599976	2	36	NA	159.994379094999	0	0.2	1.96	1	159.680262246	159.992875962	"26"	5790.748825188	5785.37871211	1.5	0.1
0.01	1	0.678881775999798	1	124	NA	163.818421856	0	0.04	2	1	162.034262108	162.713143884	"27"	5790.748825188	5785.37871211	1.5	0.1
0.01	1	0.00106901599974663	1	124	NA	163.818421856	0	0.04	2	1	162.952415616	162.953484631999	"27"	5790.748825188	5785.37871211	1.5	0.1
0.01	1	0.00106263799989392	1	124	NA	163.818421856	0	0.04	2	1	163.186159430999	163.187222068999	"27"	5790.748825188	5785.37871211	1.5	0.1
0.01	1	0.00476059500033443	1	124	NA	163.818421856	0	0.04	2	1	163.419859692	163.424620287	"27"	5790.748825188	5785.37871211	1.5	0.1
0.01	1	0.163270273000307	2	124	NA	163.818421856	0	0.04	2	1	163.653640039	163.816910312	"27"	5790.748825188	5785.37871211	1.5	0.1
0.01	1	0.511277577999863	1	13	169.800232148999	NA	1	0	2	1	165.857328657999	166.368606235999	"28"	5790.748825188	5785.37871211	1.5	0.1
0.01	1	0.00107034499978909	1	13	169.800232148999	NA	1	0	2	1	166.608587309	166.609657653999	"28"	5790.748825188	5785.37871211	1.5	0.1
0.01	1	0.0308410830002686	1	13	169.800232148999	NA	1	0	2	1	166.842331321999	166.873172404999	"28"	5790.748825188	5785.37871211	1.5	0.1
0.01	1	0.0192367589997957	1	13	169.800232148999	NA	1	0	2	1	167.109402239	167.128638998	"28"	5790.748825188	5785.37871211	1.5	0.1
0.01	1	0.00964182700045058	1	13	169.800232148999	NA	1	0	2	1	167.359878671999	167.369520499	"28"	5790.748825188	5785.37871211	1.5	0.1
0.01	1	0.0471935109999322	1	13	169.800232148999	NA	1	0	2	1	167.593598687	167.640792198	"28"	5790.748825188	5785.37871211	1.5	0.1
0.01	1	0.00130760599950008	1	13	169.800232148999	NA	1	0	2	1	167.877442352	167.878749957999	"28"	5790.748825188	5785.37871211	1.5	0.1
0.01	1	0.00132256999950187	1	13	169.800232148999	NA	1	0	2	1	168.111311506	168.112634075999	"28"	5790.748825188	5785.37871211	1.5	0.1
0.01	1	0.303535076999651	1	13	169.800232148999	NA	1	0	2	1	168.344797948	168.648333024999	"28"	5790.748825188	5785.37871211	1.5	0.1
0.01	1	0.00159842399989429	1	13	169.800232148999	NA	1	0	2	1	168.879120715999	168.880719139999	"28"	5790.748825188	5785.37871211	1.5	0.1
0.01	1	0.00110433800000465	1	13	169.800232148999	NA	1	0	2	1	169.112849298999	169.113953636999	"28"	5790.748825188	5785.37871211	1.5	0.1
0.01	1	0.102124467000067	1	13	169.800232148999	NA	1	0	2	1	169.346550462999	169.448674929999	"28"	5790.748825188	5785.37871211	1.5	0.1
0.01	1	0.00108419699972728	1	13	169.800232148999	NA	1	0	2	1	169.680458467999	169.681542664999	"28"	5790.748825188	5785.37871211	1.5	0.1
0.01	1	0.279164237999794	1	125	NA	175.80195495	0	0.1	2.1	1	171.834047359	172.113211596999	"29"	5790.748825188	5785.37871211	1.5	0.1
0.01	1	0.0822656190002817	1	125	NA	175.80195495	0	0.1	2.1	1	172.334824826999	172.417090446	"29"	5790.748825188	5785.37871211	1.5	0.1
0.01	1	0.13281809199998	1	125	NA	175.80195495	0	0.1	2.1	1	172.652091835999	172.784909927999	"29"	5790.748825188	5785.37871211	1.5	0.1
0.01	1	0.0929236120000496	1	125	NA	175.80195495	0	0.1	2.1	1	173.019457068	173.11238068	"29"	5790.748825188	5785.37871211	1.5	0.1
0.01	1	0.0956797529997857	1	125	NA	175.80195495	0	0.1	2.1	1	173.336637378	173.432317131	"29"	5790.748825188	5785.37871211	1.5	0.1
0.01	1	0.0905051319996346	1	125	NA	175.80195495	0	0.1	2.1	1	173.653839828	173.74434496	"29"	5790.748825188	5785.37871211	1.5	0.1
0.01	1	0.109970063000219	1	125	NA	175.80195495	0	0.1	2.1	1	173.970984932	174.080954995	"29"	5790.748825188	5785.37871211	1.5	0.1
0.01	1	0.0964235780002127	1	125	NA	175.80195495	0	0.1	2.1	1	174.304867817999	174.401291396	"29"	5790.748825188	5785.37871211	1.5	0.1
0.01	1	0.106839786999444	1	125	NA	175.80195495	0	0.1	2.1	1	174.622047659	174.728887445999	"29"	5790.748825188	5785.37871211	1.5	0.1
0.01	1	0.116742985999736	1	125	NA	175.80195495	0	0.1	2.1	1	174.955975272	175.072718257999	"29"	5790.748825188	5785.37871211	1.5	0.1
0.01	1	0.493887269999504	2	125	NA	175.80195495	0	0.1	2.1	1	175.306587552	175.800474821999	"29"	5790.748825188	5785.37871211	1.5	0.1
0.01	1	0.476214113999958	1	105	NA	181.866573822	0	0.1	2.2	1	177.860886668999	178.337100782999	"30"	5790.748825188	5785.37871211	1.5	0.1
0.01	1	0.126855496999269	1	105	NA	181.866573822	0	0.1	2.2	1	178.562048811	178.688904307999	"30"	5790.748825188	5785.37871211	1.5	0.1
0.01	1	0.127121169999555	1	105	NA	181.866573822	0	0.1	2.2	1	178.929319307	179.056440476999	"30"	5790.748825188	5785.37871211	1.5	0.1
0.01	1	0.113217441000415	1	105	NA	181.866573822	0	0.1	2.2	1	179.279860729999	179.393078171	"30"	5790.748825188	5785.37871211	1.5	0.1
0.01	1	0.090704561000166	1	105	NA	181.866573822	0	0.1	2.2	1	179.630419161	179.721123722	"30"	5790.748825188	5785.37871211	1.5	0.1
0.01	1	0.125116063999485	1	105	NA	181.866573822	0	0.1	2.2	1	179.947806704	180.072922767999	"30"	5790.748825188	5785.37871211	1.5	0.1
0.01	1	0.11889533700014	1	105	NA	181.866573822	0	0.1	2.2	1	180.298306498999	180.417201836	"30"	5790.748825188	5785.37871211	1.5	0.1
0.01	1	0.0958641910001461	1	105	NA	181.866573822	0	0.1	2.2	1	180.648909928	180.744774119	"30"	5790.748825188	5785.37871211	1.5	0.1
0.01	1	0.122607581999546	1	105	NA	181.866573822	0	0.1	2.2	1	180.966063952	181.088671533999	"30"	5790.748825188	5785.37871211	1.5	0.1
0.01	1	0.100168648000363	1	105	NA	181.866573822	0	0.1	2.2	1	181.316643183	181.416811831	"30"	5790.748825188	5785.37871211	1.5	0.1
0.01	1	0.214505216999896	2	105	NA	181.866573822	0	0.1	2.2	1	181.650574759	181.865079976	"30"	5790.748825188	5785.37871211	1.5	0.1
