"payoff.level"	"balloon"	"rt"	"resp"	"explode.trial"	"explode.time"	"finish.time"	"exploded"	"trial.total"	"cumulative.total"	"finished"	"trial.start"	"trial.end"	"trial.num"	"secs"	"start.time"	"iti"	"isi"
0.01	1	2.34441398900026	1	64	NA	17.240600094	0	0.29	0.29	1	0.0157382789998337	2.36015226800009	"1"	3655.436625775	3652.520915713	1.5	0.1
0.01	1	0.801980017000005	1	64	NA	17.240600094	0	0.29	0.29	1	2.65355628599991	3.45553630299992	"1"	3655.436625775	3652.520915713	1.5	0.1
0.01	1	0.751465576000101	1	64	NA	17.240600094	0	0.29	0.29	1	3.68863069000008	4.44009626600018	"1"	3655.436625775	3652.520915713	1.5	0.1
0.01	1	1.54063618999999	1	64	NA	17.240600094	0	0.29	0.29	1	4.67367125300007	6.21430744300005	"1"	3655.436625775	3652.520915713	1.5	0.1
0.01	1	0.652057556000273	1	64	NA	17.240600094	0	0.29	0.29	1	6.4434061349998	7.09546369100008	"1"	3655.436625775	3652.520915713	1.5	0.1
0.01	1	1.1741366909996	1	64	NA	17.240600094	0	0.29	0.29	1	7.32824804500024	8.50238473599984	"1"	3655.436625775	3652.520915713	1.5	0.1
0.01	1	0.587647482000193	1	64	NA	17.240600094	0	0.29	0.29	1	8.73064441299994	9.31829189500013	"1"	3655.436625775	3652.520915713	1.5	0.1
0.01	1	0.45004836499993	1	64	NA	17.240600094	0	0.29	0.29	1	9.54865872800019	9.99870709300012	"1"	3655.436625775	3652.520915713	1.5	0.1
0.01	1	0.333836557999803	1	64	NA	17.240600094	0	0.29	0.29	1	10.2330240900001	10.5668606479999	"1"	3655.436625775	3652.520915713	1.5	0.1
0.01	1	0.302877424000144	1	64	NA	17.240600094	0	0.29	0.29	1	10.800633933	11.1035113570001	"1"	3655.436625775	3652.520915713	1.5	0.1
0.01	1	0.103916378999656	1	64	NA	17.240600094	0	0.29	0.29	1	11.3348631980002	11.4387795769999	"1"	3655.436625775	3652.520915713	1.5	0.1
0.01	1	0.00385476500014192	1	64	NA	17.240600094	0	0.29	0.29	1	11.6687788029999	11.672633568	"1"	3655.436625775	3652.520915713	1.5	0.1
0.01	1	0.0323331199997483	1	64	NA	17.240600094	0	0.29	0.29	1	11.9024909280001	11.9348240479999	"1"	3655.436625775	3652.520915713	1.5	0.1
0.01	1	0.00377404800019576	1	64	NA	17.240600094	0	0.29	0.29	1	12.16961524	12.1733892880002	"1"	3655.436625775	3652.520915713	1.5	0.1
0.01	1	0.0844797980003023	1	64	NA	17.240600094	0	0.29	0.29	1	12.4033291149999	12.4878089130002	"1"	3655.436625775	3652.520915713	1.5	0.1
0.01	1	0.0709187889997338	1	64	NA	17.240600094	0	0.29	0.29	1	12.7205119380001	12.7914307269998	"1"	3655.436625775	3652.520915713	1.5	0.1
0.01	1	0.0268055569999888	1	64	NA	17.240600094	0	0.29	0.29	1	13.021143678	13.047949235	"1"	3655.436625775	3652.520915713	1.5	0.1
0.01	1	0.0230672699999559	1	64	NA	17.240600094	0	0.29	0.29	1	13.2882215180002	13.3112887880002	"1"	3655.436625775	3652.520915713	1.5	0.1
0.01	1	0.069226238000283	1	64	NA	17.240600094	0	0.29	0.29	1	13.5387615079999	13.6079877460002	"1"	3655.436625775	3652.520915713	1.5	0.1
0.01	1	0.143041992000235	1	64	NA	17.240600094	0	0.29	0.29	1	13.839136178	13.9821781700002	"1"	3655.436625775	3652.520915713	1.5	0.1
0.01	1	0.0806758300000183	1	64	NA	17.240600094	0	0.29	0.29	1	14.2064859830002	14.2871618130002	"1"	3655.436625775	3652.520915713	1.5	0.1
0.01	1	0.100446545000068	1	64	NA	17.240600094	0	0.29	0.29	1	14.5236983750001	14.6241449200002	"1"	3655.436625775	3652.520915713	1.5	0.1
0.01	1	0.0770757939999385	1	64	NA	17.240600094	0	0.29	0.29	1	14.857574058	14.9346498519999	"1"	3655.436625775	3652.520915713	1.5	0.1
0.01	1	0.0244763169998805	1	64	NA	17.240600094	0	0.29	0.29	1	15.1580545030001	15.18253082	"1"	3655.436625775	3652.520915713	1.5	0.1
0.01	1	0.00695560899976044	1	64	NA	17.240600094	0	0.29	0.29	1	15.4084567350001	15.4154123439998	"1"	3655.436625775	3652.520915713	1.5	0.1
0.01	1	0.00347613100029776	1	64	NA	17.240600094	0	0.29	0.29	1	15.6421780629998	15.6456541940001	"1"	3655.436625775	3652.520915713	1.5	0.1
0.01	1	0.00389782100000957	1	64	NA	17.240600094	0	0.29	0.29	1	15.8758710329998	15.8797688539998	"1"	3655.436625775	3652.520915713	1.5	0.1
0.01	1	0.0422746179997375	1	64	NA	17.240600094	0	0.29	0.29	1	16.1096263180002	16.1519009359999	"1"	3655.436625775	3652.520915713	1.5	0.1
0.01	1	0.0865762430003088	1	64	NA	17.240600094	0	0.29	0.29	1	16.3766758229999	16.4632520660002	"1"	3655.436625775	3652.520915713	1.5	0.1
0.01	1	0.545043519000046	2	64	NA	17.240600094	0	0.29	0.29	1	16.6939327280002	17.2389762470002	"1"	3655.436625775	3652.520915713	1.5	0.1
0.01	1	1.31111140799976	1	102	NA	32.1520446439999	0	0.32	0.61	1	19.2649708250001	20.5760822329999	"2"	3655.436625775	3652.520915713	1.5	0.1
0.01	1	0.33403546999989	1	102	NA	32.1520446439999	0	0.32	0.61	1	20.8009368630001	21.134972333	"2"	3655.436625775	3652.520915713	1.5	0.1
0.01	1	0.303223190000153	1	102	NA	32.1520446439999	0	0.32	0.61	1	21.368551993	21.6717751830001	"2"	3655.436625775	3652.520915713	1.5	0.1
0.01	1	0.168108813000345	1	102	NA	32.1520446439999	0	0.32	0.61	1	21.9027557469999	22.0708645600002	"2"	3655.436625775	3652.520915713	1.5	0.1
0.01	1	0.0798062429998936	1	102	NA	32.1520446439999	0	0.32	0.61	1	22.3034143680002	22.3832206110001	"2"	3655.436625775	3652.520915713	1.5	0.1
0.01	1	0.00400888700005453	1	102	NA	32.1520446439999	0	0.32	0.61	1	22.620496643	22.6245055300001	"2"	3655.436625775	3652.520915713	1.5	0.1
0.01	1	0.00331814599985591	1	102	NA	32.1520446439999	0	0.32	0.61	1	22.8543528820001	22.8576710279999	"2"	3655.436625775	3652.520915713	1.5	0.1
0.01	1	0.00462322200019116	1	102	NA	32.1520446439999	0	0.32	0.61	1	23.0879360929998	23.092559315	"2"	3655.436625775	3652.520915713	1.5	0.1
0.01	1	0.0045661850003853	1	102	NA	32.1520446439999	0	0.32	0.61	1	23.3216814379998	23.3262476230002	"2"	3655.436625775	3652.520915713	1.5	0.1
0.01	1	0.00392248499974812	1	102	NA	32.1520446439999	0	0.32	0.61	1	23.5555633150002	23.5594857999999	"2"	3655.436625775	3652.520915713	1.5	0.1
0.01	1	0.114159014000052	1	102	NA	32.1520446439999	0	0.32	0.61	1	23.7891971280001	23.9033561420001	"2"	3655.436625775	3652.520915713	1.5	0.1
0.01	1	0.00364398700003221	1	102	NA	32.1520446439999	0	0.32	0.61	1	24.1397954929998	24.1434394799999	"2"	3655.436625775	3652.520915713	1.5	0.1
0.01	1	0.00382431900015945	1	102	NA	32.1520446439999	0	0.32	0.61	1	24.373551273	24.3773755920001	"2"	3655.436625775	3652.520915713	1.5	0.1
0.01	1	0.00388463799981764	1	102	NA	32.1520446439999	0	0.32	0.61	1	24.60727675	24.6111613879998	"2"	3655.436625775	3652.520915713	1.5	0.1
0.01	1	0.0536054300000615	1	102	NA	32.1520446439999	0	0.32	0.61	1	24.8408569849998	24.8944624149999	"2"	3655.436625775	3652.520915713	1.5	0.1
0.01	1	0.00467361700020774	1	102	NA	32.1520446439999	0	0.32	0.61	1	25.124938253	25.1296118700002	"2"	3655.436625775	3652.520915713	1.5	0.1
0.01	1	0.00390315899994675	1	102	NA	32.1520446439999	0	0.32	0.61	1	25.3584836350001	25.362386794	"2"	3655.436625775	3652.520915713	1.5	0.1
0.01	1	0.118935779999902	1	102	NA	32.1520446439999	0	0.32	0.61	1	25.5922250230001	25.711160803	"2"	3655.436625775	3652.520915713	1.5	0.1
0.01	1	0.0317909000000327	1	102	NA	32.1520446439999	0	0.32	0.61	1	25.9429180729999	25.9747089729999	"2"	3655.436625775	3652.520915713	1.5	0.1
0.01	1	0.0134272780001083	1	102	NA	32.1520446439999	0	0.32	0.61	1	26.2099489249999	26.223376203	"2"	3655.436625775	3652.520915713	1.5	0.1
0.01	1	0.0422775160000128	1	102	NA	32.1520446439999	0	0.32	0.61	1	26.4603623349999	26.5026398509999	"2"	3655.436625775	3652.520915713	1.5	0.1
0.01	1	0.0155789000000368	1	102	NA	32.1520446439999	0	0.32	0.61	1	26.7275128649999	26.7430917649999	"2"	3655.436625775	3652.520915713	1.5	0.1
0.01	1	0.0214914409998528	1	102	NA	32.1520446439999	0	0.32	0.61	1	26.9779854230001	26.9994768639999	"2"	3655.436625775	3652.520915713	1.5	0.1
0.01	1	0.00358637099998305	1	102	NA	32.1520446439999	0	0.32	0.61	1	27.228377855	27.2319642259999	"2"	3655.436625775	3652.520915713	1.5	0.1
0.01	1	1.25726006199966	1	102	NA	32.1520446439999	0	0.32	0.61	1	27.4620600950002	28.7193201569999	"2"	3655.436625775	3652.520915713	1.5	0.1
0.01	1	0.0046717099999114	1	102	NA	32.1520446439999	0	0.32	0.61	1	28.9479118680001	28.952583578	"2"	3655.436625775	3652.520915713	1.5	0.1
0.01	1	0.432696292999935	1	102	NA	32.1520446439999	0	0.32	0.61	1	29.18170547	29.6144017629999	"2"	3655.436625775	3652.520915713	1.5	0.1
0.01	1	0.0038697489999322	1	102	NA	32.1520446439999	0	0.32	0.61	1	29.849346425	29.853216174	"2"	3655.436625775	3652.520915713	1.5	0.1
0.01	1	0.404419010999845	1	102	NA	32.1520446439999	0	0.32	0.61	1	30.0831701030002	30.487589114	"2"	3655.436625775	3652.520915713	1.5	0.1
0.01	1	0.00388782500021989	1	102	NA	32.1520446439999	0	0.32	0.61	1	30.717528913	30.7214167380002	"2"	3655.436625775	3652.520915713	1.5	0.1
0.01	1	0.271737932000178	1	102	NA	32.1520446439999	0	0.32	0.61	1	30.9512611149999	31.222999047	"2"	3655.436625775	3652.520915713	1.5	0.1
0.01	1	0.00397694599996612	1	102	NA	32.1520446439999	0	0.32	0.61	1	31.4521153179999	31.4560922639998	"2"	3655.436625775	3652.520915713	1.5	0.1
0.01	1	0.464567569999872	2	102	NA	32.1520446439999	0	0.32	0.61	1	31.685790993	32.1503585629998	"2"	3655.436625775	3652.520915713	1.5	0.1
0.01	1	1.42372592500033	1	97	NA	41.8335554830001	0	0.15	0.76	1	34.2066979629999	35.6304238880002	"3"	3655.436625775	3652.520915713	1.5	0.1
0.01	1	0.388045980000243	1	97	NA	41.8335554830001	0	0.15	0.76	1	35.8595707099998	36.2476166900001	"3"	3655.436625775	3652.520915713	1.5	0.1
0.01	1	0.50565724299986	1	97	NA	41.8335554830001	0	0.15	0.76	1	36.4773248330002	36.9829820760001	"3"	3655.436625775	3652.520915713	1.5	0.1
0.01	1	0.31625136599996	1	97	NA	41.8335554830001	0	0.15	0.76	1	37.2118174100001	37.5280687760001	"3"	3655.436625775	3652.520915713	1.5	0.1
0.01	1	0.0995332809998217	1	97	NA	41.8335554830001	0	0.15	0.76	1	37.7626457780002	37.862179059	"3"	3655.436625775	3652.520915713	1.5	0.1
0.01	1	0.134847812999851	1	97	NA	41.8335554830001	0	0.15	0.76	1	38.0966249930002	38.2314728060001	"3"	3655.436625775	3652.520915713	1.5	0.1
0.01	1	0.0942798779997247	1	97	NA	41.8335554830001	0	0.15	0.76	1	38.4639770580002	38.5582569359999	"3"	3655.436625775	3652.520915713	1.5	0.1
0.01	1	0.106667399000344	1	97	NA	41.8335554830001	0	0.15	0.76	1	38.7809963129998	38.8876637120002	"3"	3655.436625775	3652.520915713	1.5	0.1
0.01	1	0.0769610709999142	1	97	NA	41.8335554830001	0	0.15	0.76	1	39.1149909350002	39.1919520060001	"3"	3655.436625775	3652.520915713	1.5	0.1
0.01	1	0.054996385999857	1	97	NA	41.8335554830001	0	0.15	0.76	1	39.4321593700001	39.487155756	"3"	3655.436625775	3652.520915713	1.5	0.1
0.01	1	0.0359563609999896	1	97	NA	41.8335554830001	0	0.15	0.76	1	39.716032843	39.751989204	"3"	3655.436625775	3652.520915713	1.5	0.1
0.01	1	0.0110564679998788	1	97	NA	41.8335554830001	0	0.15	0.76	1	39.983132978	39.9941894459998	"3"	3655.436625775	3652.520915713	1.5	0.1
0.01	1	0.00273489999972298	1	97	NA	41.8335554830001	0	0.15	0.76	1	40.2168324220002	40.2195673219999	"3"	3655.436625775	3652.520915713	1.5	0.1
0.01	1	0.00391870900011781	1	97	NA	41.8335554830001	0	0.15	0.76	1	40.450526915	40.4544456240001	"3"	3655.436625775	3652.520915713	1.5	0.1
0.01	1	0.0273716149999927	1	97	NA	41.8335554830001	0	0.15	0.76	1	40.6843633080002	40.7117349230002	"3"	3655.436625775	3652.520915713	1.5	0.1
0.01	1	0.897124752000309	2	97	NA	41.8335554830001	0	0.15	0.76	1	40.9347639299999	41.8318886820002	"3"	3655.436625775	3652.520915713	1.5	0.1
0.01	1	0.773306011999921	1	51	NA	55.2083518039999	0	0.38	1.14	1	43.8896177850002	44.6629237970001	"4"	3655.436625775	3652.520915713	1.5	0.1
0.01	1	0.0999798960001499	1	51	NA	55.2083518039999	0	0.38	1.14	1	44.8913871750001	44.9913670710002	"4"	3655.436625775	3652.520915713	1.5	0.1
0.01	1	0.0865707460002341	1	51	NA	55.2083518039999	0	0.38	1.14	1	45.22530977	45.3118805160002	"4"	3655.436625775	3652.520915713	1.5	0.1
0.01	1	0.0497414159999607	1	51	NA	55.2083518039999	0	0.38	1.14	1	45.5423935980002	45.5921350140002	"4"	3655.436625775	3652.520915713	1.5	0.1
0.01	1	0.00361396600010266	1	51	NA	55.2083518039999	0	0.38	1.14	1	45.8263319299999	45.829945896	"4"	3655.436625775	3652.520915713	1.5	0.1
0.01	1	0.0118485889997828	1	51	NA	55.2083518039999	0	0.38	1.14	1	46.0600738130001	46.0719224019999	"4"	3655.436625775	3652.520915713	1.5	0.1
0.01	1	0.00377162999984648	1	51	NA	55.2083518039999	0	0.38	1.14	1	46.3103804500001	46.31415208	"4"	3655.436625775	3652.520915713	1.5	0.1
0.01	1	0.00350944699994216	1	51	NA	55.2083518039999	0	0.38	1.14	1	46.5442657130002	46.5477751600001	"4"	3655.436625775	3652.520915713	1.5	0.1
0.01	1	0.00376064100009899	1	51	NA	55.2083518039999	0	0.38	1.14	1	46.7778276929998	46.7815883339999	"4"	3655.436625775	3652.520915713	1.5	0.1
0.01	1	0.00207444899979237	1	51	NA	55.2083518039999	0	0.38	1.14	1	47.0116375530001	47.0137120019999	"4"	3655.436625775	3652.520915713	1.5	0.1
0.01	1	0.00436288699984289	1	51	NA	55.2083518039999	0	0.38	1.14	1	47.2453623380002	47.249725225	"4"	3655.436625775	3652.520915713	1.5	0.1
0.01	1	0.00202971499993509	1	51	NA	55.2083518039999	0	0.38	1.14	1	47.479032144	47.481061859	"4"	3655.436625775	3652.520915713	1.5	0.1
0.01	1	0.00467774500020823	1	51	NA	55.2083518039999	0	0.38	1.14	1	47.7128715429999	47.7175492880001	"4"	3655.436625775	3652.520915713	1.5	0.1
0.01	1	0.00460715700000947	1	51	NA	55.2083518039999	0	0.38	1.14	1	47.9465515880001	47.9511587450002	"4"	3655.436625775	3652.520915713	1.5	0.1
0.01	1	0.00383181899996998	1	51	NA	55.2083518039999	0	0.38	1.14	1	48.180219243	48.184051062	"4"	3655.436625775	3652.520915713	1.5	0.1
0.01	1	0.00389092099976551	1	51	NA	55.2083518039999	0	0.38	1.14	1	48.413988235	48.4178791559998	"4"	3655.436625775	3652.520915713	1.5	0.1
0.01	1	0.0039045729999998	1	51	NA	55.2083518039999	0	0.38	1.14	1	48.6476828129998	48.6515873859998	"4"	3655.436625775	3652.520915713	1.5	0.1
0.01	1	0.00204909200010661	1	51	NA	55.2083518039999	0	0.38	1.14	1	48.8814680159999	48.883517108	"4"	3655.436625775	3652.520915713	1.5	0.1
0.01	1	0.00724020400002701	1	51	NA	55.2083518039999	0	0.38	1.14	1	49.1152204079999	49.1224606119999	"4"	3655.436625775	3652.520915713	1.5	0.1
0.01	1	0.00468748000002961	1	51	NA	55.2083518039999	0	0.38	1.14	1	49.3489123630002	49.3535998430002	"4"	3655.436625775	3652.520915713	1.5	0.1
0.01	1	0.0169258260002607	1	51	NA	55.2083518039999	0	0.38	1.14	1	49.5826051099998	49.5995309360001	"4"	3655.436625775	3652.520915713	1.5	0.1
0.01	1	0.00349363700024696	1	51	NA	55.2083518039999	0	0.38	1.14	1	49.8330301129999	49.8365237500002	"4"	3655.436625775	3652.520915713	1.5	0.1
0.01	1	0.00717832100008309	1	51	NA	55.2083518039999	0	0.38	1.14	1	50.0667513849999	50.0739297059999	"4"	3655.436625775	3652.520915713	1.5	0.1
0.01	1	0.00207114300019384	1	51	NA	55.2083518039999	0	0.38	1.14	1	50.300465625	50.3025367680002	"4"	3655.436625775	3652.520915713	1.5	0.1
0.01	1	0.00330193999980111	1	51	NA	55.2083518039999	0	0.38	1.14	1	50.5341371180002	50.537439058	"4"	3655.436625775	3652.520915713	1.5	0.1
0.01	1	0.00206990200013024	1	51	NA	55.2083518039999	0	0.38	1.14	1	50.7679026999999	50.7699726020001	"4"	3655.436625775	3652.520915713	1.5	0.1
0.01	1	0.00209829799996442	1	51	NA	55.2083518039999	0	0.38	1.14	1	51.0016460950001	51.003744393	"4"	3655.436625775	3652.520915713	1.5	0.1
0.01	1	0.00399207000009483	1	51	NA	55.2083518039999	0	0.38	1.14	1	51.235411058	51.239403128	"4"	3655.436625775	3652.520915713	1.5	0.1
0.01	1	0.113400245000321	1	51	NA	55.2083518039999	0	0.38	1.14	1	51.4690502879998	51.5824505330002	"4"	3655.436625775	3652.520915713	1.5	0.1
0.01	1	0.00222247100009554	1	51	NA	55.2083518039999	0	0.38	1.14	1	51.819690755	51.8219132260001	"4"	3655.436625775	3652.520915713	1.5	0.1
0.01	1	0.129060672999913	1	51	NA	55.2083518039999	0	0.38	1.14	1	52.053496124	52.182556797	"4"	3655.436625775	3652.520915713	1.5	0.1
0.01	1	0.0029846060001546	1	51	NA	55.2083518039999	0	0.38	1.14	1	52.420616638	52.4236012440001	"4"	3655.436625775	3652.520915713	1.5	0.1
0.01	1	0.00208861999999499	1	51	NA	55.2083518039999	0	0.38	1.14	1	52.6544840870001	52.6565727070001	"4"	3655.436625775	3652.520915713	1.5	0.1
0.01	1	0.00377080699990984	1	51	NA	55.2083518039999	0	0.38	1.14	1	52.8880987930002	52.8918696000001	"4"	3655.436625775	3652.520915713	1.5	0.1
0.01	1	0.0136544940000931	1	51	NA	55.2083518039999	0	0.38	1.14	1	53.1218336249999	53.135488119	"4"	3655.436625775	3652.520915713	1.5	0.1
0.01	1	0.00246028999981718	1	51	NA	55.2083518039999	0	0.38	1.14	1	53.3723012260002	53.374761516	"4"	3655.436625775	3652.520915713	1.5	0.1
0.01	1	0.0112978729998758	1	51	NA	55.2083518039999	0	0.38	1.14	1	53.606076903	53.6173747759999	"4"	3655.436625775	3652.520915713	1.5	0.1
0.01	1	0.015478814999824	1	51	NA	55.2083518039999	0	0.38	1.14	1	53.8396629180002	53.855141733	"4"	3655.436625775	3652.520915713	1.5	0.1
0.01	1	1.11659128800011	2	51	NA	55.2083518039999	0	0.38	1.14	1	54.0902083380001	55.2067996260002	"4"	3655.436625775	3652.520915713	1.5	0.1
0.01	1	0.544205553000211	1	116	NA	67.6719265050001	0	0.3	1.44	1	57.2622440549999	57.8064496080001	"5"	3655.436625775	3652.520915713	1.5	0.1
0.01	1	0.00210098600018682	1	116	NA	67.6719265050001	0	0.3	1.44	1	58.0468456459998	58.048946632	"5"	3655.436625775	3652.520915713	1.5	0.1
0.01	1	0.00210507600013443	1	116	NA	67.6719265050001	0	0.3	1.44	1	58.2804639020001	58.2825689780002	"5"	3655.436625775	3652.520915713	1.5	0.1
0.01	1	0.0039195950002977	1	116	NA	67.6719265050001	0	0.3	1.44	1	58.5142830929999	58.5182026880002	"5"	3655.436625775	3652.520915713	1.5	0.1
0.01	1	0.363978048999797	1	116	NA	67.6719265050001	0	0.3	1.44	1	58.7480436380001	59.1120216869999	"5"	3655.436625775	3652.520915713	1.5	0.1
0.01	1	0.114644072999909	1	116	NA	67.6719265050001	0	0.3	1.44	1	59.3490232230001	59.463667296	"5"	3655.436625775	3652.520915713	1.5	0.1
0.01	1	0.0518705350000346	1	116	NA	67.6719265050001	0	0.3	1.44	1	59.699693603	59.751564138	"5"	3655.436625775	3652.520915713	1.5	0.1
0.01	1	0.0567974810001033	1	116	NA	67.6719265050001	0	0.3	1.44	1	59.9834151949999	60.040212676	"5"	3655.436625775	3652.520915713	1.5	0.1
0.01	1	1.16478059500014	1	116	NA	67.6719265050001	0	0.3	1.44	1	60.2673440029998	61.432124598	"5"	3655.436625775	3652.520915713	1.5	0.1
0.01	1	0.0574618679997911	1	116	NA	67.6719265050001	0	0.3	1.44	1	61.6696005950002	61.727062463	"5"	3655.436625775	3652.520915713	1.5	0.1
0.01	1	0.0388477340002282	1	116	NA	67.6719265050001	0	0.3	1.44	1	61.953374017	61.9922217510002	"5"	3655.436625775	3652.520915713	1.5	0.1
0.01	1	0.0426158899999791	1	116	NA	67.6719265050001	0	0.3	1.44	1	62.2205310429999	62.2631469329999	"5"	3655.436625775	3652.520915713	1.5	0.1
0.01	1	0.0479936330002602	1	116	NA	67.6719265050001	0	0.3	1.44	1	62.487586795	62.5355804280002	"5"	3655.436625775	3652.520915713	1.5	0.1
0.01	1	0.0432858290000695	1	116	NA	67.6719265050001	0	0.3	1.44	1	62.771481533	62.8147673620001	"5"	3655.436625775	3652.520915713	1.5	0.1
0.01	1	0.0413266100003966	1	116	NA	67.6719265050001	0	0.3	1.44	1	63.0385416529998	63.0798682630002	"5"	3655.436625775	3652.520915713	1.5	0.1
0.01	1	0.0454318699999021	1	116	NA	67.6719265050001	0	0.3	1.44	1	63.3056319930001	63.351063863	"5"	3655.436625775	3652.520915713	1.5	0.1
0.01	1	0.0253740040002413	1	116	NA	67.6719265050001	0	0.3	1.44	1	63.5894993279999	63.6148733320001	"5"	3655.436625775	3652.520915713	1.5	0.1
0.01	1	0.0474504699996032	1	116	NA	67.6719265050001	0	0.3	1.44	1	63.8400516780002	63.8875021479998	"5"	3655.436625775	3652.520915713	1.5	0.1
0.01	1	0.0592860790002305	1	116	NA	67.6719265050001	0	0.3	1.44	1	64.123859888	64.1831459670002	"5"	3655.436625775	3652.520915713	1.5	0.1
0.01	1	0.0477018639999187	1	116	NA	67.6719265050001	0	0.3	1.44	1	64.4076179560002	64.4553198200001	"5"	3655.436625775	3652.520915713	1.5	0.1
0.01	1	0.0434453279999616	1	116	NA	67.6719265050001	0	0.3	1.44	1	64.6914131680001	64.734858496	"5"	3655.436625775	3652.520915713	1.5	0.1
0.01	1	0.0176476909996381	1	116	NA	67.6719265050001	0	0.3	1.44	1	64.9585560730002	64.9762037639998	"5"	3655.436625775	3652.520915713	1.5	0.1
0.01	1	0.0139616159999605	1	116	NA	67.6719265050001	0	0.3	1.44	1	65.2089044929999	65.2228661089998	"5"	3655.436625775	3652.520915713	1.5	0.1
0.01	1	0.0128677460002109	1	116	NA	67.6719265050001	0	0.3	1.44	1	65.4592830699999	65.4721508160001	"5"	3655.436625775	3652.520915713	1.5	0.1
0.01	1	0.0405378440000277	1	116	NA	67.6719265050001	0	0.3	1.44	1	65.7097088330001	65.7502466770002	"5"	3655.436625775	3652.520915713	1.5	0.1
0.01	1	0.030777887000113	1	116	NA	67.6719265050001	0	0.3	1.44	1	65.976865178	66.0076430650001	"5"	3655.436625775	3652.520915713	1.5	0.1
0.01	1	0.028261606000342	1	116	NA	67.6719265050001	0	0.3	1.44	1	66.2439974049998	66.2722590110002	"5"	3655.436625775	3652.520915713	1.5	0.1
0.01	1	0.00256517199977679	1	116	NA	67.6719265050001	0	0.3	1.44	1	66.4943750000002	66.496940172	"5"	3655.436625775	3652.520915713	1.5	0.1
0.01	1	0.00777847800009113	1	116	NA	67.6719265050001	0	0.3	1.44	1	66.7280848800001	66.7358633580002	"5"	3655.436625775	3652.520915713	1.5	0.1
0.01	1	0.0291000990000612	1	116	NA	67.6719265050001	0	0.3	1.44	1	66.9618038379999	66.990903937	"5"	3655.436625775	3652.520915713	1.5	0.1
0.01	1	0.441463248000218	2	116	NA	67.6719265050001	0	0.3	1.44	1	67.2288762749999	67.6703395230002	"5"	3655.436625775	3652.520915713	1.5	0.1
0.01	1	0.131760462999864	1	118	NA	71.7120782219999	0	0.05	1.49	1	69.7164717380001	69.848232201	"6"	3655.436625775	3652.520915713	1.5	0.1
0.01	1	0.123704190999888	1	118	NA	71.7120782219999	0	0.05	1.49	1	70.083779865	70.2074840559999	"6"	3655.436625775	3652.520915713	1.5	0.1
0.01	1	0.0773552289997497	1	118	NA	71.7120782219999	0	0.05	1.49	1	70.4343381940002	70.511693423	"6"	3655.436625775	3652.520915713	1.5	0.1
0.01	1	0.0643076940000356	1	118	NA	71.7120782219999	0	0.05	1.49	1	70.7347588130001	70.7990665070001	"6"	3655.436625775	3652.520915713	1.5	0.1
0.01	1	0.0349143469998126	1	118	NA	71.7120782219999	0	0.05	1.49	1	71.0354795980002	71.070393945	"6"	3655.436625775	3652.520915713	1.5	0.1
0.01	1	0.40797879899992	2	118	NA	71.7120782219999	0	0.05	1.49	1	71.3025179780002	71.7104967770001	"6"	3655.436625775	3652.520915713	1.5	0.1
0.01	1	0.00314719799962404	1	87	NA	85.6090033589999	0	0.44	1.93	1	73.7565668840002	73.7597140819998	"7"	3655.436625775	3652.520915713	1.5	0.1
0.01	1	0.0569055460000527	1	87	NA	85.6090033589999	0	0.44	1.93	1	73.9904330909999	74.0473386369999	"7"	3655.436625775	3652.520915713	1.5	0.1
0.01	1	0.0121568599997772	1	87	NA	85.6090033589999	0	0.44	1.93	1	74.2742149830001	74.2863718429999	"7"	3655.436625775	3652.520915713	1.5	0.1
0.01	1	0.0104191189998346	1	87	NA	85.6090033589999	0	0.44	1.93	1	74.5245324840002	74.5349516030001	"7"	3655.436625775	3652.520915713	1.5	0.1
0.01	1	0.0326514580001458	1	87	NA	85.6090033589999	0	0.44	1.93	1	74.7582395549998	74.790891013	"7"	3655.436625775	3652.520915713	1.5	0.1
0.01	1	0.0142112200001066	1	87	NA	85.6090033589999	0	0.44	1.93	1	75.0254222849999	75.039633505	"7"	3655.436625775	3652.520915713	1.5	0.1
0.01	1	0.00209570399965742	1	87	NA	85.6090033589999	0	0.44	1.93	1	75.2758535930002	75.2779492969999	"7"	3655.436625775	3652.520915713	1.5	0.1
0.01	1	0.00216418500031068	1	87	NA	85.6090033589999	0	0.44	1.93	1	75.5095618979999	75.5117260830002	"7"	3655.436625775	3652.520915713	1.5	0.1
0.01	1	0.00455855199970756	1	87	NA	85.6090033589999	0	0.44	1.93	1	75.7432683030001	75.7478268549999	"7"	3655.436625775	3652.520915713	1.5	0.1
0.01	1	0.00207922000026883	1	87	NA	85.6090033589999	0	0.44	1.93	1	75.9769930259999	75.9790722460002	"7"	3655.436625775	3652.520915713	1.5	0.1
0.01	1	0.00202004499988107	1	87	NA	85.6090033589999	0	0.44	1.93	1	76.2108117050002	76.2128317500001	"7"	3655.436625775	3652.520915713	1.5	0.1
0.01	1	0.00396686500016585	1	87	NA	85.6090033589999	0	0.44	1.93	1	76.4444737829999	76.4484406480001	"7"	3655.436625775	3652.520915713	1.5	0.1
0.01	1	0.00398674000007304	1	87	NA	85.6090033589999	0	0.44	1.93	1	76.6782315380001	76.6822182780002	"7"	3655.436625775	3652.520915713	1.5	0.1
0.01	1	0.00374048899993795	1	87	NA	85.6090033589999	0	0.44	1.93	1	76.911885253	76.915625742	"7"	3655.436625775	3652.520915713	1.5	0.1
0.01	1	0.00457135200031189	1	87	NA	85.6090033589999	0	0.44	1.93	1	77.1457605129999	77.1503318650002	"7"	3655.436625775	3652.520915713	1.5	0.1
0.01	1	0.00380012000005081	1	87	NA	85.6090033589999	0	0.44	1.93	1	77.3793861079998	77.3831862279999	"7"	3655.436625775	3652.520915713	1.5	0.1
0.01	1	0.137944386000072	1	87	NA	85.6090033589999	0	0.44	1.93	1	77.6130692500001	77.7510136360002	"7"	3655.436625775	3652.520915713	1.5	0.1
0.01	1	0.00308030799988046	1	87	NA	85.6090033589999	0	0.44	1.93	1	77.9804268540001	77.983507162	"7"	3655.436625775	3652.520915713	1.5	0.1
0.01	1	0.00206452100019305	1	87	NA	85.6090033589999	0	0.44	1.93	1	78.214135017	78.2161995380002	"7"	3655.436625775	3652.520915713	1.5	0.1
0.01	1	0.00213433499993698	1	87	NA	85.6090033589999	0	0.44	1.93	1	78.4477857279999	78.4499200629998	"7"	3655.436625775	3652.520915713	1.5	0.1
0.01	1	0.00210129200013398	1	87	NA	85.6090033589999	0	0.44	1.93	1	78.6816127930001	78.6837140850002	"7"	3655.436625775	3652.520915713	1.5	0.1
0.01	1	0.00462437199985288	1	87	NA	85.6090033589999	0	0.44	1.93	1	78.9153870730001	78.920011445	"7"	3655.436625775	3652.520915713	1.5	0.1
0.01	1	0.00203454399979819	1	87	NA	85.6090033589999	0	0.44	1.93	1	79.1490093860002	79.15104393	"7"	3655.436625775	3652.520915713	1.5	0.1
0.01	1	0.00210685100000774	1	87	NA	85.6090033589999	0	0.44	1.93	1	79.382685386	79.3847922370001	"7"	3655.436625775	3652.520915713	1.5	0.1
0.01	1	0.004640395000024	1	87	NA	85.6090033589999	0	0.44	1.93	1	79.6165310729998	79.6211714679998	"7"	3655.436625775	3652.520915713	1.5	0.1
0.01	1	0.00223342499975843	1	87	NA	85.6090033589999	0	0.44	1.93	1	79.8502488280001	79.8524822529998	"7"	3655.436625775	3652.520915713	1.5	0.1
0.01	1	0.00208551400010037	1	87	NA	85.6090033589999	0	0.44	1.93	1	80.084008842	80.0860943560001	"7"	3655.436625775	3652.520915713	1.5	0.1
0.01	1	0.00386991499999567	1	87	NA	85.6090033589999	0	0.44	1.93	1	80.3175930530001	80.3214629680001	"7"	3655.436625775	3652.520915713	1.5	0.1
0.01	1	0.00202747099956468	1	87	NA	85.6090033589999	0	0.44	1.93	1	80.5513826320002	80.5534101029998	"7"	3655.436625775	3652.520915713	1.5	0.1
0.01	1	0.00466428200024893	1	87	NA	85.6090033589999	0	0.44	1.93	1	80.785109083	80.7897733650002	"7"	3655.436625775	3652.520915713	1.5	0.1
0.01	1	0.00470430199993643	1	87	NA	85.6090033589999	0	0.44	1.93	1	81.018829483	81.0235337849999	"7"	3655.436625775	3652.520915713	1.5	0.1
0.01	1	0.123567266000009	1	87	NA	85.6090033589999	0	0.44	1.93	1	81.2525473679998	81.3761146339998	"7"	3655.436625775	3652.520915713	1.5	0.1
0.01	1	0.00357469199980187	1	87	NA	85.6090033589999	0	0.44	1.93	1	81.603089188	81.6066638799998	"7"	3655.436625775	3652.520915713	1.5	0.1
0.01	1	0.0177387549997547	1	87	NA	85.6090033589999	0	0.44	1.93	1	81.8368283680002	81.8545671229999	"7"	3655.436625775	3652.520915713	1.5	0.1
0.01	1	0.0317966120001074	1	87	NA	85.6090033589999	0	0.44	1.93	1	82.087251033	82.1190476450001	"7"	3655.436625775	3652.520915713	1.5	0.1
0.01	1	0.00258982200011815	1	87	NA	85.6090033589999	0	0.44	1.93	1	82.35440281	82.3569926320001	"7"	3655.436625775	3652.520915713	1.5	0.1
0.01	1	0.0180432490001294	1	87	NA	85.6090033589999	0	0.44	1.93	1	82.5880873420001	82.6061305910002	"7"	3655.436625775	3652.520915713	1.5	0.1
0.01	1	0.0248810260000027	1	87	NA	85.6090033589999	0	0.44	1.93	1	82.8386128950001	82.8634939210001	"7"	3655.436625775	3652.520915713	1.5	0.1
0.01	1	0.0460957069999495	1	87	NA	85.6090033589999	0	0.44	1.93	1	83.0889916599999	83.1350873669999	"7"	3655.436625775	3652.520915713	1.5	0.1
0.01	1	0.0832088940001086	1	87	NA	85.6090033589999	0	0.44	1.93	1	83.372770898	83.4559797920001	"7"	3655.436625775	3652.520915713	1.5	0.1
0.01	1	0.205538806999812	1	87	NA	85.6090033589999	0	0.44	1.93	1	83.6899194150001	83.8954582219999	"7"	3655.436625775	3652.520915713	1.5	0.1
0.01	1	0.123107658999743	1	87	NA	85.6090033589999	0	0.44	1.93	1	84.1240289830002	84.247136642	"7"	3655.436625775	3652.520915713	1.5	0.1
0.01	1	0.0526657609998438	1	87	NA	85.6090033589999	0	0.44	1.93	1	84.474672713	84.5273384739999	"7"	3655.436625775	3652.520915713	1.5	0.1
0.01	1	0.0646482480001396	1	87	NA	85.6090033589999	0	0.44	1.93	1	84.7584731779998	84.8231214259999	"7"	3655.436625775	3652.520915713	1.5	0.1
0.01	1	0.548498614999971	2	87	NA	85.6090033589999	0	0.44	1.93	1	85.0589474180001	85.6074460330001	"7"	3655.436625775	3652.520915713	1.5	0.1
0.01	1	0.224157662999914	1	6	89.3859190550002	NA	1	0	1.93	1	87.6632892500002	87.8874469130001	"8"	3655.436625775	3652.520915713	1.5	0.1
0.01	1	0.0300531499997305	1	6	89.3859190550002	NA	1	0	1.93	1	88.1140762350001	88.1441293849998	"8"	3655.436625775	3652.520915713	1.5	0.1
0.01	1	0.170225785000184	1	6	89.3859190550002	NA	1	0	1.93	1	88.3812179080001	88.5514436930002	"8"	3655.436625775	3652.520915713	1.5	0.1
0.01	1	0.0246495569999752	1	6	89.3859190550002	NA	1	0	1.93	1	88.7818716350002	88.8065211920002	"8"	3655.436625775	3652.520915713	1.5	0.1
0.01	1	0.00348183500000232	1	6	89.3859190550002	NA	1	0	1.93	1	89.0322556030001	89.0357374380001	"8"	3655.436625775	3652.520915713	1.5	0.1
0.01	1	0.00825486299982003	1	6	89.3859190550002	NA	1	0	1.93	1	89.2660277330001	89.2742825959999	"8"	3655.436625775	3652.520915713	1.5	0.1
0.01	1	0.59545117100015	1	106	NA	99.9683011490001	0	0.31	2.24	1	91.436340617	92.0317917880002	"9"	3655.436625775	3652.520915713	1.5	0.1
0.01	1	0.00208492999990995	1	106	NA	99.9683011490001	0	0.31	2.24	1	92.2711032560001	92.273188186	"9"	3655.436625775	3652.520915713	1.5	0.1
0.01	1	0.00223721300017132	1	106	NA	99.9683011490001	0	0.31	2.24	1	92.504747773	92.5069849860001	"9"	3655.436625775	3652.520915713	1.5	0.1
0.01	1	0.00814491899973291	1	106	NA	99.9683011490001	0	0.31	2.24	1	92.7386680730001	92.7468129919998	"9"	3655.436625775	3652.520915713	1.5	0.1
0.01	1	0.00221479500032729	1	106	NA	99.9683011490001	0	0.31	2.24	1	92.9722368389998	92.9744516340002	"9"	3655.436625775	3652.520915713	1.5	0.1
0.01	1	0.0039385959998981	1	106	NA	99.9683011490001	0	0.31	2.24	1	93.2059874199999	93.2099260159998	"9"	3655.436625775	3652.520915713	1.5	0.1
0.01	1	0.00393195599963292	1	106	NA	99.9683011490001	0	0.31	2.24	1	93.4397238380002	93.4436557939998	"9"	3655.436625775	3652.520915713	1.5	0.1
0.01	1	0.00223589999995966	1	106	NA	99.9683011490001	0	0.31	2.24	1	93.6734271519999	93.6756630519999	"9"	3655.436625775	3652.520915713	1.5	0.1
0.01	1	0.00208939100002681	1	106	NA	99.9683011490001	0	0.31	2.24	1	93.907233811	93.909323202	"9"	3655.436625775	3652.520915713	1.5	0.1
0.01	1	0.00199702700001581	1	106	NA	99.9683011490001	0	0.31	2.24	1	94.140953347	94.1429503740001	"9"	3655.436625775	3652.520915713	1.5	0.1
0.01	1	0.00210203100004946	1	106	NA	99.9683011490001	0	0.31	2.24	1	94.374679257	94.3767812880001	"9"	3655.436625775	3652.520915713	1.5	0.1
0.01	1	0.00375018699969587	1	106	NA	99.9683011490001	0	0.31	2.24	1	94.6082746830002	94.6120248699999	"9"	3655.436625775	3652.520915713	1.5	0.1
0.01	1	0.00395926000010149	1	106	NA	99.9683011490001	0	0.31	2.24	1	94.84202241	94.8459816700001	"9"	3655.436625775	3652.520915713	1.5	0.1
0.01	1	0.00390147799998886	1	106	NA	99.9683011490001	0	0.31	2.24	1	95.07576247	95.079663948	"9"	3655.436625775	3652.520915713	1.5	0.1
0.01	1	0.00377660100002686	1	106	NA	99.9683011490001	0	0.31	2.24	1	95.3095117150001	95.3132883160001	"9"	3655.436625775	3652.520915713	1.5	0.1
0.01	1	0.00382969600013894	1	106	NA	99.9683011490001	0	0.31	2.24	1	95.54316006	95.5469897560001	"9"	3655.436625775	3652.520915713	1.5	0.1
0.01	1	0.00397750999991331	1	106	NA	99.9683011490001	0	0.31	2.24	1	95.7769721180002	95.7809496280001	"9"	3655.436625775	3652.520915713	1.5	0.1
0.01	1	0.108031463000316	1	106	NA	99.9683011490001	0	0.31	2.24	1	96.0106534729998	96.1186849360001	"9"	3655.436625775	3652.520915713	1.5	0.1
0.01	1	0.00224932799983435	1	106	NA	99.9683011490001	0	0.31	2.24	1	96.3446201080001	96.3468694359999	"9"	3655.436625775	3652.520915713	1.5	0.1
0.01	1	0.00223417500001233	1	106	NA	99.9683011490001	0	0.31	2.24	1	96.5783092780002	96.5805434530002	"9"	3655.436625775	3652.520915713	1.5	0.1
0.01	1	0.00300900999991427	1	106	NA	99.9683011490001	0	0.31	2.24	1	96.8120826240001	96.8150916340001	"9"	3655.436625775	3652.520915713	1.5	0.1
0.01	1	0.00202567099995576	1	106	NA	99.9683011490001	0	0.31	2.24	1	97.0458518119999	97.0478774829999	"9"	3655.436625775	3652.520915713	1.5	0.1
0.01	1	0.0045059020003464	1	106	NA	99.9683011490001	0	0.31	2.24	1	97.2795923929998	97.2840982950001	"9"	3655.436625775	3652.520915713	1.5	0.1
0.01	1	0.00216516099999353	1	106	NA	99.9683011490001	0	0.31	2.24	1	97.5131233359998	97.5152884969998	"9"	3655.436625775	3652.520915713	1.5	0.1
0.01	1	0.00202808800031562	1	106	NA	99.9683011490001	0	0.31	2.24	1	97.7470520289999	97.7490801170002	"9"	3655.436625775	3652.520915713	1.5	0.1
0.01	1	0.00207601199963392	1	106	NA	99.9683011490001	0	0.31	2.24	1	97.9806608560002	97.9827368679998	"9"	3655.436625775	3652.520915713	1.5	0.1
0.01	1	0.00459726500002944	1	106	NA	99.9683011490001	0	0.31	2.24	1	98.2144357880002	98.2190330530002	"9"	3655.436625775	3652.520915713	1.5	0.1
0.01	1	0.00462759500032917	1	106	NA	99.9683011490001	0	0.31	2.24	1	98.4481738479999	98.4528014430002	"9"	3655.436625775	3652.520915713	1.5	0.1
0.01	1	0.00373699900001156	1	106	NA	99.9683011490001	0	0.31	2.24	1	98.6818449930001	98.6855819920002	"9"	3655.436625775	3652.520915713	1.5	0.1
0.01	1	0.0046000469997125	1	106	NA	99.9683011490001	0	0.31	2.24	1	98.9156024230001	98.9202024699998	"9"	3655.436625775	3652.520915713	1.5	0.1
0.01	1	0.00398334300007264	1	106	NA	99.9683011490001	0	0.31	2.24	1	99.149348813	99.153332156	"9"	3655.436625775	3652.520915713	1.5	0.1
0.01	1	0.583646223999949	2	106	NA	99.9683011490001	0	0.31	2.24	1	99.38308547	99.9667316939999	"9"	3655.436625775	3652.520915713	1.5	0.1
0.01	1	0.138576767999893	1	21	NA	104.433648946	0	0.09	2.33	1	102.020728978	102.159305746	"10"	3655.436625775	3652.520915713	1.5	0.1
0.01	1	0.00207068999998228	1	21	NA	104.433648946	0	0.09	2.33	1	102.388108573	102.390179263	"10"	3655.436625775	3652.520915713	1.5	0.1
0.01	1	0.00211359099967012	1	21	NA	104.433648946	0	0.09	2.33	1	102.621801305	102.623914896	"10"	3655.436625775	3652.520915713	1.5	0.1
0.01	1	0.00209961600012321	1	21	NA	104.433648946	0	0.09	2.33	1	102.855586308	102.857685924	"10"	3655.436625775	3652.520915713	1.5	0.1
0.01	1	0.00211670199996661	1	21	NA	104.433648946	0	0.09	2.33	1	103.089371722	103.091488424	"10"	3655.436625775	3652.520915713	1.5	0.1
0.01	1	0.00457517699987875	1	21	NA	104.433648946	0	0.09	2.33	1	103.323185573	103.32776075	"10"	3655.436625775	3652.520915713	1.5	0.1
0.01	1	0.00204192799992597	1	21	NA	104.433648946	0	0.09	2.33	1	103.556755868	103.558797796	"10"	3655.436625775	3652.520915713	1.5	0.1
0.01	1	0.00457865000043967	1	21	NA	104.433648946	0	0.09	2.33	1	103.790455778	103.795034428	"10"	3655.436625775	3652.520915713	1.5	0.1
0.01	1	0.00355659200022274	1	21	NA	104.433648946	0	0.09	2.33	1	104.024251848	104.02780844	"10"	3655.436625775	3652.520915713	1.5	0.1
0.01	1	0.174268167999799	2	21	NA	104.433648946	0	0.09	2.33	1	104.257839188	104.432107356	"10"	3655.436625775	3652.520915713	1.5	0.1
0.01	1	0.12119426199979	1	19	111.189466665	NA	1	0	2.33	1	106.478318678	106.59951294	"11"	3655.436625775	3652.520915713	1.5	0.1
0.01	1	0.0096717979999994	1	19	111.189466665	NA	1	0	2.33	1	106.828974368	106.838646166	"11"	3655.436625775	3652.520915713	1.5	0.1
0.01	1	0.00223355700018146	1	19	111.189466665	NA	1	0	2.33	1	107.07929246	107.081526017	"11"	3655.436625775	3652.520915713	1.5	0.1
0.01	1	0.00461951700026475	1	19	111.189466665	NA	1	0	2.33	1	107.313062248	107.317681765	"11"	3655.436625775	3652.520915713	1.5	0.1
0.01	1	0.00467011499995351	1	19	111.189466665	NA	1	0	2.33	1	107.546815943	107.551486058	"11"	3655.436625775	3652.520915713	1.5	0.1
0.01	1	0.0911384840001119	1	19	111.189466665	NA	1	0	2.33	1	107.780454415	107.871592899	"11"	3655.436625775	3652.520915713	1.5	0.1
0.01	1	0.00819923200015182	1	19	111.189466665	NA	1	0	2.33	1	108.097650378	108.10584961	"11"	3655.436625775	3652.520915713	1.5	0.1
0.01	1	0.00687369700017371	1	19	111.189466665	NA	1	0	2.33	1	108.331469885	108.338343582	"11"	3655.436625775	3652.520915713	1.5	0.1
0.01	1	0.00203032599983999	1	19	111.189466665	NA	1	0	2.33	1	108.565184417	108.567214743	"11"	3655.436625775	3652.520915713	1.5	0.1
0.01	1	0.00471292700012782	1	19	111.189466665	NA	1	0	2.33	1	108.798911478	108.803624405	"11"	3655.436625775	3652.520915713	1.5	0.1
0.01	1	0.00463959499984412	1	19	111.189466665	NA	1	0	2.33	1	109.032629578	109.037269173	"11"	3655.436625775	3652.520915713	1.5	0.1
0.01	1	0.00399018899997827	1	19	111.189466665	NA	1	0	2.33	1	109.266409403	109.270399592	"11"	3655.436625775	3652.520915713	1.5	0.1
0.01	1	0.139440403000208	1	19	111.189466665	NA	1	0	2.33	1	109.500129568	109.639569971	"11"	3655.436625775	3652.520915713	1.5	0.1
0.01	1	0.0269784960000834	1	19	111.189466665	NA	1	0	2.33	1	109.867329748	109.894308244	"11"	3655.436625775	3652.520915713	1.5	0.1
0.01	1	0.0022253710003497	1	19	111.189466665	NA	1	0	2.33	1	110.134481705	110.136707076	"11"	3655.436625775	3652.520915713	1.5	0.1
0.01	1	0.0023301219998757	1	19	111.189466665	NA	1	0	2.33	1	110.368187946	110.370518068	"11"	3655.436625775	3652.520915713	1.5	0.1
0.01	1	0.00459739699999773	1	19	111.189466665	NA	1	0	2.33	1	110.601954638	110.606552035	"11"	3655.436625775	3652.520915713	1.5	0.1
0.01	1	0.00447496100014178	1	19	111.189466665	NA	1	0	2.33	1	110.835682284	110.840157245	"11"	3655.436625775	3652.520915713	1.5	0.1
0.01	1	0.00427610399992773	1	19	111.189466665	NA	1	0	2.33	1	111.069344804	111.073620908	"11"	3655.436625775	3652.520915713	1.5	0.1
0.01	1	0.185092945999713	1	63	NA	117.809466534	0	0.15	2.48	1	113.222968675	113.408061621	"12"	3655.436625775	3652.520915713	1.5	0.1
0.01	1	0.00206099299975904	1	63	NA	117.809466534	0	0.15	2.48	1	113.640341442	113.642402435	"12"	3655.436625775	3652.520915713	1.5	0.1
0.01	1	0.00393406100010907	1	63	NA	117.809466534	0	0.15	2.48	1	113.874087883	113.878021944	"12"	3655.436625775	3652.520915713	1.5	0.1
0.01	1	0.0904969460002576	1	63	NA	117.809466534	0	0.15	2.48	1	114.107811633	114.198308579	"12"	3655.436625775	3652.520915713	1.5	0.1
0.01	1	0.00207705299999361	1	63	NA	117.809466534	0	0.15	2.48	1	114.425079424	114.427156477	"12"	3655.436625775	3652.520915713	1.5	0.1
0.01	1	0.0914933270000802	1	63	NA	117.809466534	0	0.15	2.48	1	114.658734138	114.750227465	"12"	3655.436625775	3652.520915713	1.5	0.1
0.01	1	0.00399655499995788	1	63	NA	117.809466534	0	0.15	2.48	1	114.976036403	114.980032958	"12"	3655.436625775	3652.520915713	1.5	0.1
0.01	1	0.101347917000112	1	63	NA	117.809466534	0	0.15	2.48	1	115.20966039	115.311008307	"12"	3655.436625775	3652.520915713	1.5	0.1
0.01	1	0.00211175799995544	1	63	NA	117.809466534	0	0.15	2.48	1	115.543565875	115.545677633	"12"	3655.436625775	3652.520915713	1.5	0.1
0.01	1	0.00453930599996966	1	63	NA	117.809466534	0	0.15	2.48	1	115.777316997	115.781856303	"12"	3655.436625775	3652.520915713	1.5	0.1
0.01	1	0.00381613699983063	1	63	NA	117.809466534	0	0.15	2.48	1	116.011013493	116.01482963	"12"	3655.436625775	3652.520915713	1.5	0.1
0.01	1	0.00385276599990902	1	63	NA	117.809466534	0	0.15	2.48	1	116.24481019	116.248662956	"12"	3655.436625775	3652.520915713	1.5	0.1
0.01	1	0.128324686999804	1	63	NA	117.809466534	0	0.15	2.48	1	116.478628368	116.606953055	"12"	3655.436625775	3652.520915713	1.5	0.1
0.01	1	0.00388442700023006	1	63	NA	117.809466534	0	0.15	2.48	1	116.845782985	116.849667412	"12"	3655.436625775	3652.520915713	1.5	0.1
0.01	1	0.00366774600024655	1	63	NA	117.809466534	0	0.15	2.48	1	117.079446408	117.083114154	"12"	3655.436625775	3652.520915713	1.5	0.1
0.01	1	0.494717697999931	2	63	NA	117.809466534	0	0.15	2.48	1	117.313201238	117.807918936	"12"	3655.436625775	3652.520915713	1.5	0.1
0.01	1	0.052729965999788	1	54	NA	121.61653796	0	0.06	2.54	1	119.834136668	119.886866634	"13"	3655.436625775	3652.520915713	1.5	0.1
0.01	1	0.0325061880002977	1	54	NA	121.61653796	0	0.06	2.54	1	120.117878273	120.150384461	"13"	3655.436625775	3652.520915713	1.5	0.1
0.01	1	0.0072091309998541	1	54	NA	121.61653796	0	0.06	2.54	1	120.385040863	120.392249994	"13"	3655.436625775	3652.520915713	1.5	0.1
0.01	1	0.00813592600025004	1	54	NA	121.61653796	0	0.06	2.54	1	120.618844106	120.626980032	"13"	3655.436625775	3652.520915713	1.5	0.1
0.01	1	0.00408422800001063	1	54	NA	121.61653796	0	0.06	2.54	1	120.852501488	120.856585716	"13"	3655.436625775	3652.520915713	1.5	0.1
0.01	1	0.00439715199991042	1	54	NA	121.61653796	0	0.06	2.54	1	121.086207761	121.090604913	"13"	3655.436625775	3652.520915713	1.5	0.1
0.01	1	0.295018477000212	2	54	NA	121.61653796	0	0.06	2.54	1	121.319968675	121.614987152	"13"	3655.436625775	3652.520915713	1.5	0.1
0.01	1	0.182524695999746	1	103	NA	128.384106843	0	0.17	2.71	1	123.657245228	123.839769924	"14"	3655.436625775	3652.520915713	1.5	0.1
0.01	1	0.0204519429998982	1	103	NA	128.384106843	0	0.17	2.71	1	124.074579565	124.095031508	"14"	3655.436625775	3652.520915713	1.5	0.1
0.01	1	0.0420221950002997	1	103	NA	128.384106843	0	0.17	2.71	1	124.324926163	124.366948358	"14"	3655.436625775	3652.520915713	1.5	0.1
0.01	1	0.0304641819998324	1	103	NA	128.384106843	0	0.17	2.71	1	124.592168938	124.62263312	"14"	3655.436625775	3652.520915713	1.5	0.1
0.01	1	0.036113837999892	1	103	NA	128.384106843	0	0.17	2.71	1	124.859293623	124.895407461	"14"	3655.436625775	3652.520915713	1.5	0.1
0.01	1	0.0252911950001362	1	103	NA	128.384106843	0	0.17	2.71	1	125.126485918	125.151777113	"14"	3655.436625775	3652.520915713	1.5	0.1
0.01	1	0.0394568770002479	1	103	NA	128.384106843	0	0.17	2.71	1	125.37679188	125.416248757	"14"	3655.436625775	3652.520915713	1.5	0.1
0.01	1	0.0204761579998376	1	103	NA	128.384106843	0	0.17	2.71	1	125.6438717	125.664347858	"14"	3655.436625775	3652.520915713	1.5	0.1
0.01	1	0.0238732269999673	1	103	NA	128.384106843	0	0.17	2.71	1	125.894353213	125.91822644	"14"	3655.436625775	3652.520915713	1.5	0.1
0.01	1	0.0309492540000065	1	103	NA	128.384106843	0	0.17	2.71	1	126.144733223	126.175682477	"14"	3655.436625775	3652.520915713	1.5	0.1
0.01	1	0.0198019640001803	1	103	NA	128.384106843	0	0.17	2.71	1	126.411866048	126.431668012	"14"	3655.436625775	3652.520915713	1.5	0.1
0.01	1	0.0113897229998656	1	103	NA	128.384106843	0	0.17	2.71	1	126.662328203	126.673717926	"14"	3655.436625775	3652.520915713	1.5	0.1
0.01	1	0.00681515999986004	1	103	NA	128.384106843	0	0.17	2.71	1	126.91269555	126.91951071	"14"	3655.436625775	3652.520915713	1.5	0.1
0.01	1	0.0289018840003337	1	103	NA	128.384106843	0	0.17	2.71	1	127.146493203	127.175395087	"14"	3655.436625775	3652.520915713	1.5	0.1
0.01	1	0.00974940600008267	1	103	NA	128.384106843	0	0.17	2.71	1	127.413479235	127.423228641	"14"	3655.436625775	3652.520915713	1.5	0.1
0.01	1	0.0111763159998191	1	103	NA	128.384106843	0	0.17	2.71	1	127.647255408	127.658431724	"14"	3655.436625775	3652.520915713	1.5	0.1
0.01	1	0.0384100050000598	1	103	NA	128.384106843	0	0.17	2.71	1	127.881035695	127.9194457	"14"	3655.436625775	3652.520915713	1.5	0.1
0.01	1	0.234526582999933	2	103	NA	128.384106843	0	0.17	2.71	1	128.14807615	128.382602733	"14"	3655.436625775	3652.520915713	1.5	0.1
0.01	1	0.164473005999753	1	120	NA	136.51270929	0	0.2	2.91	1	130.435330318	130.599803324	"15"	3655.436625775	3652.520915713	1.5	0.1
0.01	1	0.154998078000062	1	120	NA	136.51270929	0	0.2	2.91	1	130.835990125	130.990988203	"15"	3655.436625775	3652.520915713	1.5	0.1
0.01	1	0.0362813040001129	1	120	NA	136.51270929	0	0.2	2.91	1	131.220000846	131.25628215	"15"	3655.436625775	3652.520915713	1.5	0.1
0.01	1	0.0728720179999982	1	120	NA	136.51270929	0	0.2	2.91	1	131.487175818	131.560047836	"15"	3655.436625775	3652.520915713	1.5	0.1
0.01	1	0.0763459599997987	1	120	NA	136.51270929	0	0.2	2.91	1	131.787624334	131.863970294	"15"	3655.436625775	3652.520915713	1.5	0.1
0.01	1	0.0866928790001111	1	120	NA	136.51270929	0	0.2	2.91	1	132.08801293	132.174705809	"15"	3655.436625775	3652.520915713	1.5	0.1
0.01	1	0.0656042059999891	1	120	NA	136.51270929	0	0.2	2.91	1	132.405313348	132.470917554	"15"	3655.436625775	3652.520915713	1.5	0.1
0.01	1	0.0533436529999562	1	120	NA	136.51270929	0	0.2	2.91	1	132.705779718	132.759123371	"15"	3655.436625775	3652.520915713	1.5	0.1
0.01	1	0.0729901160002555	1	120	NA	136.51270929	0	0.2	2.91	1	132.989676118	133.062666234	"15"	3655.436625775	3652.520915713	1.5	0.1
0.01	1	0.0529306059997907	1	120	NA	136.51270929	0	0.2	2.91	1	133.290157837	133.343088443	"15"	3655.436625775	3652.520915713	1.5	0.1
0.01	1	0.0658239279996451	1	120	NA	136.51270929	0	0.2	2.91	1	133.573966708	133.639790636	"15"	3655.436625775	3652.520915713	1.5	0.1
0.01	1	0.0359012159997292	1	120	NA	136.51270929	0	0.2	2.91	1	133.874451737	133.910352953	"15"	3655.436625775	3652.520915713	1.5	0.1
0.01	1	0.0574512450002658	1	120	NA	136.51270929	0	0.2	2.91	1	134.141534178	134.198985423	"15"	3655.436625775	3652.520915713	1.5	0.1
0.01	1	0.0456929759998275	1	120	NA	136.51270929	0	0.2	2.91	1	134.42539738	134.471090356	"15"	3655.436625775	3652.520915713	1.5	0.1
0.01	1	0.0416448649998529	1	120	NA	136.51270929	0	0.2	2.91	1	134.709222278	134.750867143	"15"	3655.436625775	3652.520915713	1.5	0.1
0.01	1	0.0960786720002034	1	120	NA	136.51270929	0	0.2	2.91	1	134.976272818	135.07235149	"15"	3655.436625775	3652.520915713	1.5	0.1
0.01	1	0.0816940640002031	1	120	NA	136.51270929	0	0.2	2.91	1	135.293424948	135.375119012	"15"	3655.436625775	3652.520915713	1.5	0.1
0.01	1	0.0519913950001865	1	120	NA	136.51270929	0	0.2	2.91	1	135.61066868	135.662660075	"15"	3655.436625775	3652.520915713	1.5	0.1
0.01	1	0.0642881799999486	1	120	NA	136.51270929	0	0.2	2.91	1	135.894492973	135.958781153	"15"	3655.436625775	3652.520915713	1.5	0.1
0.01	1	0.00208385399992039	1	120	NA	136.51270929	0	0.2	2.91	1	136.195028743	136.197112597	"15"	3655.436625775	3652.520915713	1.5	0.1
0.01	1	0.0823564699999224	2	120	NA	136.51270929	0	0.2	2.91	1	136.428766073	136.511122543	"15"	3655.436625775	3652.520915713	1.5	0.1
0.01	1	0.153222670000105	1	109	NA	142.657810032	0	0.1	3.01	1	138.565575873	138.718798543	"16"	3655.436625775	3652.520915713	1.5	0.1
0.01	1	0.0896411070002614	1	109	NA	142.657810032	0	0.1	3.01	1	138.949684748	139.039325855	"16"	3655.436625775	3652.520915713	1.5	0.1
0.01	1	0.125209773999813	1	109	NA	142.657810032	0	0.1	3.01	1	139.26680557	139.392015344	"16"	3655.436625775	3652.520915713	1.5	0.1
0.01	1	0.102504175999911	1	109	NA	142.657810032	0	0.1	3.01	1	139.617396484	139.71990066	"16"	3655.436625775	3652.520915713	1.5	0.1
0.01	1	0.0950321790000999	1	109	NA	142.657810032	0	0.1	3.01	1	139.951331383	140.046363562	"16"	3655.436625775	3652.520915713	1.5	0.1
0.01	1	0.0677447210000537	1	109	NA	142.657810032	0	0.1	3.01	1	140.268485405	140.336230126	"16"	3655.436625775	3652.520915713	1.5	0.1
0.01	1	0.0789131699998507	1	109	NA	142.657810032	0	0.1	3.01	1	140.568952698	140.647865868	"16"	3655.436625775	3652.520915713	1.5	0.1
0.01	1	0.0499510500003453	1	109	NA	142.657810032	0	0.1	3.01	1	140.886191494	140.936142544	"16"	3655.436625775	3652.520915713	1.5	0.1
0.01	1	0.0455815310001526	1	109	NA	142.657810032	0	0.1	3.01	1	141.170094233	141.215675764	"16"	3655.436625775	3652.520915713	1.5	0.1
0.01	1	0.049449385999651	1	109	NA	142.657810032	0	0.1	3.01	1	141.453882218	141.503331604	"16"	3655.436625775	3652.520915713	1.5	0.1
0.01	1	0.918597120999948	2	109	NA	142.657810032	0	0.1	3.01	1	141.737645865	142.656242986	"16"	3655.436625775	3652.520915713	1.5	0.1
0.01	1	0.00424564800005101	1	71	NA	157.215887326	0	0.47	3.48	1	144.709333617	144.713579265	"17"	3655.436625775	3652.520915713	1.5	0.1
0.01	1	0.0100468629998431	1	71	NA	157.215887326	0	0.47	3.48	1	144.943074703	144.953121566	"17"	3655.436625775	3652.520915713	1.5	0.1
0.01	1	0.0860190799999145	1	71	NA	157.215887326	0	0.47	3.48	1	145.193463693	145.279482773	"17"	3655.436625775	3652.520915713	1.5	0.1
0.01	1	0.0641246659997705	1	71	NA	157.215887326	0	0.47	3.48	1	145.510700478	145.574825144	"17"	3655.436625775	3652.520915713	1.5	0.1
0.01	1	0.0431665279998015	1	71	NA	157.215887326	0	0.47	3.48	1	145.81112809	145.854294618	"17"	3655.436625775	3652.520915713	1.5	0.1
0.01	1	0.04946269400034	1	71	NA	157.215887326	0	0.47	3.48	1	146.078261498	146.127724192	"17"	3655.436625775	3652.520915713	1.5	0.1
0.01	1	0.0136352049999005	1	71	NA	157.215887326	0	0.47	3.48	1	146.362203338	146.375838543	"17"	3655.436625775	3652.520915713	1.5	0.1
0.01	1	0.00207986800023718	1	71	NA	157.215887326	0	0.47	3.48	1	146.612594328	146.614674196	"17"	3655.436625775	3652.520915713	1.5	0.1
0.01	1	0.00398307500017836	1	71	NA	157.215887326	0	0.47	3.48	1	146.846151915	146.85013499	"17"	3655.436625775	3652.520915713	1.5	0.1
0.01	1	0.0302675749999253	1	71	NA	157.215887326	0	0.47	3.48	1	147.079992306	147.110259881	"17"	3655.436625775	3652.520915713	1.5	0.1
0.01	1	0.00221891499995763	1	71	NA	157.215887326	0	0.47	3.48	1	147.347072662	147.349291577	"17"	3655.436625775	3652.520915713	1.5	0.1
0.01	1	0.026414208999995	1	71	NA	157.215887326	0	0.47	3.48	1	147.580772403	147.607186612	"17"	3655.436625775	3652.520915713	1.5	0.1
0.01	1	0.00388026399969021	1	71	NA	157.215887326	0	0.47	3.48	1	147.831151918	147.835032182	"17"	3655.436625775	3652.520915713	1.5	0.1
0.01	1	0.00380129099994519	1	71	NA	157.215887326	0	0.47	3.48	1	148.064942795	148.068744086	"17"	3655.436625775	3652.520915713	1.5	0.1
0.01	1	0.00207825200004663	1	71	NA	157.215887326	0	0.47	3.48	1	148.298709792	148.300788044	"17"	3655.436625775	3652.520915713	1.5	0.1
0.01	1	0.019627754999874	1	71	NA	157.215887326	0	0.47	3.48	1	148.532521978	148.552149733	"17"	3655.436625775	3652.520915713	1.5	0.1
0.01	1	0.00207578400022612	1	71	NA	157.215887326	0	0.47	3.48	1	148.782812562	148.784888346	"17"	3655.436625775	3652.520915713	1.5	0.1
0.01	1	0.00457138000001578	1	71	NA	157.215887326	0	0.47	3.48	1	149.016635783	149.021207163	"17"	3655.436625775	3652.520915713	1.5	0.1
0.01	1	0.00452599199979886	1	71	NA	157.215887326	0	0.47	3.48	1	149.250334713	149.254860705	"17"	3655.436625775	3652.520915713	1.5	0.1
0.01	1	0.00461726999992607	1	71	NA	157.215887326	0	0.47	3.48	1	149.484055193	149.488672463	"17"	3655.436625775	3652.520915713	1.5	0.1
0.01	1	0.00450363099980677	1	71	NA	157.215887326	0	0.47	3.48	1	149.717847527	149.722351158	"17"	3655.436625775	3652.520915713	1.5	0.1
0.01	1	0.00207580300002519	1	71	NA	157.215887326	0	0.47	3.48	1	149.951357824	149.953433627	"17"	3655.436625775	3652.520915713	1.5	0.1
0.01	1	0.00209189700035495	1	71	NA	157.215887326	0	0.47	3.48	1	150.185175105	150.187267002	"17"	3655.436625775	3652.520915713	1.5	0.1
0.01	1	0.00465512699975079	1	71	NA	157.215887326	0	0.47	3.48	1	150.418961528	150.423616655	"17"	3655.436625775	3652.520915713	1.5	0.1
0.01	1	0.00202014100023007	1	71	NA	157.215887326	0	0.47	3.48	1	150.652611403	150.654631544	"17"	3655.436625775	3652.520915713	1.5	0.1
0.01	1	0.00313793199984502	1	71	NA	157.215887326	0	0.47	3.48	1	150.8863301	150.889468032	"17"	3655.436625775	3652.520915713	1.5	0.1
0.01	1	0.00383259500040367	1	71	NA	157.215887326	0	0.47	3.48	1	151.120048943	151.123881538	"17"	3655.436625775	3652.520915713	1.5	0.1
0.01	1	0.00328036199971393	1	71	NA	157.215887326	0	0.47	3.48	1	151.353750952	151.357031314	"17"	3655.436625775	3652.520915713	1.5	0.1
0.01	1	0.00349042199968608	1	71	NA	157.215887326	0	0.47	3.48	1	151.587487738	151.59097816	"17"	3655.436625775	3652.520915713	1.5	0.1
0.01	1	0.0175562250001349	1	71	NA	157.215887326	0	0.47	3.48	1	151.821226398	151.838782623	"17"	3655.436625775	3652.520915713	1.5	0.1
0.01	1	0.00452489500003139	1	71	NA	157.215887326	0	0.47	3.48	1	152.071702118	152.076227013	"17"	3655.436625775	3652.520915713	1.5	0.1
0.01	1	0.00365977699993891	1	71	NA	157.215887326	0	0.47	3.48	1	152.305453663	152.30911344	"17"	3655.436625775	3652.520915713	1.5	0.1
0.01	1	0.00222226400001091	1	71	NA	157.215887326	0	0.47	3.48	1	152.539142986	152.54136525	"17"	3655.436625775	3652.520915713	1.5	0.1
0.01	1	0.00284978100035005	1	71	NA	157.215887326	0	0.47	3.48	1	152.772884184	152.775733965	"17"	3655.436625775	3652.520915713	1.5	0.1
0.01	1	0.0102465780000784	1	71	NA	157.215887326	0	0.47	3.48	1	153.006580118	153.016826696	"17"	3655.436625775	3652.520915713	1.5	0.1
0.01	1	0.00358790500013129	1	71	NA	157.215887326	0	0.47	3.48	1	153.240307603	153.243895508	"17"	3655.436625775	3652.520915713	1.5	0.1
0.01	1	0.0121652449997782	1	71	NA	157.215887326	0	0.47	3.48	1	153.47415622	153.486321465	"17"	3655.436625775	3652.520915713	1.5	0.1
0.01	1	0.00403711699982523	1	71	NA	157.215887326	0	0.47	3.48	1	153.724536683	153.7285738	"17"	3655.436625775	3652.520915713	1.5	0.1
0.01	1	0.00214943099990705	1	71	NA	157.215887326	0	0.47	3.48	1	153.958339416	153.960488847	"17"	3655.436625775	3652.520915713	1.5	0.1
0.01	1	0.00411359100007758	1	71	NA	157.215887326	0	0.47	3.48	1	154.191916893	154.196030484	"17"	3655.436625775	3652.520915713	1.5	0.1
0.01	1	0.00330178600006548	1	71	NA	157.215887326	0	0.47	3.48	1	154.42560907	154.428910856	"17"	3655.436625775	3652.520915713	1.5	0.1
0.01	1	0.00340615200002503	1	71	NA	157.215887326	0	0.47	3.48	1	154.659352202	154.662758354	"17"	3655.436625775	3652.520915713	1.5	0.1
0.01	1	0.00304428399977041	1	71	NA	157.215887326	0	0.47	3.48	1	154.893026302	154.896070586	"17"	3655.436625775	3652.520915713	1.5	0.1
0.01	1	0.00366382499987594	1	71	NA	157.215887326	0	0.47	3.48	1	155.126809613	155.130473438	"17"	3655.436625775	3652.520915713	1.5	0.1
0.01	1	0.0309097230001498	1	71	NA	157.215887326	0	0.47	3.48	1	155.360492585	155.391402308	"17"	3655.436625775	3652.520915713	1.5	0.1
0.01	1	0.00305311200008873	1	71	NA	157.215887326	0	0.47	3.48	1	155.627618916	155.630672028	"17"	3655.436625775	3652.520915713	1.5	0.1
0.01	1	0.00208907999967778	1	71	NA	157.215887326	0	0.47	3.48	1	155.861440468	155.863529548	"17"	3655.436625775	3652.520915713	1.5	0.1
0.01	1	1.11919866000017	2	71	NA	157.215887326	0	0.47	3.48	1	156.095118325	157.214316985	"17"	3655.436625775	3652.520915713	1.5	0.1
0.01	1	0.180810416999975	1	96	NA	170.313619207	0	0.41	3.89	1	159.267126053	159.44793647	"18"	3655.436625775	3652.520915713	1.5	0.1
0.01	1	0.0197391990000142	1	96	NA	170.313619207	0	0.41	3.89	1	159.684413035	159.704152234	"18"	3655.436625775	3652.520915713	1.5	0.1
0.01	1	0.0158685429996694	1	96	NA	170.313619207	0	0.41	3.89	1	159.934919303	159.950787846	"18"	3655.436625775	3652.520915713	1.5	0.1
0.01	1	0.013775436999822	1	96	NA	170.313619207	0	0.41	3.89	1	160.18533745	160.199112887	"18"	3655.436625775	3652.520915713	1.5	0.1
0.01	1	0.0201174859998901	1	96	NA	170.313619207	0	0.41	3.89	1	160.435719547	160.455837033	"18"	3655.436625775	3652.520915713	1.5	0.1
0.01	1	0.0252471009998771	1	96	NA	170.313619207	0	0.41	3.89	1	160.686111975	160.711359076	"18"	3655.436625775	3652.520915713	1.5	0.1
0.01	1	0.0136235209997722	1	96	NA	170.313619207	0	0.41	3.89	1	160.936683795	160.950307316	"18"	3655.436625775	3652.520915713	1.5	0.1
0.01	1	0.0359023579999302	1	96	NA	170.313619207	0	0.41	3.89	1	161.186977448	161.222879806	"18"	3655.436625775	3652.520915713	1.5	0.1
0.01	1	0.0112722439998834	1	96	NA	170.313619207	0	0.41	3.89	1	161.454116228	161.465388472	"18"	3655.436625775	3652.520915713	1.5	0.1
0.01	1	0.0387923849998515	1	96	NA	170.313619207	0	0.41	3.89	1	161.68782313	161.726615515	"18"	3655.436625775	3652.520915713	1.5	0.1
0.01	1	0.0117011269999239	1	96	NA	170.313619207	0	0.41	3.89	1	161.954957295	161.966658422	"18"	3655.436625775	3652.520915713	1.5	0.1
0.01	1	0.0272711939996952	1	96	NA	170.313619207	0	0.41	3.89	1	162.18867359	162.215944784	"18"	3655.436625775	3652.520915713	1.5	0.1
0.01	1	0.0161109000000579	1	96	NA	170.313619207	0	0.41	3.89	1	162.439106315	162.455217215	"18"	3655.436625775	3652.520915713	1.5	0.1
0.01	1	0.05348822499991	1	96	NA	170.313619207	0	0.41	3.89	1	162.689511353	162.742999578	"18"	3655.436625775	3652.520915713	1.5	0.1
0.01	1	0.00212844699990455	1	96	NA	170.313619207	0	0.41	3.89	1	162.973431368	162.975559815	"18"	3655.436625775	3652.520915713	1.5	0.1
0.01	1	0.0113066200001413	1	96	NA	170.313619207	0	0.41	3.89	1	163.207135948	163.218442568	"18"	3655.436625775	3652.520915713	1.5	0.1
0.01	1	0.0227425800003402	1	96	NA	170.313619207	0	0.41	3.89	1	163.440881533	163.463624113	"18"	3655.436625775	3652.520915713	1.5	0.1
0.01	1	0.0136594150003475	1	96	NA	170.313619207	0	0.41	3.89	1	163.691201413	163.704860828	"18"	3655.436625775	3652.520915713	1.5	0.1
0.01	1	0.00948970599984023	1	96	NA	170.313619207	0	0.41	3.89	1	163.94166309	163.951152796	"18"	3655.436625775	3652.520915713	1.5	0.1
0.01	1	0.0230572820000816	1	96	NA	170.313619207	0	0.41	3.89	1	164.175382178	164.19843946	"18"	3655.436625775	3652.520915713	1.5	0.1
0.01	1	0.00719865300015954	1	96	NA	170.313619207	0	0.41	3.89	1	164.425799663	164.432998316	"18"	3655.436625775	3652.520915713	1.5	0.1
0.01	1	0.012004466000235	1	96	NA	170.313619207	0	0.41	3.89	1	164.65950021	164.671504676	"18"	3655.436625775	3652.520915713	1.5	0.1
0.01	1	0.0426072000000204	1	96	NA	170.313619207	0	0.41	3.89	1	164.893183943	164.935791143	"18"	3655.436625775	3652.520915713	1.5	0.1
0.01	1	0.0232249529999535	1	96	NA	170.313619207	0	0.41	3.89	1	165.160416375	165.183641328	"18"	3655.436625775	3652.520915713	1.5	0.1
0.01	1	0.0114496660003169	1	96	NA	170.313619207	0	0.41	3.89	1	165.410842423	165.422292089	"18"	3655.436625775	3652.520915713	1.5	0.1
0.01	1	0.00969529099984356	1	96	NA	170.313619207	0	0.41	3.89	1	165.661264963	165.670960254	"18"	3655.436625775	3652.520915713	1.5	0.1
0.01	1	0.0392527440003505	1	96	NA	170.313619207	0	0.41	3.89	1	165.894989005	165.934241749	"18"	3655.436625775	3652.520915713	1.5	0.1
0.01	1	0.00348662400028843	1	96	NA	170.313619207	0	0.41	3.89	1	166.16207009	166.165556714	"18"	3655.436625775	3652.520915713	1.5	0.1
0.01	1	0.00437038699965342	1	96	NA	170.313619207	0	0.41	3.89	1	166.395745948	166.400116335	"18"	3655.436625775	3652.520915713	1.5	0.1
0.01	1	0.00975677699989319	1	96	NA	170.313619207	0	0.41	3.89	1	166.629538998	166.639295775	"18"	3655.436625775	3652.520915713	1.5	0.1
0.01	1	0.00208815999985745	1	96	NA	170.313619207	0	0.41	3.89	1	166.863239115	166.865327275	"18"	3655.436625775	3652.520915713	1.5	0.1
0.01	1	0.0214873740001167	1	96	NA	170.313619207	0	0.41	3.89	1	167.097015088	167.118502462	"18"	3655.436625775	3652.520915713	1.5	0.1
0.01	1	0.0022196840000106	1	96	NA	170.313619207	0	0.41	3.89	1	167.347377746	167.34959743	"18"	3655.436625775	3652.520915713	1.5	0.1
0.01	1	0.0039972710001166	1	96	NA	170.313619207	0	0.41	3.89	1	167.581077325	167.585074596	"18"	3655.436625775	3652.520915713	1.5	0.1
0.01	1	0.00227661399958379	1	96	NA	170.313619207	0	0.41	3.89	1	167.814836882	167.817113496	"18"	3655.436625775	3652.520915713	1.5	0.1
0.01	1	0.00463277500011827	1	96	NA	170.313619207	0	0.41	3.89	1	168.048635958	168.053268733	"18"	3655.436625775	3652.520915713	1.5	0.1
0.01	1	0.00200319499981561	1	96	NA	170.313619207	0	0.41	3.89	1	168.282317304	168.284320499	"18"	3655.436625775	3652.520915713	1.5	0.1
0.01	1	0.00204828500000076	1	96	NA	170.313619207	0	0.41	3.89	1	168.516093498	168.518141783	"18"	3655.436625775	3652.520915713	1.5	0.1
0.01	1	0.00400876300000164	1	96	NA	170.313619207	0	0.41	3.89	1	168.749779303	168.753788066	"18"	3655.436625775	3652.520915713	1.5	0.1
0.01	1	0.00374846700015041	1	96	NA	170.313619207	0	0.41	3.89	1	168.983569875	168.987318342	"18"	3655.436625775	3652.520915713	1.5	0.1
0.01	1	0.00451566299989281	1	96	NA	170.313619207	0	0.41	3.89	1	169.21719483	169.221710493	"18"	3655.436625775	3652.520915713	1.5	0.1
0.01	1	0.861113854999985	2	96	NA	170.313619207	0	0.41	3.89	1	169.450949953	170.312063808	"18"	3655.436625775	3652.520915713	1.5	0.1
0.01	1	0.274652564000007	1	91	NA	176.825202683	0	0.17	4.06	1	172.355812683	172.630465247	"19"	3655.436625775	3652.520915713	1.5	0.1
0.01	1	0.0227645129998564	1	91	NA	176.825202683	0	0.17	4.06	1	172.856694053	172.879458566	"19"	3655.436625775	3652.520915713	1.5	0.1
0.01	1	0.00316270599978452	1	91	NA	176.825202683	0	0.17	4.06	1	173.107035078	173.110197784	"19"	3655.436625775	3652.520915713	1.5	0.1
0.01	1	0.00999749399989014	1	91	NA	176.825202683	0	0.17	4.06	1	173.340752898	173.350750392	"19"	3655.436625775	3652.520915713	1.5	0.1
0.01	1	0.0251431049996427	1	91	NA	176.825202683	0	0.17	4.06	1	173.574635877	173.599778982	"19"	3655.436625775	3652.520915713	1.5	0.1
0.01	1	0.0218849080001746	1	91	NA	176.825202683	0	0.17	4.06	1	173.825018533	173.846903441	"19"	3655.436625775	3652.520915713	1.5	0.1
0.01	1	0.026912553999864	1	91	NA	176.825202683	0	0.17	4.06	1	174.075308383	174.102220937	"19"	3655.436625775	3652.520915713	1.5	0.1
0.01	1	0.0179087259998596	1	91	NA	176.825202683	0	0.17	4.06	1	174.325826368	174.343735094	"19"	3655.436625775	3652.520915713	1.5	0.1
0.01	1	0.0153407259999767	1	91	NA	176.825202683	0	0.17	4.06	1	174.57629103	174.591631756	"19"	3655.436625775	3652.520915713	1.5	0.1
0.01	1	0.0123104369999965	1	91	NA	176.825202683	0	0.17	4.06	1	174.826576815	174.838887252	"19"	3655.436625775	3652.520915713	1.5	0.1
0.01	1	0.0178518019997682	1	91	NA	176.825202683	0	0.17	4.06	1	175.077049683	175.094901485	"19"	3655.436625775	3652.520915713	1.5	0.1
0.01	1	0.00392466499988586	1	91	NA	176.825202683	0	0.17	4.06	1	175.327447913	175.331372578	"19"	3655.436625775	3652.520915713	1.5	0.1
0.01	1	0.0303225440002279	1	91	NA	176.825202683	0	0.17	4.06	1	175.56126289	175.591585434	"19"	3655.436625775	3652.520915713	1.5	0.1
0.01	1	0.00220743699992454	1	91	NA	176.825202683	0	0.17	4.06	1	175.828229926	175.830437363	"19"	3655.436625775	3652.520915713	1.5	0.1
0.01	1	0.00235452900005839	1	91	NA	176.825202683	0	0.17	4.06	1	176.062035996	176.064390525	"19"	3655.436625775	3652.520915713	1.5	0.1
0.01	1	0.0034204899998258	1	91	NA	176.825202683	0	0.17	4.06	1	176.295774748	176.299195238	"19"	3655.436625775	3652.520915713	1.5	0.1
0.01	1	0.00464873999999327	1	91	NA	176.825202683	0	0.17	4.06	1	176.529487868	176.534136608	"19"	3655.436625775	3652.520915713	1.5	0.1
0.01	1	0.0604620369999793	2	91	NA	176.825202683	0	0.17	4.06	1	176.763197758	176.823659795	"19"	3655.436625775	3652.520915713	1.5	0.1
0.01	1	0.00206836300003488	1	5	179.971584068	NA	1	0	4.06	1	178.850118168	178.852186531	"20"	3655.436625775	3652.520915713	1.5	0.1
0.01	1	0.0127603989999443	1	5	179.971584068	NA	1	0	4.06	1	179.083787324	179.096547723	"20"	3655.436625775	3652.520915713	1.5	0.1
0.01	1	0.0252763349999441	1	5	179.971584068	NA	1	0	4.06	1	179.334270808	179.359547143	"20"	3655.436625775	3652.520915713	1.5	0.1
0.01	1	0.0377973690001454	1	5	179.971584068	NA	1	0	4.06	1	179.584567908	179.622365277	"20"	3655.436625775	3652.520915713	1.5	0.1
0.01	1	0.0117295690001811	1	5	179.971584068	NA	1	0	4.06	1	179.851724325	179.863453894	"20"	3655.436625775	3652.520915713	1.5	0.1
0.01	1	0.146325768999759	1	123	NA	192.04885199	0	0.38	4.44	1	182.005364763	182.151690532	"21"	3655.436625775	3652.520915713	1.5	0.1
0.01	1	0.02528712000003	1	123	NA	192.04885199	0	0.38	4.44	1	182.389410538	182.414697658	"21"	3655.436625775	3652.520915713	1.5	0.1
0.01	1	0.0307073369999671	1	123	NA	192.04885199	0	0.38	4.44	1	182.639692988	182.670400325	"21"	3655.436625775	3652.520915713	1.5	0.1
0.01	1	0.0195856730001651	1	123	NA	192.04885199	0	0.38	4.44	1	182.906933155	182.926518828	"21"	3655.436625775	3652.520915713	1.5	0.1
0.01	1	0.0345795969997198	1	123	NA	192.04885199	0	0.38	4.44	1	183.157327025	183.191906622	"21"	3655.436625775	3652.520915713	1.5	0.1
0.01	1	0.0231284739998046	1	123	NA	192.04885199	0	0.38	4.44	1	183.424471058	183.447599532	"21"	3655.436625775	3652.520915713	1.5	0.1
0.01	1	0.0211828340002285	1	123	NA	192.04885199	0	0.38	4.44	1	183.674916005	183.696098839	"21"	3655.436625775	3652.520915713	1.5	0.1
0.01	1	0.00323467399994115	1	123	NA	192.04885199	0	0.38	4.44	1	183.925212256	183.92844693	"21"	3655.436625775	3652.520915713	1.5	0.1
0.01	1	0.0110665410002184	1	123	NA	192.04885199	0	0.38	4.44	1	184.159045593	184.170112134	"21"	3655.436625775	3652.520915713	1.5	0.1
0.01	1	0.0141020989999561	1	123	NA	192.04885199	0	0.38	4.44	1	184.392780758	184.406882857	"21"	3655.436625775	3652.520915713	1.5	0.1
0.01	1	0.00679006900008972	1	123	NA	192.04885199	0	0.38	4.44	1	184.643107465	184.649897534	"21"	3655.436625775	3652.520915713	1.5	0.1
0.01	1	0.0177682190001178	1	123	NA	192.04885199	0	0.38	4.44	1	184.876947935	184.894716154	"21"	3655.436625775	3652.520915713	1.5	0.1
0.01	1	0.00373920099991665	1	123	NA	192.04885199	0	0.38	4.44	1	185.127216703	185.130955904	"21"	3655.436625775	3652.520915713	1.5	0.1
0.01	1	0.0144769660000748	1	123	NA	192.04885199	0	0.38	4.44	1	185.36097037	185.375447336	"21"	3655.436625775	3652.520915713	1.5	0.1
0.01	1	0.00299059000008128	1	123	NA	192.04885199	0	0.38	4.44	1	185.611463738	185.614454328	"21"	3655.436625775	3652.520915713	1.5	0.1
0.01	1	0.0341733589998512	1	123	NA	192.04885199	0	0.38	4.44	1	185.845214118	185.879387477	"21"	3655.436625775	3652.520915713	1.5	0.1
0.01	1	0.0158107990000644	1	123	NA	192.04885199	0	0.38	4.44	1	186.112261185	186.128071984	"21"	3655.436625775	3652.520915713	1.5	0.1
0.01	1	0.0115993979998166	1	123	NA	192.04885199	0	0.38	4.44	1	186.362660578	186.374259976	"21"	3655.436625775	3652.520915713	1.5	0.1
0.01	1	0.0588026890000037	1	123	NA	192.04885199	0	0.38	4.44	1	186.596422253	186.655224942	"21"	3655.436625775	3652.520915713	1.5	0.1
0.01	1	0.0236275019997265	1	123	NA	192.04885199	0	0.38	4.44	1	186.880309255	186.903936757	"21"	3655.436625775	3652.520915713	1.5	0.1
0.01	1	0.0135748899997452	1	123	NA	192.04885199	0	0.38	4.44	1	187.130637213	187.144212103	"21"	3655.436625775	3652.520915713	1.5	0.1
0.01	1	0.0176565020001362	1	123	NA	192.04885199	0	0.38	4.44	1	187.381072928	187.39872943	"21"	3655.436625775	3652.520915713	1.5	0.1
0.01	1	0.00822302200003833	1	123	NA	192.04885199	0	0.38	4.44	1	187.631565418	187.63978844	"21"	3655.436625775	3652.520915713	1.5	0.1
0.01	1	0.00222556799963058	1	123	NA	192.04885199	0	0.38	4.44	1	187.865201329	187.867426897	"21"	3655.436625775	3652.520915713	1.5	0.1
0.01	1	0.0116559209996012	1	123	NA	192.04885199	0	0.38	4.44	1	188.098958285	188.110614206	"21"	3655.436625775	3652.520915713	1.5	0.1
0.01	1	0.00464960499994049	1	123	NA	192.04885199	0	0.38	4.44	1	188.349450128	188.354099733	"21"	3655.436625775	3652.520915713	1.5	0.1
0.01	1	0.00376667000000452	1	123	NA	192.04885199	0	0.38	4.44	1	188.583185178	188.586951848	"21"	3655.436625775	3652.520915713	1.5	0.1
0.01	1	0.00394602400001531	1	123	NA	192.04885199	0	0.38	4.44	1	188.816914198	188.820860222	"21"	3655.436625775	3652.520915713	1.5	0.1
0.01	1	0.115827291000187	1	123	NA	192.04885199	0	0.38	4.44	1	189.050551238	189.166378529	"21"	3655.436625775	3652.520915713	1.5	0.1
0.01	1	0.0046079019998615	1	123	NA	192.04885199	0	0.38	4.44	1	189.401137148	189.40574505	"21"	3655.436625775	3652.520915713	1.5	0.1
0.01	1	0.00201832399989144	1	123	NA	192.04885199	0	0.38	4.44	1	189.634959164	189.636977488	"21"	3655.436625775	3652.520915713	1.5	0.1
0.01	1	0.00392228800001249	1	123	NA	192.04885199	0	0.38	4.44	1	189.868547638	189.872469926	"21"	3655.436625775	3652.520915713	1.5	0.1
0.01	1	0.145340102999853	1	123	NA	192.04885199	0	0.38	4.44	1	190.102298303	190.247638406	"21"	3655.436625775	3652.520915713	1.5	0.1
0.01	1	0.00403725699970892	1	123	NA	192.04885199	0	0.38	4.44	1	190.469645563	190.47368282	"21"	3655.436625775	3652.520915713	1.5	0.1
0.01	1	0.00369698299982701	1	123	NA	192.04885199	0	0.38	4.44	1	190.703264525	190.706961508	"21"	3655.436625775	3652.520915713	1.5	0.1
0.01	1	0.00816877999977805	1	123	NA	192.04885199	0	0.38	4.44	1	190.937159158	190.945327938	"21"	3655.436625775	3652.520915713	1.5	0.1
0.01	1	0.00201595599992288	1	123	NA	192.04885199	0	0.38	4.44	1	191.170848048	191.172864004	"21"	3655.436625775	3652.520915713	1.5	0.1
0.01	1	0.00305520199981402	1	123	NA	192.04885199	0	0.38	4.44	1	191.404502914	191.407558116	"21"	3655.436625775	3652.520915713	1.5	0.1
0.01	1	0.409030369999982	2	123	NA	192.04885199	0	0.38	4.44	1	191.638217813	192.047248183	"21"	3655.436625775	3652.520915713	1.5	0.1
0.01	1	0.0509618220003176	1	81	NA	197.120350963	0	0.12	4.56	1	194.092296468	194.14325829	"22"	3655.436625775	3652.520915713	1.5	0.1
0.01	1	0.00730144800036214	1	81	NA	197.120350963	0	0.12	4.56	1	194.376247718	194.383549166	"22"	3655.436625775	3652.520915713	1.5	0.1
0.01	1	0.00711939300026643	1	81	NA	197.120350963	0	0.12	4.56	1	194.609831115	194.616950508	"22"	3655.436625775	3652.520915713	1.5	0.1
0.01	1	0.0020829740001318	1	81	NA	197.120350963	0	0.12	4.56	1	194.843726148	194.845809122	"22"	3655.436625775	3652.520915713	1.5	0.1
0.01	1	0.00210917399999744	1	81	NA	197.120350963	0	0.12	4.56	1	195.077379703	195.079488877	"22"	3655.436625775	3652.520915713	1.5	0.1
0.01	1	0.00390125300009458	1	81	NA	197.120350963	0	0.12	4.56	1	195.310991663	195.314892916	"22"	3655.436625775	3652.520915713	1.5	0.1
0.01	1	0.00463673500007644	1	81	NA	197.120350963	0	0.12	4.56	1	195.544915478	195.549552213	"22"	3655.436625775	3652.520915713	1.5	0.1
0.01	1	0.00448173400036467	1	81	NA	197.120350963	0	0.12	4.56	1	195.778555264	195.783036998	"22"	3655.436625775	3652.520915713	1.5	0.1
0.01	1	0.0829636429998573	1	81	NA	197.120350963	0	0.12	4.56	1	196.012305523	196.095269166	"22"	3655.436625775	3652.520915713	1.5	0.1
0.01	1	0.00368879799998467	1	81	NA	197.120350963	0	0.12	4.56	1	196.32951161	196.333200408	"22"	3655.436625775	3652.520915713	1.5	0.1
0.01	1	0.0752894580000429	1	81	NA	197.120350963	0	0.12	4.56	1	196.563198878	196.638488336	"22"	3655.436625775	3652.520915713	1.5	0.1
0.01	1	0.00209178599970983	1	81	NA	197.120350963	0	0.12	4.56	1	196.863764166	196.865855952	"22"	3655.436625775	3652.520915713	1.5	0.1
0.01	1	0.0214026700000431	2	81	NA	197.120350963	0	0.12	4.56	1	197.097429993	197.118832663	"22"	3655.436625775	3652.520915713	1.5	0.1
0.01	1	0.00389302900020994	1	117	NA	208.576699489	0	0.37	4.93	1	199.167563513	199.171456542	"23"	3655.436625775	3652.520915713	1.5	0.1
0.01	1	0.00401536400022451	1	117	NA	208.576699489	0	0.37	4.93	1	199.401224838	199.405240202	"23"	3655.436625775	3652.520915713	1.5	0.1
0.01	1	0.00461580699993647	1	117	NA	208.576699489	0	0.37	4.93	1	199.635053223	199.63966903	"23"	3655.436625775	3652.520915713	1.5	0.1
0.01	1	0.00434558100005233	1	117	NA	208.576699489	0	0.37	4.93	1	199.868707644	199.873053225	"23"	3655.436625775	3652.520915713	1.5	0.1
0.01	1	0.00398102899998776	1	117	NA	208.576699489	0	0.37	4.93	1	200.102442035	200.106423064	"23"	3655.436625775	3652.520915713	1.5	0.1
0.01	1	0.00436941199995999	1	117	NA	208.576699489	0	0.37	4.93	1	200.336246503	200.340615915	"23"	3655.436625775	3652.520915713	1.5	0.1
0.01	1	0.0044724839999617	1	117	NA	208.576699489	0	0.37	4.93	1	200.569943844	200.574416328	"23"	3655.436625775	3652.520915713	1.5	0.1
0.01	1	0.107499186000041	1	117	NA	208.576699489	0	0.37	4.93	1	200.803694908	200.911194094	"23"	3655.436625775	3652.520915713	1.5	0.1
0.01	1	0.00229617300010432	1	117	NA	208.576699489	0	0.37	4.93	1	201.1374753	201.139771473	"23"	3655.436625775	3652.520915713	1.5	0.1
0.01	1	0.00341977600010068	1	117	NA	208.576699489	0	0.37	4.93	1	201.371211906	201.374631682	"23"	3655.436625775	3652.520915713	1.5	0.1
0.01	1	0.00980873199978305	1	117	NA	208.576699489	0	0.37	4.93	1	201.604986488	201.61479522	"23"	3655.436625775	3652.520915713	1.5	0.1
0.01	1	0.00386466100007965	1	117	NA	208.576699489	0	0.37	4.93	1	201.838624415	201.842489076	"23"	3655.436625775	3652.520915713	1.5	0.1
0.01	1	0.0382538020003267	1	117	NA	208.576699489	0	0.37	4.93	1	202.072428915	202.110682717	"23"	3655.436625775	3652.520915713	1.5	0.1
0.01	1	0.00207479899972896	1	117	NA	208.576699489	0	0.37	4.93	1	202.339673363	202.341748162	"23"	3655.436625775	3652.520915713	1.5	0.1
0.01	1	0.00272746300015569	1	117	NA	208.576699489	0	0.37	4.93	1	202.573271502	202.575998965	"23"	3655.436625775	3652.520915713	1.5	0.1
0.01	1	0.00384346400005597	1	117	NA	208.576699489	0	0.37	4.93	1	202.8069938	202.810837264	"23"	3655.436625775	3652.520915713	1.5	0.1
0.01	1	0.0157015670001783	1	117	NA	208.576699489	0	0.37	4.93	1	203.040733498	203.056435065	"23"	3655.436625775	3652.520915713	1.5	0.1
0.01	1	0.0122618279997369	1	117	NA	208.576699489	0	0.37	4.93	1	203.291121813	203.303383641	"23"	3655.436625775	3652.520915713	1.5	0.1
0.01	1	0.0186863509998147	1	117	NA	208.576699489	0	0.37	4.93	1	203.54159555	203.560281901	"23"	3655.436625775	3652.520915713	1.5	0.1
0.01	1	0.0154292420002093	1	117	NA	208.576699489	0	0.37	4.93	1	203.792052415	203.807481657	"23"	3655.436625775	3652.520915713	1.5	0.1
0.01	1	0.0295734719998109	1	117	NA	208.576699489	0	0.37	4.93	1	204.042628428	204.0722019	"23"	3655.436625775	3652.520915713	1.5	0.1
0.01	1	0.00948459299979731	1	117	NA	208.576699489	0	0.37	4.93	1	204.309645063	204.319129656	"23"	3655.436625775	3652.520915713	1.5	0.1
0.01	1	0.0164357909998216	1	117	NA	208.576699489	0	0.37	4.93	1	204.543438553	204.559874344	"23"	3655.436625775	3652.520915713	1.5	0.1
0.01	1	0.0377562009998655	1	117	NA	208.576699489	0	0.37	4.93	1	204.793705283	204.831461484	"23"	3655.436625775	3652.520915713	1.5	0.1
0.01	1	0.0271506070002943	1	117	NA	208.576699489	0	0.37	4.93	1	205.060899055	205.088049662	"23"	3655.436625775	3652.520915713	1.5	0.1
0.01	1	0.0157770949999758	1	117	NA	208.576699489	0	0.37	4.93	1	205.311405408	205.327182503	"23"	3655.436625775	3652.520915713	1.5	0.1
0.01	1	0.030278239999916	1	117	NA	208.576699489	0	0.37	4.93	1	205.561722503	205.592000743	"23"	3655.436625775	3652.520915713	1.5	0.1
0.01	1	0.0269182060001185	1	117	NA	208.576699489	0	0.37	4.93	1	205.828802267	205.855720473	"23"	3655.436625775	3652.520915713	1.5	0.1
0.01	1	0.00204334699992614	1	117	NA	208.576699489	0	0.37	4.93	1	206.079207577	206.081250924	"23"	3655.436625775	3652.520915713	1.5	0.1
0.01	1	0.00219033600023977	1	117	NA	208.576699489	0	0.37	4.93	1	206.312921976	206.315112312	"23"	3655.436625775	3652.520915713	1.5	0.1
0.01	1	0.00209094800038656	1	117	NA	208.576699489	0	0.37	4.93	1	206.5467418	206.548832748	"23"	3655.436625775	3652.520915713	1.5	0.1
0.01	1	0.002225632000318	1	117	NA	208.576699489	0	0.37	4.93	1	206.780458931	206.782684563	"23"	3655.436625775	3652.520915713	1.5	0.1
0.01	1	0.00261313300006805	1	117	NA	208.576699489	0	0.37	4.93	1	207.014109912	207.016723045	"23"	3655.436625775	3652.520915713	1.5	0.1
0.01	1	0.0023663519996262	1	117	NA	208.576699489	0	0.37	4.93	1	207.247809966	207.250176318	"23"	3655.436625775	3652.520915713	1.5	0.1
0.01	1	0.0026523339997766	1	117	NA	208.576699489	0	0.37	4.93	1	207.481561256	207.48421359	"23"	3655.436625775	3652.520915713	1.5	0.1
0.01	1	0.00202411000009306	1	117	NA	208.576699489	0	0.37	4.93	1	207.715283382	207.717307492	"23"	3655.436625775	3652.520915713	1.5	0.1
0.01	1	0.00404705299979469	1	117	NA	208.576699489	0	0.37	4.93	1	207.948996723	207.953043776	"23"	3655.436625775	3652.520915713	1.5	0.1
0.01	1	0.39233255299996	2	117	NA	208.576699489	0	0.37	4.93	1	208.182808713	208.575141266	"23"	3655.436625775	3652.520915713	1.5	0.1
0.01	1	0.0046476019997499	1	84	NA	212.289301338	0	0.07	5	1	210.620115428	210.62476303	"24"	3655.436625775	3652.520915713	1.5	0.1
0.01	1	0.00461922499971479	1	84	NA	212.289301338	0	0.07	5	1	210.854010723	210.858629948	"24"	3655.436625775	3652.520915713	1.5	0.1
0.01	1	0.00201671700006045	1	84	NA	212.289301338	0	0.07	5	1	211.087618313	211.08963503	"24"	3655.436625775	3652.520915713	1.5	0.1
0.01	1	0.0021194710002419	1	84	NA	212.289301338	0	0.07	5	1	211.321398436	211.323517907	"24"	3655.436625775	3652.520915713	1.5	0.1
0.01	1	0.00213519099997939	1	84	NA	212.289301338	0	0.07	5	1	211.555083115	211.557218306	"24"	3655.436625775	3652.520915713	1.5	0.1
0.01	1	0.0046471499999825	1	84	NA	212.289301338	0	0.07	5	1	211.788927068	211.793574218	"24"	3655.436625775	3652.520915713	1.5	0.1
0.01	1	0.0022828009996374	1	84	NA	212.289301338	0	0.07	5	1	212.022501014	212.024783815	"24"	3655.436625775	3652.520915713	1.5	0.1
0.01	1	0.0314571590001833	2	84	NA	212.289301338	0	0.07	5	1	212.256270643	212.287727802	"24"	3655.436625775	3652.520915713	1.5	0.1
0.01	1	0.224718243999632	1	22	219.755309018	NA	1	0	5	1	214.326390128	214.551108372	"25"	3655.436625775	3652.520915713	1.5	0.1
0.01	1	0.0021171499997763	1	22	219.755309018	NA	1	0	5	1	214.777327783	214.779444933	"25"	3655.436625775	3652.520915713	1.5	0.1
0.01	1	0.00212041199984014	1	22	219.755309018	NA	1	0	5	1	215.010984466	215.013104878	"25"	3655.436625775	3652.520915713	1.5	0.1
0.01	1	0.00211262399989209	1	22	219.755309018	NA	1	0	5	1	215.244677643	215.246790267	"25"	3655.436625775	3652.520915713	1.5	0.1
0.01	1	0.0113167979998252	1	22	219.755309018	NA	1	0	5	1	215.478432398	215.489749196	"25"	3655.436625775	3652.520915713	1.5	0.1
0.01	1	0.015739387999929	1	22	219.755309018	NA	1	0	5	1	215.712216678	215.727956066	"25"	3655.436625775	3652.520915713	1.5	0.1
0.01	1	0.0117754530001548	1	22	219.755309018	NA	1	0	5	1	215.96255423	215.974329683	"25"	3655.436625775	3652.520915713	1.5	0.1
0.01	1	0.00208824600031221	1	22	219.755309018	NA	1	0	5	1	216.212909177	216.214997423	"25"	3655.436625775	3652.520915713	1.5	0.1
0.01	1	0.00392548799982251	1	22	219.755309018	NA	1	0	5	1	216.44666133	216.450586818	"25"	3655.436625775	3652.520915713	1.5	0.1
0.01	1	0.00203194300001996	1	22	219.755309018	NA	1	0	5	1	216.68034973	216.682381673	"25"	3655.436625775	3652.520915713	1.5	0.1
0.01	1	0.014040475999991	1	22	219.755309018	NA	1	0	5	1	216.914078952	216.928119428	"25"	3655.436625775	3652.520915713	1.5	0.1
0.01	1	0.0112011060000441	1	22	219.755309018	NA	1	0	5	1	217.164428015	217.175629121	"25"	3655.436625775	3652.520915713	1.5	0.1
0.01	1	0.0259311040003922	1	22	219.755309018	NA	1	0	5	1	217.398221868	217.424152972	"25"	3655.436625775	3652.520915713	1.5	0.1
0.01	1	0.0384210849997544	1	22	219.755309018	NA	1	0	5	1	217.648662683	217.687083768	"25"	3655.436625775	3652.520915713	1.5	0.1
0.01	1	0.011320939000143	1	22	219.755309018	NA	1	0	5	1	217.915830513	217.927151452	"25"	3655.436625775	3652.520915713	1.5	0.1
0.01	1	0.0101343800001814	1	22	219.755309018	NA	1	0	5	1	218.166254768	218.176389148	"25"	3655.436625775	3652.520915713	1.5	0.1
0.01	1	0.0314092089997757	1	22	219.755309018	NA	1	0	5	1	218.399920021	218.43132923	"25"	3655.436625775	3652.520915713	1.5	0.1
0.01	1	0.00728102199991554	1	22	219.755309018	NA	1	0	5	1	218.666962108	218.67424313	"25"	3655.436625775	3652.520915713	1.5	0.1
0.01	1	0.0432255929999883	1	22	219.755309018	NA	1	0	5	1	218.900800963	218.944026556	"25"	3655.436625775	3652.520915713	1.5	0.1
0.01	1	0.0027034489999096	1	22	219.755309018	NA	1	0	5	1	219.167808584	219.170512033	"25"	3655.436625775	3652.520915713	1.5	0.1
0.01	1	0.00818522100007613	1	22	219.755309018	NA	1	0	5	1	219.401593813	219.409779034	"25"	3655.436625775	3652.520915713	1.5	0.1
0.01	1	0.00769829000000755	1	22	219.755309018	NA	1	0	5	1	219.635376266	219.643074556	"25"	3655.436625775	3652.520915713	1.5	0.1
0.01	1	0.369474970999818	1	36	NA	228.887923347	0	0.24	5.24	1	221.805595648	222.175070619	"26"	3655.436625775	3652.520915713	1.5	0.1
0.01	1	0.0398297070000808	1	36	NA	228.887923347	0	0.24	5.24	1	222.406679035	222.446508742	"26"	3655.436625775	3652.520915713	1.5	0.1
0.01	1	0.00342057599982581	1	36	NA	228.887923347	0	0.24	5.24	1	222.673696582	222.677117158	"26"	3655.436625775	3652.520915713	1.5	0.1
0.01	1	0.00262543999997433	1	36	NA	228.887923347	0	0.24	5.24	1	222.90758599	222.91021143	"26"	3655.436625775	3652.520915713	1.5	0.1
0.01	1	0.00207223600000361	1	36	NA	228.887923347	0	0.24	5.24	1	223.141235622	223.143307858	"26"	3655.436625775	3652.520915713	1.5	0.1
0.01	1	0.00369185899990043	1	36	NA	228.887923347	0	0.24	5.24	1	223.374957283	223.378649142	"26"	3655.436625775	3652.520915713	1.5	0.1
0.01	1	0.00394926699982534	1	36	NA	228.887923347	0	0.24	5.24	1	223.608742245	223.612691512	"26"	3655.436625775	3652.520915713	1.5	0.1
0.01	1	0.00378988800002844	1	36	NA	228.887923347	0	0.24	5.24	1	223.842473358	223.846263246	"26"	3655.436625775	3652.520915713	1.5	0.1
0.01	1	0.00460608000003049	1	36	NA	228.887923347	0	0.24	5.24	1	224.076199813	224.080805893	"26"	3655.436625775	3652.520915713	1.5	0.1
0.01	1	0.0971338909998849	1	36	NA	228.887923347	0	0.24	5.24	1	224.309847725	224.406981616	"26"	3655.436625775	3652.520915713	1.5	0.1
0.01	1	0.00313401800030988	1	36	NA	228.887923347	0	0.24	5.24	1	224.643758506	224.646892524	"26"	3655.436625775	3652.520915713	1.5	0.1
0.01	1	0.00368699899991043	1	36	NA	228.887923347	0	0.24	5.24	1	224.877514045	224.881201044	"26"	3655.436625775	3652.520915713	1.5	0.1
0.01	1	0.00384673300004579	1	36	NA	228.887923347	0	0.24	5.24	1	225.111201955	225.115048688	"26"	3655.436625775	3652.520915713	1.5	0.1
0.01	1	0.0946594699998968	1	36	NA	228.887923347	0	0.24	5.24	1	225.344912818	225.439572288	"26"	3655.436625775	3652.520915713	1.5	0.1
0.01	1	0.00467981500014503	1	36	NA	228.887923347	0	0.24	5.24	1	225.678955688	225.683635503	"26"	3655.436625775	3652.520915713	1.5	0.1
0.01	1	0.0228707999999642	1	36	NA	228.887923347	0	0.24	5.24	1	225.912582893	225.935453693	"26"	3655.436625775	3652.520915713	1.5	0.1
0.01	1	0.00202568799977598	1	36	NA	228.887923347	0	0.24	5.24	1	226.163002218	226.165027906	"26"	3655.436625775	3652.520915713	1.5	0.1
0.01	1	0.0981358760000148	1	36	NA	228.887923347	0	0.24	5.24	1	226.396654998	226.494790874	"26"	3655.436625775	3652.520915713	1.5	0.1
0.01	1	0.00207083600025726	1	36	NA	228.887923347	0	0.24	5.24	1	226.730636117	226.732706953	"26"	3655.436625775	3652.520915713	1.5	0.1
0.01	1	0.0834664410003825	1	36	NA	228.887923347	0	0.24	5.24	1	226.964298695	227.047765136	"26"	3655.436625775	3652.520915713	1.5	0.1
0.01	1	0.00224674599985519	1	36	NA	228.887923347	0	0.24	5.24	1	227.281508464	227.28375521	"26"	3655.436625775	3652.520915713	1.5	0.1
0.01	1	0.043063605000043	1	36	NA	228.887923347	0	0.24	5.24	1	227.515227098	227.558290703	"26"	3655.436625775	3652.520915713	1.5	0.1
0.01	1	0.00212706999991497	1	36	NA	228.887923347	0	0.24	5.24	1	227.782388953	227.784516023	"26"	3655.436625775	3652.520915713	1.5	0.1
0.01	1	0.00458973500008142	1	36	NA	228.887923347	0	0.24	5.24	1	228.016140183	228.020729918	"26"	3655.436625775	3652.520915713	1.5	0.1
0.01	1	0.636560549000023	2	36	NA	228.887923347	0	0.24	5.24	1	228.249774923	228.886335472	"26"	3655.436625775	3652.520915713	1.5	0.1
0.01	1	0.11873413999956	1	124	NA	236.985681315	0	0.22	5.46	1	230.93763173	231.05636587	"27"	3655.436625775	3652.520915713	1.5	0.1
0.01	1	0.00204254099980972	1	124	NA	236.985681315	0	0.22	5.46	1	231.288315047	231.290357588	"27"	3655.436625775	3652.520915713	1.5	0.1
0.01	1	0.00208795700018527	1	124	NA	236.985681315	0	0.22	5.46	1	231.521972222	231.524060179	"27"	3655.436625775	3652.520915713	1.5	0.1
0.01	1	0.099017953999919	1	124	NA	236.985681315	0	0.22	5.46	1	231.755726673	231.854744627	"27"	3655.436625775	3652.520915713	1.5	0.1
0.01	1	0.00465963200031183	1	124	NA	236.985681315	0	0.22	5.46	1	232.089653138	232.09431277	"27"	3655.436625775	3652.520915713	1.5	0.1
0.01	1	0.00400128700039204	1	124	NA	236.985681315	0	0.22	5.46	1	232.323354673	232.32735596	"27"	3655.436625775	3652.520915713	1.5	0.1
0.01	1	0.00463795499990738	1	124	NA	236.985681315	0	0.22	5.46	1	232.557063343	232.561701298	"27"	3655.436625775	3652.520915713	1.5	0.1
0.01	1	0.00385003200017309	1	124	NA	236.985681315	0	0.22	5.46	1	232.79081839	232.794668422	"27"	3655.436625775	3652.520915713	1.5	0.1
0.01	1	0.00379849999990256	1	124	NA	236.985681315	0	0.22	5.46	1	233.024467148	233.028265648	"27"	3655.436625775	3652.520915713	1.5	0.1
0.01	1	0.00210123899978498	1	124	NA	236.985681315	0	0.22	5.46	1	233.258321828	233.260423067	"27"	3655.436625775	3652.520915713	1.5	0.1
0.01	1	0.00388103300019793	1	124	NA	236.985681315	0	0.22	5.46	1	233.491997495	233.495878528	"27"	3655.436625775	3652.520915713	1.5	0.1
0.01	1	0.00388590700003988	1	124	NA	236.985681315	0	0.22	5.46	1	233.725722313	233.72960822	"27"	3655.436625775	3652.520915713	1.5	0.1
0.01	1	0.00371585499988214	1	124	NA	236.985681315	0	0.22	5.46	1	233.959449513	233.963165368	"27"	3655.436625775	3652.520915713	1.5	0.1
0.01	1	0.00433634999990318	1	124	NA	236.985681315	0	0.22	5.46	1	234.193311803	234.197648153	"27"	3655.436625775	3652.520915713	1.5	0.1
0.01	1	0.00388009100015552	1	124	NA	236.985681315	0	0.22	5.46	1	234.426873983	234.430754074	"27"	3655.436625775	3652.520915713	1.5	0.1
0.01	1	0.00461489700001039	1	124	NA	236.985681315	0	0.22	5.46	1	234.660597668	234.665212565	"27"	3655.436625775	3652.520915713	1.5	0.1
0.01	1	0.00215994000018327	1	124	NA	236.985681315	0	0.22	5.46	1	234.894406078	234.896566018	"27"	3655.436625775	3652.520915713	1.5	0.1
0.01	1	0.00213496199967267	1	124	NA	236.985681315	0	0.22	5.46	1	235.128142755	235.130277717	"27"	3655.436625775	3652.520915713	1.5	0.1
0.01	1	0.00390063799977725	1	124	NA	236.985681315	0	0.22	5.46	1	235.36174686	235.365647498	"27"	3655.436625775	3652.520915713	1.5	0.1
0.01	1	0.146941819999938	1	124	NA	236.985681315	0	0.22	5.46	1	235.595516483	235.742458303	"27"	3655.436625775	3652.520915713	1.5	0.1
0.01	1	0.00465101500003584	1	124	NA	236.985681315	0	0.22	5.46	1	235.979510713	235.984161728	"27"	3655.436625775	3652.520915713	1.5	0.1
0.01	1	0.00401864300010857	1	124	NA	236.985681315	0	0.22	5.46	1	236.213171693	236.217190336	"27"	3655.436625775	3652.520915713	1.5	0.1
0.01	1	0.537138650999623	2	124	NA	236.985681315	0	0.22	5.46	1	236.446980728	236.984119379	"27"	3655.436625775	3652.520915713	1.5	0.1
0.01	1	0.475864538000224	1	13	242.827315545	NA	1	0	5.46	1	239.034659695	239.510524233	"28"	3655.436625775	3652.520915713	1.5	0.1
0.01	1	0.0464623419998134	1	13	242.827315545	NA	1	0	5.46	1	239.735823498	239.78228584	"28"	3655.436625775	3652.520915713	1.5	0.1
0.01	1	0.0680438250001316	1	13	242.827315545	NA	1	0	5.46	1	240.019668688	240.087712513	"28"	3655.436625775	3652.520915713	1.5	0.1
0.01	1	0.0391467599997668	1	13	242.827315545	NA	1	0	5.46	1	240.320114735	240.359261495	"28"	3655.436625775	3652.520915713	1.5	0.1
0.01	1	0.0751625379998586	1	13	242.827315545	NA	1	0	5.46	1	240.587295745	240.662458283	"28"	3655.436625775	3652.520915713	1.5	0.1
0.01	1	0.0234720210000887	1	13	242.827315545	NA	1	0	5.46	1	240.887801168	240.911273189	"28"	3655.436625775	3652.520915713	1.5	0.1
0.01	1	0.0209891030003746	1	13	242.827315545	NA	1	0	5.46	1	241.138181943	241.159171046	"28"	3655.436625775	3652.520915713	1.5	0.1
0.01	1	0.0268675540000913	1	13	242.827315545	NA	1	0	5.46	1	241.388502723	241.415370277	"28"	3655.436625775	3652.520915713	1.5	0.1
0.01	1	0.0642211620001945	1	13	242.827315545	NA	1	0	5.46	1	241.638998815	241.703219977	"28"	3655.436625775	3652.520915713	1.5	0.1
0.01	1	0.00209364900001674	1	13	242.827315545	NA	1	0	5.46	1	241.939518365	241.941612014	"28"	3655.436625775	3652.520915713	1.5	0.1
0.01	1	0.0341475099999116	1	13	242.827315545	NA	1	0	5.46	1	242.173162585	242.207310095	"28"	3655.436625775	3652.520915713	1.5	0.1
0.01	1	0.015652302000035	1	13	242.827315545	NA	1	0	5.46	1	242.44038907	242.456041372	"28"	3655.436625775	3652.520915713	1.5	0.1
0.01	1	0.0285323749999407	1	13	242.827315545	NA	1	0	5.46	1	242.690916236	242.719448611	"28"	3655.436625775	3652.520915713	1.5	0.1
0.01	1	0.114487313000154	1	125	NA	250.696733359	0	0.21	5.67	1	244.861176723	244.975664036	"29"	3655.436625775	3652.520915713	1.5	0.1
0.01	1	0.259859396000138	1	125	NA	250.696733359	0	0.21	5.67	1	245.211712898	245.471572294	"29"	3655.436625775	3652.520915713	1.5	0.1
0.01	1	0.00462107499970443	1	125	NA	250.696733359	0	0.21	5.67	1	245.712560798	245.717181873	"29"	3655.436625775	3652.520915713	1.5	0.1
0.01	1	0.00221967699962988	1	125	NA	250.696733359	0	0.21	5.67	1	245.946297108	245.948516785	"29"	3655.436625775	3652.520915713	1.5	0.1
0.01	1	0.00207761199999368	1	125	NA	250.696733359	0	0.21	5.67	1	246.179958075	246.182035687	"29"	3655.436625775	3652.520915713	1.5	0.1
0.01	1	0.00407811600007335	1	125	NA	250.696733359	0	0.21	5.67	1	246.41363225	246.417710366	"29"	3655.436625775	3652.520915713	1.5	0.1
0.01	1	0.00986610799964183	1	125	NA	250.696733359	0	0.21	5.67	1	246.647459818	246.657325926	"29"	3655.436625775	3652.520915713	1.5	0.1
0.01	1	0.0304870640002264	1	125	NA	250.696733359	0	0.21	5.67	1	246.88115115	246.911638214	"29"	3655.436625775	3652.520915713	1.5	0.1
0.01	1	0.00427288099990619	1	125	NA	250.696733359	0	0.21	5.67	1	247.148310933	247.152583814	"29"	3655.436625775	3652.520915713	1.5	0.1
0.01	1	0.0172253179998734	1	125	NA	250.696733359	0	0.21	5.67	1	247.381997418	247.399222736	"29"	3655.436625775	3652.520915713	1.5	0.1
0.01	1	0.023016048000045	1	125	NA	250.696733359	0	0.21	5.67	1	247.632372248	247.655388296	"29"	3655.436625775	3652.520915713	1.5	0.1
0.01	1	0.0134753480001564	1	125	NA	250.696733359	0	0.21	5.67	1	247.882888753	247.896364101	"29"	3655.436625775	3652.520915713	1.5	0.1
0.01	1	0.01886492299991	1	125	NA	250.696733359	0	0.21	5.67	1	248.133347965	248.152212888	"29"	3655.436625775	3652.520915713	1.5	0.1
0.01	1	0.0154436010002428	1	125	NA	250.696733359	0	0.21	5.67	1	248.383731645	248.399175246	"29"	3655.436625775	3652.520915713	1.5	0.1
0.01	1	0.0135390559998996	1	125	NA	250.696733359	0	0.21	5.67	1	248.634212753	248.647751809	"29"	3655.436625775	3652.520915713	1.5	0.1
0.01	1	0.011367299000085	1	125	NA	250.696733359	0	0.21	5.67	1	248.884545245	248.895912544	"29"	3655.436625775	3652.520915713	1.5	0.1
0.01	1	0.0326175250002052	1	125	NA	250.696733359	0	0.21	5.67	1	249.118267985	249.15088551	"29"	3655.436625775	3652.520915713	1.5	0.1
0.01	1	0.0132386320001388	1	125	NA	250.696733359	0	0.21	5.67	1	249.385354737	249.398593369	"29"	3655.436625775	3652.520915713	1.5	0.1
0.01	1	0.0188224360003915	1	125	NA	250.696733359	0	0.21	5.67	1	249.63577899	249.654601426	"29"	3655.436625775	3652.520915713	1.5	0.1
0.01	1	0.0111300119997395	1	125	NA	250.696733359	0	0.21	5.67	1	249.886320888	249.8974509	"29"	3655.436625775	3652.520915713	1.5	0.1
0.01	1	0.0161963520004065	1	125	NA	250.696733359	0	0.21	5.67	1	250.119879908	250.13607626	"29"	3655.436625775	3652.520915713	1.5	0.1
0.01	1	0.324732515000051	2	125	NA	250.696733359	0	0.21	5.67	1	250.370368608	250.695101123	"29"	3655.436625775	3652.520915713	1.5	0.1
0.01	1	0.00995510500024466	1	105	NA	264.921867086	0	0.45	6.12	1	252.740956055	252.75091116	"30"	3655.436625775	3652.520915713	1.5	0.1
0.01	1	0.0232660299998315	1	105	NA	264.921867086	0	0.45	6.12	1	252.991521843	253.014787873	"30"	3655.436625775	3652.520915713	1.5	0.1
0.01	1	0.0525902049998876	1	105	NA	264.921867086	0	0.45	6.12	1	253.241935645	253.29452585	"30"	3655.436625775	3652.520915713	1.5	0.1
0.01	1	0.041423026999837	1	105	NA	264.921867086	0	0.45	6.12	1	253.525727838	253.567150865	"30"	3655.436625775	3652.520915713	1.5	0.1
0.01	1	0.0302205090001735	1	105	NA	264.921867086	0	0.45	6.12	1	253.792836235	253.823056744	"30"	3655.436625775	3652.520915713	1.5	0.1
0.01	1	0.0193396500003473	1	105	NA	264.921867086	0	0.45	6.12	1	254.059957785	254.079297435	"30"	3655.436625775	3652.520915713	1.5	0.1
0.01	1	0.017651754000326	1	105	NA	264.921867086	0	0.45	6.12	1	254.310310985	254.327962739	"30"	3655.436625775	3652.520915713	1.5	0.1
0.01	1	0.0226139200003672	1	105	NA	264.921867086	0	0.45	6.12	1	254.560801063	254.583414983	"30"	3655.436625775	3652.520915713	1.5	0.1
0.01	1	0.0192025850001301	1	105	NA	264.921867086	0	0.45	6.12	1	254.811280153	254.830482738	"30"	3655.436625775	3652.520915713	1.5	0.1
0.01	1	0.00972051999997348	1	105	NA	264.921867086	0	0.45	6.12	1	255.061700713	255.071421233	"30"	3655.436625775	3652.520915713	1.5	0.1
0.01	1	0.0402112199999465	1	105	NA	264.921867086	0	0.45	6.12	1	255.295240738	255.335451958	"30"	3655.436625775	3652.520915713	1.5	0.1
0.01	1	0.021536474000186	1	105	NA	264.921867086	0	0.45	6.12	1	255.562415473	255.583951947	"30"	3655.436625775	3652.520915713	1.5	0.1
0.01	1	0.0119538779999857	1	105	NA	264.921867086	0	0.45	6.12	1	255.812807578	255.824761456	"30"	3655.436625775	3652.520915713	1.5	0.1
0.01	1	0.0112552170003255	1	105	NA	264.921867086	0	0.45	6.12	1	256.063262843	256.07451806	"30"	3655.436625775	3652.520915713	1.5	0.1
0.01	1	0.0304887589995815	1	105	NA	264.921867086	0	0.45	6.12	1	256.297036188	256.327524947	"30"	3655.436625775	3652.520915713	1.5	0.1
0.01	1	0.00372721000030651	1	105	NA	264.921867086	0	0.45	6.12	1	256.564157428	256.567884638	"30"	3655.436625775	3652.520915713	1.5	0.1
0.01	1	0.0327162489998045	1	105	NA	264.921867086	0	0.45	6.12	1	256.797788873	256.830505122	"30"	3655.436625775	3652.520915713	1.5	0.1
0.01	1	0.0465945819996705	1	105	NA	264.921867086	0	0.45	6.12	1	257.065005058	257.11159964	"30"	3655.436625775	3652.520915713	1.5	0.1
0.01	1	0.00221286199985116	1	105	NA	264.921867086	0	0.45	6.12	1	257.348787038	257.3509999	"30"	3655.436625775	3652.520915713	1.5	0.1
0.01	1	0.00439939500029141	1	105	NA	264.921867086	0	0.45	6.12	1	257.582435813	257.586835208	"30"	3655.436625775	3652.520915713	1.5	0.1
0.01	1	0.0155395689998841	1	105	NA	264.921867086	0	0.45	6.12	1	257.816184573	257.831724142	"30"	3655.436625775	3652.520915713	1.5	0.1
0.01	1	0.00342929399994318	1	105	NA	264.921867086	0	0.45	6.12	1	258.066598814	258.070028108	"30"	3655.436625775	3652.520915713	1.5	0.1
0.01	1	0.00381083900037993	1	105	NA	264.921867086	0	0.45	6.12	1	258.300393103	258.304203942	"30"	3655.436625775	3652.520915713	1.5	0.1
0.01	1	0.0040460609998263	1	105	NA	264.921867086	0	0.45	6.12	1	258.534013373	258.538059434	"30"	3655.436625775	3652.520915713	1.5	0.1
0.01	1	0.00371792700025253	1	105	NA	264.921867086	0	0.45	6.12	1	258.767748023	258.77146595	"30"	3655.436625775	3652.520915713	1.5	0.1
0.01	1	0.00339385400002357	1	105	NA	264.921867086	0	0.45	6.12	1	259.001552886	259.00494674	"30"	3655.436625775	3652.520915713	1.5	0.1
0.01	1	0.0367464870000731	1	105	NA	264.921867086	0	0.45	6.12	1	259.23520613	259.271952617	"30"	3655.436625775	3652.520915713	1.5	0.1
0.01	1	0.00379826300013519	1	105	NA	264.921867086	0	0.45	6.12	1	259.502291295	259.506089558	"30"	3655.436625775	3652.520915713	1.5	0.1
0.01	1	0.0022490999999718	1	105	NA	264.921867086	0	0.45	6.12	1	259.736004735	259.738253835	"30"	3655.436625775	3652.520915713	1.5	0.1
0.01	1	0.00344091600027241	1	105	NA	264.921867086	0	0.45	6.12	1	259.969812816	259.973253732	"30"	3655.436625775	3652.520915713	1.5	0.1
0.01	1	0.00431670100033443	1	105	NA	264.921867086	0	0.45	6.12	1	260.203589114	260.207905815	"30"	3655.436625775	3652.520915713	1.5	0.1
0.01	1	0.00201156399998581	1	105	NA	264.921867086	0	0.45	6.12	1	260.437284133	260.439295697	"30"	3655.436625775	3652.520915713	1.5	0.1
0.01	1	0.00404958500030261	1	105	NA	264.921867086	0	0.45	6.12	1	260.670992123	260.675041708	"30"	3655.436625775	3652.520915713	1.5	0.1
0.01	1	0.0153841520000242	1	105	NA	264.921867086	0	0.45	6.12	1	260.904708925	260.920093077	"30"	3655.436625775	3652.520915713	1.5	0.1
0.01	1	0.00328941999987364	1	105	NA	264.921867086	0	0.45	6.12	1	261.15515228	261.1584417	"30"	3655.436625775	3652.520915713	1.5	0.1
0.01	1	0.201885497999683	1	105	NA	264.921867086	0	0.45	6.12	1	261.388848975	261.590734473	"30"	3655.436625775	3652.520915713	1.5	0.1
0.01	1	0.015874667999924	1	105	NA	264.921867086	0	0.45	6.12	1	261.822922075	261.838796743	"30"	3655.436625775	3652.520915713	1.5	0.1
0.01	1	0.0449370449996422	1	105	NA	264.921867086	0	0.45	6.12	1	262.073359405	262.11829645	"30"	3655.436625775	3652.520915713	1.5	0.1
0.01	1	0.0195351409997784	1	105	NA	264.921867086	0	0.45	6.12	1	262.340508233	262.360043374	"30"	3655.436625775	3652.520915713	1.5	0.1
0.01	1	0.0234107969999968	1	105	NA	264.921867086	0	0.45	6.12	1	262.590976563	262.61438736	"30"	3655.436625775	3652.520915713	1.5	0.1
0.01	1	0.0700773830003527	1	105	NA	264.921867086	0	0.45	6.12	1	262.841333048	262.911410431	"30"	3655.436625775	3652.520915713	1.5	0.1
0.01	1	0.0343326850002086	1	105	NA	264.921867086	0	0.45	6.12	1	263.141791003	263.176123688	"30"	3655.436625775	3652.520915713	1.5	0.1
0.01	1	0.0544946899999559	1	105	NA	264.921867086	0	0.45	6.12	1	263.408975403	263.463470093	"30"	3655.436625775	3652.520915713	1.5	0.1
0.01	1	0.0259871539997221	1	105	NA	264.921867086	0	0.45	6.12	1	263.692812214	263.718799368	"30"	3655.436625775	3652.520915713	1.5	0.1
0.01	1	0.0327018719999614	1	105	NA	264.921867086	0	0.45	6.12	1	263.943291738	263.97599361	"30"	3655.436625775	3652.520915713	1.5	0.1
0.01	1	0.709887603000425	2	105	NA	264.921867086	0	0.45	6.12	1	264.21036789	264.920255493	"30"	3655.436625775	3652.520915713	1.5	0.1
