"payoff.level"	"balloon"	"rt"	"resp"	"explode.trial"	"explode.time"	"finish.time"	"exploded"	"trial.total"	"cumulative.total"	"finished"	"trial.start"	"trial.end"	"trial.num"	"secs"	"start.time"	"iti"	"isi"
0.01	1	1.18026488300001	1	64	NA	62.94654669	0	0.58	0.58	1	0.0176384850000204	1.19790336800003	"1"	917.708512107	915.436417093	1.5	0.1
0.01	1	0.892918276999978	1	64	NA	62.94654669	0	0.58	0.58	1	1.57019326900001	2.46311154599999	"1"	917.708512107	915.436417093	1.5	0.1
0.01	1	0.861011641000005	1	64	NA	62.94654669	0	0.58	0.58	1	2.68887679700003	3.54988843800004	"1"	917.708512107	915.436417093	1.5	0.1
0.01	1	0.839989285000001	1	64	NA	62.94654669	0	0.58	0.58	1	3.773971937	4.613961222	"1"	917.708512107	915.436417093	1.5	0.1
0.01	1	0.851983937999989	1	64	NA	62.94654669	0	0.58	0.58	1	4.84244662000003	5.69443055800002	"1"	917.708512107	915.436417093	1.5	0.1
0.01	1	0.773637806000011	1	64	NA	62.94654669	0	0.58	0.58	1	5.927679942	6.70131774800001	"1"	917.708512107	915.436417093	1.5	0.1
0.01	1	0.733661972999982	1	64	NA	62.94654669	0	0.58	0.58	1	6.92930146700002	7.66296344	"1"	917.708512107	915.436417093	1.5	0.1
0.01	1	0.627921941000011	1	64	NA	62.94654669	0	0.58	0.58	1	7.89763263600003	8.52555457700004	"1"	917.708512107	915.436417093	1.5	0.1
0.01	1	0.641665370999988	1	64	NA	62.94654669	0	0.58	0.58	1	8.74908738700003	9.39075275800002	"1"	917.708512107	915.436417093	1.5	0.1
0.01	1	0.565885787000013	1	64	NA	62.94654669	0	0.58	0.58	1	9.61715858000002	10.183044367	"1"	917.708512107	915.436417093	1.5	0.1
0.01	1	0.619533242999978	1	64	NA	62.94654669	0	0.58	0.58	1	10.418495977	11.03802922	"1"	917.708512107	915.436417093	1.5	0.1
0.01	1	0.592683599999987	1	64	NA	62.94654669	0	0.58	0.58	1	11.270055892	11.862739492	"1"	917.708512107	915.436417093	1.5	0.1
0.01	1	0.598614433000023	1	64	NA	62.94654669	0	0.58	0.58	1	12.087954835	12.686569268	"1"	917.708512107	915.436417093	1.5	0.1
0.01	1	0.595784444999993	1	64	NA	62.94654669	0	0.58	0.58	1	12.922627325	13.51841177	"1"	917.708512107	915.436417093	1.5	0.1
0.01	1	0.576858114000004	1	64	NA	62.94654669	0	0.58	0.58	1	13.74070882	14.317566934	"1"	917.708512107	915.436417093	1.5	0.1
0.01	1	0.559980329999973	1	64	NA	62.94654669	0	0.58	0.58	1	14.542174362	15.102154692	"1"	917.708512107	915.436417093	1.5	0.1
0.01	1	0.583800350999979	1	64	NA	62.94654669	0	0.58	0.58	1	15.326653555	15.910453906	"1"	917.708512107	915.436417093	1.5	0.1
0.01	1	0.564415730000007	1	64	NA	62.94654669	0	0.58	0.58	1	16.144766867	16.709182597	"1"	917.708512107	915.436417093	1.5	0.1
0.01	1	0.555164768999987	1	64	NA	62.94654669	0	0.58	0.58	1	16.94612892	17.501293689	"1"	917.708512107	915.436417093	1.5	0.1
0.01	1	0.579193975999999	1	64	NA	62.94654669	0	0.58	0.58	1	17.730898395	18.310092371	"1"	917.708512107	915.436417093	1.5	0.1
0.01	1	0.58681186299998	1	64	NA	62.94654669	0	0.58	0.58	1	18.532081865	19.118893728	"1"	917.708512107	915.436417093	1.5	0.1
0.01	1	0.439521780999996	1	64	NA	62.94654669	0	0.58	0.58	1	19.350230965	19.789752746	"1"	917.708512107	915.436417093	1.5	0.1
0.01	1	0.325071159000004	1	64	NA	62.94654669	0	0.58	0.58	1	20.017945397	20.343016556	"1"	917.708512107	915.436417093	1.5	0.1
0.01	1	0.268906809999976	1	64	NA	62.94654669	0	0.58	0.58	1	20.568989425	20.837896235	"1"	917.708512107	915.436417093	1.5	0.1
0.01	1	0.265255547000038	1	64	NA	62.94654669	0	0.58	0.58	1	21.069712477	21.334968024	"1"	917.708512107	915.436417093	1.5	0.1
0.01	1	0.211873782999987	1	64	NA	62.94654669	0	0.58	0.58	1	21.57059472	21.782468503	"1"	917.708512107	915.436417093	1.5	0.1
0.01	1	0.31328785300002	1	64	NA	62.94654669	0	0.58	0.58	1	22.004677002	22.317964855	"1"	917.708512107	915.436417093	1.5	0.1
0.01	1	0.307402307000018	1	64	NA	62.94654669	0	0.58	0.58	1	22.555595967	22.862998274	"1"	917.708512107	915.436417093	1.5	0.1
0.01	1	0.275771253999949	1	64	NA	62.94654669	0	0.58	0.58	1	23.0897629	23.365534154	"1"	917.708512107	915.436417093	1.5	0.1
0.01	1	0.271780718999992	1	64	NA	62.94654669	0	0.58	0.58	1	23.590686667	23.862467386	"1"	917.708512107	915.436417093	1.5	0.1
0.01	1	0.267513858000029	1	64	NA	62.94654669	0	0.58	0.58	1	24.09152221	24.359036068	"1"	917.708512107	915.436417093	1.5	0.1
0.01	1	0.237095510000017	1	64	NA	62.94654669	0	0.58	0.58	1	24.592313285	24.829408795	"1"	917.708512107	915.436417093	1.5	0.1
0.01	1	0.227363601999969	1	64	NA	62.94654669	0	0.58	0.58	1	25.059761415	25.287125017	"1"	917.708512107	915.436417093	1.5	0.1
0.01	1	0.279731508999987	1	64	NA	62.94654669	0	0.58	0.58	1	25.527239465	25.806970974	"1"	917.708512107	915.436417093	1.5	0.1
0.01	1	0.296496818000037	1	64	NA	62.94654669	0	0.58	0.58	1	26.044797507	26.341294325	"1"	917.708512107	915.436417093	1.5	0.1
0.01	1	0.346656725000003	1	64	NA	62.94654669	0	0.58	0.58	1	26.579043455	26.92570018	"1"	917.708512107	915.436417093	1.5	0.1
0.01	1	0.250701837000008	1	64	NA	62.94654669	0	0.58	0.58	1	27.16331882	27.414020657	"1"	917.708512107	915.436417093	1.5	0.1
0.01	1	0.365881580999996	1	64	NA	62.94654669	0	0.58	0.58	1	27.647375257	28.013256838	"1"	917.708512107	915.436417093	1.5	0.1
0.01	1	0.237565616999973	1	64	NA	62.94654669	0	0.58	0.58	1	28.248526715	28.486092332	"1"	917.708512107	915.436417093	1.5	0.1
0.01	1	0.273286099000018	1	64	NA	62.94654669	0	0.58	0.58	1	28.715950546	28.989236645	"1"	917.708512107	915.436417093	1.5	0.1
0.01	1	0.28478096799995	1	64	NA	62.94654669	0	0.58	0.58	1	29.21691394	29.501694908	"1"	917.708512107	915.436417093	1.5	0.1
0.01	1	0.255122419999964	1	64	NA	62.94654669	0	0.58	0.58	1	29.734312862	29.989435282	"1"	917.708512107	915.436417093	1.5	0.1
0.01	1	0.28304313000001	1	64	NA	62.94654669	0	0.58	0.58	1	30.218484922	30.501528052	"1"	917.708512107	915.436417093	1.5	0.1
0.01	1	0.239028359000031	1	64	NA	62.94654669	0	0.58	0.58	1	30.735997215	30.975025574	"1"	917.708512107	915.436417093	1.5	0.1
0.01	1	0.371439790000011	1	64	NA	62.94654669	0	0.58	0.58	1	31.20349043	31.57493022	"1"	917.708512107	915.436417093	1.5	0.1
0.01	1	0.345569000000012	1	64	NA	62.94654669	0	0.58	0.58	1	31.804455185	32.150024185	"1"	917.708512107	915.436417093	1.5	0.1
0.01	1	0.322648675000039	1	64	NA	62.94654669	0	0.58	0.58	1	32.372005	32.694653675	"1"	917.708512107	915.436417093	1.5	0.1
0.01	1	0.338178815999981	1	64	NA	62.94654669	0	0.58	0.58	1	32.923067282	33.261246098	"1"	917.708512107	915.436417093	1.5	0.1
0.01	1	0.315950530999999	1	64	NA	62.94654669	0	0.58	0.58	1	33.490709017	33.806659548	"1"	917.708512107	915.436417093	1.5	0.1
0.01	1	0.301715786000045	1	64	NA	62.94654669	0	0.58	0.58	1	34.041548767	34.343264553	"1"	917.708512107	915.436417093	1.5	0.1
0.01	1	0.294084833999989	1	64	NA	62.94654669	0	0.58	0.58	1	34.57582844	34.869913274	"1"	917.708512107	915.436417093	1.5	0.1
0.01	1	0.31308422699999	1	64	NA	62.94654669	0	0.58	0.58	1	35.09338694	35.406471167	"1"	917.708512107	915.436417093	1.5	0.1
0.01	1	0.330161778000047	1	64	NA	62.94654669	0	0.58	0.58	1	35.64418915	35.974350928	"1"	917.708512107	915.436417093	1.5	0.1
0.01	1	0.242432416999975	1	64	NA	62.94654669	0	0.58	0.58	1	36.2119046	36.454337017	"1"	917.708512107	915.436417093	1.5	0.1
0.01	1	0.31004999999999	1	64	NA	62.94654669	0	0.58	0.58	1	36.679306055	36.989356055	"1"	917.708512107	915.436417093	1.5	0.1
0.01	1	0.271128989000033	1	64	NA	62.94654669	0	0.58	0.58	1	37.230219965	37.501348954	"1"	917.708512107	915.436417093	1.5	0.1
0.01	1	0.235370743000033	1	64	NA	62.94654669	0	0.58	0.58	1	37.73105718	37.966427923	"1"	917.708512107	915.436417093	1.5	0.1
0.01	1	0.223155296999948	1	64	NA	62.94654669	0	0.58	0.58	1	38.198603775	38.421759072	"1"	917.708512107	915.436417093	1.5	0.1
0.01	1	24.295677267	2	64	NA	62.94654669	0	0.58	0.58	1	38.649252425	62.944929692	"1"	917.708512107	915.436417093	1.5	0.1
0.01	1	1.35893211200005	1	102	NA	97.675413997	0	0.6	1.18	1	64.99364748	66.352579592	"2"	917.708512107	915.436417093	1.5	0.1
0.01	1	0.229231174999995	1	102	NA	97.675413997	0	0.6	1.18	1	66.57964456	66.808875735	"2"	917.708512107	915.436417093	1.5	0.1
0.01	1	0.241381040000022	1	102	NA	97.675413997	0	0.6	1.18	1	67.047195	67.28857604	"2"	917.708512107	915.436417093	1.5	0.1
0.01	1	0.223826989000031	1	102	NA	97.675413997	0	0.6	1.18	1	67.514470916	67.738297905	"2"	917.708512107	915.436417093	1.5	0.1
0.01	1	0.260753525999974	1	102	NA	97.675413997	0	0.6	1.18	1	67.96541416	68.226167686	"2"	917.708512107	915.436417093	1.5	0.1
0.01	1	0.207891441000015	1	102	NA	97.675413997	0	0.6	1.18	1	68.449495677	68.657387118	"2"	917.708512107	915.436417093	1.5	0.1
0.01	1	0.253341905000013	1	102	NA	97.675413997	0	0.6	1.18	1	68.88359063	69.136932535	"2"	917.708512107	915.436417093	1.5	0.1
0.01	1	0.122503583000025	1	102	NA	97.675413997	0	0.6	1.18	1	69.36768807	69.490191653	"2"	917.708512107	915.436417093	1.5	0.1
0.01	1	0.0993731570000023	1	102	NA	97.675413997	0	0.6	1.18	1	69.718247377	69.817620534	"2"	917.708512107	915.436417093	1.5	0.1
0.01	1	0.118100410000011	1	102	NA	97.675413997	0	0.6	1.18	1	70.0522644	70.17036481	"2"	917.708512107	915.436417093	1.5	0.1
0.01	1	0.103427709000016	1	102	NA	97.675413997	0	0.6	1.18	1	70.402750229	70.506177938	"2"	917.708512107	915.436417093	1.5	0.1
0.01	1	0.0656086480000226	1	102	NA	97.675413997	0	0.6	1.18	1	70.736628767	70.802237415	"2"	917.708512107	915.436417093	1.5	0.1
0.01	1	0.108961761000046	1	102	NA	97.675413997	0	0.6	1.18	1	71.037172705	71.146134466	"2"	917.708512107	915.436417093	1.5	0.1
0.01	1	0.102579086999981	1	102	NA	97.675413997	0	0.6	1.18	1	71.37102827	71.473607357	"2"	917.708512107	915.436417093	1.5	0.1
0.01	1	0.112165440000012	1	102	NA	97.675413997	0	0.6	1.18	1	71.70493705	71.81710249	"2"	917.708512107	915.436417093	1.5	0.1
0.01	1	0.106137783999998	1	102	NA	97.675413997	0	0.6	1.18	1	72.055559602	72.161697386	"2"	917.708512107	915.436417093	1.5	0.1
0.01	1	0.212997413999972	1	102	NA	97.675413997	0	0.6	1.18	1	72.389365985	72.602363399	"2"	917.708512107	915.436417093	1.5	0.1
0.01	1	0.136369946000002	1	102	NA	97.675413997	0	0.6	1.18	1	72.840271222	72.976641168	"2"	917.708512107	915.436417093	1.5	0.1
0.01	1	0.122511328999963	1	102	NA	97.675413997	0	0.6	1.18	1	73.20749117	73.330002499	"2"	917.708512107	915.436417093	1.5	0.1
0.01	1	0.107966989999966	1	102	NA	97.675413997	0	0.6	1.18	1	73.558161355	73.666128345	"2"	917.708512107	915.436417093	1.5	0.1
0.01	1	0.0614218669999786	1	102	NA	97.675413997	0	0.6	1.18	1	73.891959425	73.953381292	"2"	917.708512107	915.436417093	1.5	0.1
0.01	1	0.129371917000014	1	102	NA	97.675413997	0	0.6	1.18	1	74.175710497	74.305082414	"2"	917.708512107	915.436417093	1.5	0.1
0.01	1	0.0747882250000202	1	102	NA	97.675413997	0	0.6	1.18	1	74.54296809	74.617756315	"2"	917.708512107	915.436417093	1.5	0.1
0.01	1	0.11778370799999	1	102	NA	97.675413997	0	0.6	1.18	1	74.843564077	74.961347785	"2"	917.708512107	915.436417093	1.5	0.1
0.01	1	0.087737795999999	1	102	NA	97.675413997	0	0.6	1.18	1	75.19408495	75.281822746	"2"	917.708512107	915.436417093	1.5	0.1
0.01	1	0.0978166010000336	1	102	NA	97.675413997	0	0.6	1.18	1	75.511403649	75.60922025	"2"	917.708512107	915.436417093	1.5	0.1
0.01	1	0.468688260000022	1	102	NA	97.675413997	0	0.6	1.18	1	75.845230947	76.313919207	"2"	917.708512107	915.436417093	1.5	0.1
0.01	1	0.222180930999968	1	102	NA	97.675413997	0	0.6	1.18	1	76.546466897	76.768647828	"2"	917.708512107	915.436417093	1.5	0.1
0.01	1	0.21962371699999	1	102	NA	97.675413997	0	0.6	1.18	1	76.99724672	77.216870437	"2"	917.708512107	915.436417093	1.5	0.1
0.01	1	0.289413937000006	1	102	NA	97.675413997	0	0.6	1.18	1	77.44787252	77.737286457	"2"	917.708512107	915.436417093	1.5	0.1
0.01	1	0.443765083000017	1	102	NA	97.675413997	0	0.6	1.18	1	77.9654923	78.409257383	"2"	917.708512107	915.436417093	1.5	0.1
0.01	1	0.599561133999998	1	102	NA	97.675413997	0	0.6	1.18	1	78.63315682	79.232717954	"2"	917.708512107	915.436417093	1.5	0.1
0.01	1	0.605402409000021	1	102	NA	97.675413997	0	0.6	1.18	1	79.467941257	80.073343666	"2"	917.708512107	915.436417093	1.5	0.1
0.01	1	0.547319689000005	1	102	NA	97.675413997	0	0.6	1.18	1	80.302731827	80.850051516	"2"	917.708512107	915.436417093	1.5	0.1
0.01	1	0.50664230000001	1	102	NA	97.675413997	0	0.6	1.18	1	81.087459507	81.594101807	"2"	917.708512107	915.436417093	1.5	0.1
0.01	1	0.659351763000018	1	102	NA	97.675413997	0	0.6	1.18	1	81.821994302	82.481346065	"2"	917.708512107	915.436417093	1.5	0.1
0.01	1	0.543685874000005	1	102	NA	97.675413997	0	0.6	1.18	1	82.70673733	83.250423204	"2"	917.708512107	915.436417093	1.5	0.1
0.01	1	0.398492443000009	1	102	NA	97.675413997	0	0.6	1.18	1	83.49134558	83.889838023	"2"	917.708512107	915.436417093	1.5	0.1
0.01	1	0.450912612000025	1	102	NA	97.675413997	0	0.6	1.18	1	84.125898225	84.576810837	"2"	917.708512107	915.436417093	1.5	0.1
0.01	1	0.398887828999989	1	102	NA	97.675413997	0	0.6	1.18	1	84.810304985	85.209192814	"2"	917.708512107	915.436417093	1.5	0.1
0.01	1	0.364394279999999	1	102	NA	97.675413997	0	0.6	1.18	1	85.444754318	85.809148598	"2"	917.708512107	915.436417093	1.5	0.1
0.01	1	0.412846520000016	1	102	NA	97.675413997	0	0.6	1.18	1	86.045678537	86.458525057	"2"	917.708512107	915.436417093	1.5	0.1
0.01	1	0.367921335000005	1	102	NA	97.675413997	0	0.6	1.18	1	86.696819462	87.064740797	"2"	917.708512107	915.436417093	1.5	0.1
0.01	1	0.350704198000017	1	102	NA	97.675413997	0	0.6	1.18	1	87.29775373	87.648457928	"2"	917.708512107	915.436417093	1.5	0.1
0.01	1	0.343944122999972	1	102	NA	97.675413997	0	0.6	1.18	1	87.882085885	88.226030008	"2"	917.708512107	915.436417093	1.5	0.1
0.01	1	0.326840058999949	1	102	NA	97.675413997	0	0.6	1.18	1	88.449822715	88.776662774	"2"	917.708512107	915.436417093	1.5	0.1
0.01	1	0.296354098000052	1	102	NA	97.675413997	0	0.6	1.18	1	89.00064209	89.296996188	"2"	917.708512107	915.436417093	1.5	0.1
0.01	1	0.299941558	1	102	NA	97.675413997	0	0.6	1.18	1	89.518212107	89.818153665	"2"	917.708512107	915.436417093	1.5	0.1
0.01	1	0.269730052999989	1	102	NA	97.675413997	0	0.6	1.18	1	90.052542935	90.322272988	"2"	917.708512107	915.436417093	1.5	0.1
0.01	1	0.279788937999967	1	102	NA	97.675413997	0	0.6	1.18	1	90.55324726	90.833036198	"2"	917.708512107	915.436417093	1.5	0.1
0.01	1	0.290352619999965	1	102	NA	97.675413997	0	0.6	1.18	1	91.070822365	91.361174985	"2"	917.708512107	915.436417093	1.5	0.1
0.01	1	0.260342915000024	1	102	NA	97.675413997	0	0.6	1.18	1	91.58836418	91.848707095	"2"	917.708512107	915.436417093	1.5	0.1
0.01	1	0.232469743000024	1	102	NA	97.675413997	0	0.6	1.18	1	92.07258978	92.305059523	"2"	917.708512107	915.436417093	1.5	0.1
0.01	1	0.261457670000027	1	102	NA	97.675413997	0	0.6	1.18	1	92.540039287	92.801496957	"2"	917.708512107	915.436417093	1.5	0.1
0.01	1	0.19236805700001	1	102	NA	97.675413997	0	0.6	1.18	1	93.024048085	93.216416142	"2"	917.708512107	915.436417093	1.5	0.1
0.01	1	0.271994304000032	1	102	NA	97.675413997	0	0.6	1.18	1	93.44145534	93.713449644	"2"	917.708512107	915.436417093	1.5	0.1
0.01	1	0.242189033999978	1	102	NA	97.675413997	0	0.6	1.18	1	93.95904467	94.201233704	"2"	917.708512107	915.436417093	1.5	0.1
0.01	1	0.246467112000005	1	102	NA	97.675413997	0	0.6	1.18	1	94.426510166	94.672977278	"2"	917.708512107	915.436417093	1.5	0.1
0.01	1	0.242294209000022	1	102	NA	97.675413997	0	0.6	1.18	1	94.910664865	95.152959074	"2"	917.708512107	915.436417093	1.5	0.1
0.01	1	0.231565072000024	1	102	NA	97.675413997	0	0.6	1.18	1	95.378336417	95.609901489	"2"	917.708512107	915.436417093	1.5	0.1
0.01	1	1.828385228	2	102	NA	97.675413997	0	0.6	1.18	1	95.84548831	97.673873538	"2"	917.708512107	915.436417093	1.5	0.1
0.01	1	0.858982541999978	1	97	NA	124.251958039	0	0.6	1.78	1	99.718722262	100.577704804	"3"	917.708512107	915.436417093	1.5	0.1
0.01	1	0.149749371999974	1	97	NA	124.251958039	0	0.6	1.78	1	100.803940175	100.953689547	"3"	917.708512107	915.436417093	1.5	0.1
0.01	1	0.0769440999999915	1	97	NA	124.251958039	0	0.6	1.78	1	101.18788092	101.26482502	"3"	917.708512107	915.436417093	1.5	0.1
0.01	1	0.0500497269999869	1	97	NA	124.251958039	0	0.6	1.78	1	101.488382687	101.538432414	"3"	917.708512107	915.436417093	1.5	0.1
0.01	1	0.0283216450000054	1	97	NA	124.251958039	0	0.6	1.78	1	101.772162232	101.800483877	"3"	917.708512107	915.436417093	1.5	0.1
0.01	1	0.155664494000007	1	97	NA	124.251958039	0	0.6	1.78	1	102.022611095	102.178275589	"3"	917.708512107	915.436417093	1.5	0.1
0.01	1	0.130572303000008	1	97	NA	124.251958039	0	0.6	1.78	1	102.406620755	102.537193058	"3"	917.708512107	915.436417093	1.5	0.1
0.01	1	0.075778798999977	1	97	NA	124.251958039	0	0.6	1.78	1	102.77386266	102.849641459	"3"	917.708512107	915.436417093	1.5	0.1
0.01	1	0.134185944999956	1	97	NA	124.251958039	0	0.6	1.78	1	103.07430442	103.208490365	"3"	917.708512107	915.436417093	1.5	0.1
0.01	1	0.096575023000014	1	97	NA	124.251958039	0	0.6	1.78	1	103.441676587	103.53825161	"3"	917.708512107	915.436417093	1.5	0.1
0.01	1	0.0573874270000374	1	97	NA	124.251958039	0	0.6	1.78	1	103.775509205	103.832896632	"3"	917.708512107	915.436417093	1.5	0.1
0.01	1	0.094563203000007	1	97	NA	124.251958039	0	0.6	1.78	1	104.059392635	104.153955838	"3"	917.708512107	915.436417093	1.5	0.1
0.01	1	0.407429329999957	1	97	NA	124.251958039	0	0.6	1.78	1	104.39325181	104.80068114	"3"	917.708512107	915.436417093	1.5	0.1
0.01	1	0.182121917000018	1	97	NA	124.251958039	0	0.6	1.78	1	105.027697605	105.209819522	"3"	917.708512107	915.436417093	1.5	0.1
0.01	1	0.173133550999978	1	97	NA	124.251958039	0	0.6	1.78	1	105.445070625	105.618204176	"3"	917.708512107	915.436417093	1.5	0.1
0.01	1	0.171367738000015	1	97	NA	124.251958039	0	0.6	1.78	1	105.845710235	106.017077973	"3"	917.708512107	915.436417093	1.5	0.1
0.01	1	0.202606324999977	1	97	NA	124.251958039	0	0.6	1.78	1	106.24634907	106.448955395	"3"	917.708512107	915.436417093	1.5	0.1
0.01	1	0.153760104000014	1	97	NA	124.251958039	0	0.6	1.78	1	106.680444627	106.834204731	"3"	917.708512107	915.436417093	1.5	0.1
0.01	1	0.13755886499996	1	97	NA	124.251958039	0	0.6	1.78	1	107.0643641	107.201922965	"3"	917.708512107	915.436417093	1.5	0.1
0.01	1	0.16954974600003	1	97	NA	124.251958039	0	0.6	1.78	1	107.43175211	107.601301856	"3"	917.708512107	915.436417093	1.5	0.1
0.01	1	0.0969871120000221	1	97	NA	124.251958039	0	0.6	1.78	1	107.832290527	107.929277639	"3"	917.708512107	915.436417093	1.5	0.1
0.01	1	0.114794546999974	1	97	NA	124.251958039	0	0.6	1.78	1	108.166332847	108.281127394	"3"	917.708512107	915.436417093	1.5	0.1
0.01	1	0.213504465000028	1	97	NA	124.251958039	0	0.6	1.78	1	108.516908587	108.730413052	"3"	917.708512107	915.436417093	1.5	0.1
0.01	1	0.209227068000018	1	97	NA	124.251958039	0	0.6	1.78	1	108.96759651	109.176823578	"3"	917.708512107	915.436417093	1.5	0.1
0.01	1	0.192254043999981	1	97	NA	124.251958039	0	0.6	1.78	1	109.40170491	109.593958954	"3"	917.708512107	915.436417093	1.5	0.1
0.01	1	0.183449686000017	1	97	NA	124.251958039	0	0.6	1.78	1	109.819063562	110.002513248	"3"	917.708512107	915.436417093	1.5	0.1
0.01	1	0.181266388999973	1	97	NA	124.251958039	0	0.6	1.78	1	110.236459542	110.417725931	"3"	917.708512107	915.436417093	1.5	0.1
0.01	1	0.163639804000013	1	97	NA	124.251958039	0	0.6	1.78	1	110.653709822	110.817349626	"3"	917.708512107	915.436417093	1.5	0.1
0.01	1	0.162737406000019	1	97	NA	124.251958039	0	0.6	1.78	1	111.05440796	111.217145366	"3"	917.708512107	915.436417093	1.5	0.1
0.01	1	0.161622932	1	97	NA	124.251958039	0	0.6	1.78	1	111.455076657	111.616699589	"3"	917.708512107	915.436417093	1.5	0.1
0.01	1	0.186763469000027	1	97	NA	124.251958039	0	0.6	1.78	1	111.839116209	112.025879678	"3"	917.708512107	915.436417093	1.5	0.1
0.01	1	0.144701908999991	1	97	NA	124.251958039	0	0.6	1.78	1	112.256511627	112.401213536	"3"	917.708512107	915.436417093	1.5	0.1
0.01	1	0.170253184999979	1	97	NA	124.251958039	0	0.6	1.78	1	112.623772845	112.79402603	"3"	917.708512107	915.436417093	1.5	0.1
0.01	1	0.176333994000004	1	97	NA	124.251958039	0	0.6	1.78	1	113.0244109	113.200744894	"3"	917.708512107	915.436417093	1.5	0.1
0.01	1	0.13626989200003	1	97	NA	124.251958039	0	0.6	1.78	1	113.441873015	113.578142907	"3"	917.708512107	915.436417093	1.5	0.1
0.01	1	0.0953715329999909	1	97	NA	124.251958039	0	0.6	1.78	1	113.809176947	113.90454848	"3"	917.708512107	915.436417093	1.5	0.1
0.01	1	0.146651684999995	1	97	NA	124.251958039	0	0.6	1.78	1	114.142952875	114.28960456	"3"	917.708512107	915.436417093	1.5	0.1
0.01	1	0.106357279999997	1	97	NA	124.251958039	0	0.6	1.78	1	114.527064655	114.633421935	"3"	917.708512107	915.436417093	1.5	0.1
0.01	1	0.147910652000007	1	97	NA	124.251958039	0	0.6	1.78	1	114.860854602	115.008765254	"3"	917.708512107	915.436417093	1.5	0.1
0.01	1	0.20385124500001	1	97	NA	124.251958039	0	0.6	1.78	1	115.24483106	115.448682305	"3"	917.708512107	915.436417093	1.5	0.1
0.01	1	0.17854683600001	1	97	NA	124.251958039	0	0.6	1.78	1	115.67886564	115.857412476	"3"	917.708512107	915.436417093	1.5	0.1
0.01	1	0.145024500999966	1	97	NA	124.251958039	0	0.6	1.78	1	116.079606397	116.224630898	"3"	917.708512107	915.436417093	1.5	0.1
0.01	1	0.137998864999986	1	97	NA	124.251958039	0	0.6	1.78	1	116.463506155	116.60150502	"3"	917.708512107	915.436417093	1.5	0.1
0.01	1	0.122881664999966	1	97	NA	124.251958039	0	0.6	1.78	1	116.830831377	116.953713042	"3"	917.708512107	915.436417093	1.5	0.1
0.01	1	0.131079268000008	1	97	NA	124.251958039	0	0.6	1.78	1	117.181436737	117.312516005	"3"	917.708512107	915.436417093	1.5	0.1
0.01	1	0.131959719999998	1	97	NA	124.251958039	0	0.6	1.78	1	117.54869486	117.68065458	"3"	917.708512107	915.436417093	1.5	0.1
0.01	1	0.125092866999978	1	97	NA	124.251958039	0	0.6	1.78	1	117.915930805	118.041023672	"3"	917.708512107	915.436417093	1.5	0.1
0.01	1	0.158450782999978	1	97	NA	124.251958039	0	0.6	1.78	1	118.266605075	118.425055858	"3"	917.708512107	915.436417093	1.5	0.1
0.01	1	0.135633329999962	1	97	NA	124.251958039	0	0.6	1.78	1	118.650580576	118.786213906	"3"	917.708512107	915.436417093	1.5	0.1
0.01	1	0.151854046999972	1	97	NA	124.251958039	0	0.6	1.78	1	119.017916977	119.169771024	"3"	917.708512107	915.436417093	1.5	0.1
0.01	1	0.192257064999978	1	97	NA	124.251958039	0	0.6	1.78	1	119.40185725	119.594114315	"3"	917.708512107	915.436417093	1.5	0.1
0.01	1	0.33329880399998	1	97	NA	124.251958039	0	0.6	1.78	1	119.819134365	120.152433169	"3"	917.708512107	915.436417093	1.5	0.1
0.01	1	0.214587104999964	1	97	NA	124.251958039	0	0.6	1.78	1	120.386922075	120.60150918	"3"	917.708512107	915.436417093	1.5	0.1
0.01	1	0.195273215000043	1	97	NA	124.251958039	0	0.6	1.78	1	120.83760456	121.032877775	"3"	917.708512107	915.436417093	1.5	0.1
0.01	1	0.210579107000001	1	97	NA	124.251958039	0	0.6	1.78	1	121.255020235	121.465599342	"3"	917.708512107	915.436417093	1.5	0.1
0.01	1	0.169057183999996	1	97	NA	124.251958039	0	0.6	1.78	1	121.68900261	121.858059794	"3"	917.708512107	915.436417093	1.5	0.1
0.01	1	0.183679188000042	1	97	NA	124.251958039	0	0.6	1.78	1	122.089693867	122.273373055	"3"	917.708512107	915.436417093	1.5	0.1
0.01	1	0.150193339999987	1	97	NA	124.251958039	0	0.6	1.78	1	122.507032845	122.657226185	"3"	917.708512107	915.436417093	1.5	0.1
0.01	1	0.134863951999989	1	97	NA	124.251958039	0	0.6	1.78	1	122.891054614	123.025918566	"3"	917.708512107	915.436417093	1.5	0.1
0.01	1	0.223330239000006	1	97	NA	124.251958039	0	0.6	1.78	1	123.25831621	123.481646449	"3"	917.708512107	915.436417093	1.5	0.1
0.01	1	0.541238066000005	2	97	NA	124.251958039	0	0.6	1.78	1	123.7091404	124.250378466	"3"	917.708512107	915.436417093	1.5	0.1
0.01	1	0.833711502999961	1	51	149.606724107	NA	1	0	1.78	1	126.29676649	127.130477993	"4"	917.708512107	915.436417093	1.5	0.1
0.01	1	0.0850295870000082	1	51	149.606724107	NA	1	0	1.78	1	127.365270457	127.450300044	"4"	917.708512107	915.436417093	1.5	0.1
0.01	1	0.0700223020000408	1	51	149.606724107	NA	1	0	1.78	1	127.68245591	127.752478212	"4"	917.708512107	915.436417093	1.5	0.1
0.01	1	0.138037662999977	1	51	149.606724107	NA	1	0	1.78	1	127.98292514	128.120962803	"4"	917.708512107	915.436417093	1.5	0.1
0.01	1	0.235354797000014	1	51	149.606724107	NA	1	0	1.78	1	128.350240645	128.585595442	"4"	917.708512107	915.436417093	1.5	0.1
0.01	1	0.166698024000027	1	51	149.606724107	NA	1	0	1.78	1	128.81778162	128.984479644	"4"	917.708512107	915.436417093	1.5	0.1
0.01	1	0.198090191999995	1	51	149.606724107	NA	1	0	1.78	1	129.21829307	129.416383262	"4"	917.708512107	915.436417093	1.5	0.1
0.01	1	0.181206110000005	1	51	149.606724107	NA	1	0	1.78	1	129.652471785	129.833677895	"4"	917.708512107	915.436417093	1.5	0.1
0.01	1	0.180068811000012	1	51	149.606724107	NA	1	0	1.78	1	130.06971387	130.249782681	"4"	917.708512107	915.436417093	1.5	0.1
0.01	1	0.170225611000035	1	51	149.606724107	NA	1	0	1.78	1	130.487087977	130.657313588	"4"	917.708512107	915.436417093	1.5	0.1
0.01	1	0.154486577	1	51	149.606724107	NA	1	0	1.78	1	130.88784761	131.042334187	"4"	917.708512107	915.436417093	1.5	0.1
0.01	1	0.161643843000036	1	51	149.606724107	NA	1	0	1.78	1	131.271794528	131.433438371	"4"	917.708512107	915.436417093	1.5	0.1
0.01	1	0.146631888999991	1	51	149.606724107	NA	1	0	1.78	1	131.655741157	131.802373046	"4"	917.708512107	915.436417093	1.5	0.1
0.01	1	0.161391920000028	1	51	149.606724107	NA	1	0	1.78	1	132.039816309	132.201208229	"4"	917.708512107	915.436417093	1.5	0.1
0.01	1	0.201460709999992	1	51	149.606724107	NA	1	0	1.78	1	132.423763955	132.625224665	"4"	917.708512107	915.436417093	1.5	0.1
0.01	1	0.167410503000042	1	51	149.606724107	NA	1	0	1.78	1	132.857867285	133.025277788	"4"	917.708512107	915.436417093	1.5	0.1
0.01	1	0.167807029000016	1	51	149.606724107	NA	1	0	1.78	1	133.25848169	133.426288719	"4"	917.708512107	915.436417093	1.5	0.1
0.01	1	0.174790941000026	1	51	149.606724107	NA	1	0	1.78	1	133.659183752	133.833974693	"4"	917.708512107	915.436417093	1.5	0.1
0.01	1	0.190587152000035	1	51	149.606724107	NA	1	0	1.78	1	134.059802462	134.250389614	"4"	917.708512107	915.436417093	1.5	0.1
0.01	1	0.179979031999949	1	51	149.606724107	NA	1	0	1.78	1	134.477131253	134.657110285	"4"	917.708512107	915.436417093	1.5	0.1
0.01	1	0.171309200999985	1	51	149.606724107	NA	1	0	1.78	1	134.894673349	135.06598255	"4"	917.708512107	915.436417093	1.5	0.1
0.01	1	0.186651280999968	1	51	149.606724107	NA	1	0	1.78	1	135.29546149	135.482112771	"4"	917.708512107	915.436417093	1.5	0.1
0.01	1	0.192261727000016	1	51	149.606724107	NA	1	0	1.78	1	135.712637067	135.904898794	"4"	917.708512107	915.436417093	1.5	0.1
0.01	1	0.152026717000012	1	51	149.606724107	NA	1	0	1.78	1	136.129976917	136.282003634	"4"	917.708512107	915.436417093	1.5	0.1
0.01	1	0.335749943999986	1	51	149.606724107	NA	1	0	1.78	1	136.514024865	136.849774809	"4"	917.708512107	915.436417093	1.5	0.1
0.01	1	0.287769094999987	1	51	149.606724107	NA	1	0	1.78	1	137.081687345	137.36945644	"4"	917.708512107	915.436417093	1.5	0.1
0.01	1	0.250478620999957	1	51	149.606724107	NA	1	0	1.78	1	137.599150642	137.849629263	"4"	917.708512107	915.436417093	1.5	0.1
0.01	1	0.223294761999966	1	51	149.606724107	NA	1	0	1.78	1	138.083258165	138.306552927	"4"	917.708512107	915.436417093	1.5	0.1
0.01	1	0.203866400000038	1	51	149.606724107	NA	1	0	1.78	1	138.534082997	138.737949397	"4"	917.708512107	915.436417093	1.5	0.1
0.01	1	0.304611999000031	1	51	149.606724107	NA	1	0	1.78	1	138.96813305	139.272745049	"4"	917.708512107	915.436417093	1.5	0.1
0.01	1	0.251146432000041	1	51	149.606724107	NA	1	0	1.78	1	139.502353348	139.75349978	"4"	917.708512107	915.436417093	1.5	0.1
0.01	1	0.134554465000008	1	51	149.606724107	NA	1	0	1.78	1	139.9864596	140.121014065	"4"	917.708512107	915.436417093	1.5	0.1
0.01	1	0.264172636000012	1	51	149.606724107	NA	1	0	1.78	1	140.353759342	140.617931978	"4"	917.708512107	915.436417093	1.5	0.1
0.01	1	0.226040812000008	1	51	149.606724107	NA	1	0	1.78	1	140.85460564	141.080646452	"4"	917.708512107	915.436417093	1.5	0.1
0.01	1	0.175776224000003	1	51	149.606724107	NA	1	0	1.78	1	141.30530962	141.481085844	"4"	917.708512107	915.436417093	1.5	0.1
0.01	1	0.255859258999976	1	51	149.606724107	NA	1	0	1.78	1	141.7061088	141.961968059	"4"	917.708512107	915.436417093	1.5	0.1
0.01	1	0.218491792999998	1	51	149.606724107	NA	1	0	1.78	1	142.190222107	142.4087139	"4"	917.708512107	915.436417093	1.5	0.1
0.01	1	0.240686418999985	1	51	149.606724107	NA	1	0	1.78	1	142.64105989	142.881746309	"4"	917.708512107	915.436417093	1.5	0.1
0.01	1	0.236502658000006	1	51	149.606724107	NA	1	0	1.78	1	143.108408948	143.344911606	"4"	917.708512107	915.436417093	1.5	0.1
0.01	1	0.290133835000006	1	51	149.606724107	NA	1	0	1.78	1	143.575876955	143.86601079	"4"	917.708512107	915.436417093	1.5	0.1
0.01	1	0.291505985000015	1	51	149.606724107	NA	1	0	1.78	1	144.09340124	144.384907225	"4"	917.708512107	915.436417093	1.5	0.1
0.01	1	0.255004303000021	1	51	149.606724107	NA	1	0	1.78	1	144.610843777	144.86584808	"4"	917.708512107	915.436417093	1.5	0.1
0.01	1	0.321665181999947	1	51	149.606724107	NA	1	0	1.78	1	145.095134687	145.416799869	"4"	917.708512107	915.436417093	1.5	0.1
0.01	1	0.243022852000024	1	51	149.606724107	NA	1	0	1.78	1	145.645922685	145.888945537	"4"	917.708512107	915.436417093	1.5	0.1
0.01	1	0.264342216000045	1	51	149.606724107	NA	1	0	1.78	1	146.113418525	146.377760741	"4"	917.708512107	915.436417093	1.5	0.1
0.01	1	0.258430903000033	1	51	149.606724107	NA	1	0	1.78	1	146.614253255	146.872684158	"4"	917.708512107	915.436417093	1.5	0.1
0.01	1	0.255226757000003	1	51	149.606724107	NA	1	0	1.78	1	147.098513015	147.353739772	"4"	917.708512107	915.436417093	1.5	0.1
0.01	1	0.307521987999962	1	51	149.606724107	NA	1	0	1.78	1	147.58270465	147.890226638	"4"	917.708512107	915.436417093	1.5	0.1
0.01	1	0.261281085999997	1	51	149.606724107	NA	1	0	1.78	1	148.116837462	148.378118548	"4"	917.708512107	915.436417093	1.5	0.1
0.01	1	0.367976418000012	1	51	149.606724107	NA	1	0	1.78	1	148.600873665	148.968850083	"4"	917.708512107	915.436417093	1.5	0.1
0.01	1	0.280446595000001	1	51	149.606724107	NA	1	0	1.78	1	149.20201834	149.482464935	"4"	917.708512107	915.436417093	1.5	0.1
0.01	1	0.505085780999991	1	116	NA	174.747671196	0	0.5	2.28	1	151.656130513	152.161216294	"5"	917.708512107	915.436417093	1.5	0.1
0.01	1	0.162994587999947	1	116	NA	174.747671196	0	0.5	2.28	1	152.39073497	152.553729558	"5"	917.708512107	915.436417093	1.5	0.1
0.01	1	0.153658284000016	1	116	NA	174.747671196	0	0.5	2.28	1	152.791347642	152.945005926	"5"	917.708512107	915.436417093	1.5	0.1
0.01	1	0.153736926000022	1	116	NA	174.747671196	0	0.5	2.28	1	153.17536034	153.329097266	"5"	917.708512107	915.436417093	1.5	0.1
0.01	1	0.162180479999961	1	116	NA	174.747671196	0	0.5	2.28	1	153.559327055	153.721507535	"5"	917.708512107	915.436417093	1.5	0.1
0.01	1	0.146047217999978	1	116	NA	174.747671196	0	0.5	2.28	1	153.959959757	154.106006975	"5"	917.708512107	915.436417093	1.5	0.1
0.01	1	0.136621017000039	1	116	NA	174.747671196	0	0.5	2.28	1	154.343984972	154.480605989	"5"	917.708512107	915.436417093	1.5	0.1
0.01	1	0.113229252999986	1	116	NA	174.747671196	0	0.5	2.28	1	154.711263775	154.824493028	"5"	917.708512107	915.436417093	1.5	0.1
0.01	1	0.170850911000002	1	116	NA	174.747671196	0	0.5	2.28	1	155.06186157	155.232712481	"5"	917.708512107	915.436417093	1.5	0.1
0.01	1	0.122053778000009	1	116	NA	174.747671196	0	0.5	2.28	1	155.46251229	155.584566068	"5"	917.708512107	915.436417093	1.5	0.1
0.01	1	0.124529283000015	1	116	NA	174.747671196	0	0.5	2.28	1	155.813088962	155.937618245	"5"	917.708512107	915.436417093	1.5	0.1
0.01	1	0.189824187999989	1	116	NA	174.747671196	0	0.5	2.28	1	156.163665927	156.353490115	"5"	917.708512107	915.436417093	1.5	0.1
0.01	1	0.147686218000047	1	116	NA	174.747671196	0	0.5	2.28	1	156.58102383	156.728710048	"5"	917.708512107	915.436417093	1.5	0.1
0.01	1	0.172975903000008	1	116	NA	174.747671196	0	0.5	2.28	1	156.9650244	157.138000303	"5"	917.708512107	915.436417093	1.5	0.1
0.01	1	0.196434909000004	1	116	NA	174.747671196	0	0.5	2.28	1	157.36568124	157.562116149	"5"	917.708512107	915.436417093	1.5	0.1
0.01	1	0.242685096999992	1	116	NA	174.747671196	0	0.5	2.28	1	157.799871765	158.042556862	"5"	917.708512107	915.436417093	1.5	0.1
0.01	1	0.22952286200001	1	116	NA	174.747671196	0	0.5	2.28	1	158.267230067	158.496752929	"5"	917.708512107	915.436417093	1.5	0.1
0.01	1	0.211711911999998	1	116	NA	174.747671196	0	0.5	2.28	1	158.734687957	158.946399869	"5"	917.708512107	915.436417093	1.5	0.1
0.01	1	0.289223564999986	1	116	NA	174.747671196	0	0.5	2.28	1	159.168675572	159.457899137	"5"	917.708512107	915.436417093	1.5	0.1
0.01	1	0.219885339999962	1	116	NA	174.747671196	0	0.5	2.28	1	159.686214997	159.906100337	"5"	917.708512107	915.436417093	1.5	0.1
0.01	1	0.200104760999977	1	116	NA	174.747671196	0	0.5	2.28	1	160.137149235	160.337253996	"5"	917.708512107	915.436417093	1.5	0.1
0.01	1	0.253697321000004	1	116	NA	174.747671196	0	0.5	2.28	1	160.571105342	160.824802663	"5"	917.708512107	915.436417093	1.5	0.1
0.01	1	0.218130316999975	1	116	NA	174.747671196	0	0.5	2.28	1	161.055268677	161.273398994	"5"	917.708512107	915.436417093	1.5	0.1
0.01	1	0.207038336999972	1	116	NA	174.747671196	0	0.5	2.28	1	161.506045275	161.713083612	"5"	917.708512107	915.436417093	1.5	0.1
0.01	1	0.182358382000018	1	116	NA	174.747671196	0	0.5	2.28	1	161.940110915	162.122469297	"5"	917.708512107	915.436417093	1.5	0.1
0.01	1	0.108850607000022	1	116	NA	174.747671196	0	0.5	2.28	1	162.357538047	162.466388654	"5"	917.708512107	915.436417093	1.5	0.1
0.01	1	0.149519314000031	1	116	NA	174.747671196	0	0.5	2.28	1	162.69135752	162.840876834	"5"	917.708512107	915.436417093	1.5	0.1
0.01	1	0.117118720999997	1	116	NA	174.747671196	0	0.5	2.28	1	163.07539399	163.192512711	"5"	917.708512107	915.436417093	1.5	0.1
0.01	1	0.119222552999986	1	116	NA	174.747671196	0	0.5	2.28	1	163.425930475	163.545153028	"5"	917.708512107	915.436417093	1.5	0.1
0.01	1	0.265842309999982	1	116	NA	174.747671196	0	0.5	2.28	1	163.77659532	164.04243763	"5"	917.708512107	915.436417093	1.5	0.1
0.01	1	0.275295530999983	1	116	NA	174.747671196	0	0.5	2.28	1	164.27736212	164.552657651	"5"	917.708512107	915.436417093	1.5	0.1
0.01	1	0.255673399999978	1	116	NA	174.747671196	0	0.5	2.28	1	164.778114715	165.033788115	"5"	917.708512107	915.436417093	1.5	0.1
0.01	1	0.187037948000011	1	116	NA	174.747671196	0	0.5	2.28	1	165.26231077	165.449348718	"5"	917.708512107	915.436417093	1.5	0.1
0.01	1	0.185599538000019	1	116	NA	174.747671196	0	0.5	2.28	1	165.679632545	165.865232083	"5"	917.708512107	915.436417093	1.5	0.1
0.01	1	0.199559026999964	1	116	NA	174.747671196	0	0.5	2.28	1	166.09712619	166.296685217	"5"	917.708512107	915.436417093	1.5	0.1
0.01	1	0.141509546000009	1	116	NA	174.747671196	0	0.5	2.28	1	166.531166583	166.672676129	"5"	917.708512107	915.436417093	1.5	0.1
0.01	1	0.150921825000012	1	116	NA	174.747671196	0	0.5	2.28	1	166.898348965	167.04927079	"5"	917.708512107	915.436417093	1.5	0.1
0.01	1	0.127661279999984	1	116	NA	174.747671196	0	0.5	2.28	1	167.28234177	167.41000305	"5"	917.708512107	915.436417093	1.5	0.1
0.01	1	0.185153463000006	1	116	NA	174.747671196	0	0.5	2.28	1	167.633041922	167.818195385	"5"	917.708512107	915.436417093	1.5	0.1
0.01	1	0.84680984900001	1	116	NA	174.747671196	0	0.5	2.28	1	168.050295795	168.897105644	"5"	917.708512107	915.436417093	1.5	0.1
0.01	1	0.217992566999953	1	116	NA	174.747671196	0	0.5	2.28	1	169.13555281	169.353545377	"5"	917.708512107	915.436417093	1.5	0.1
0.01	1	0.126528618999998	1	116	NA	174.747671196	0	0.5	2.28	1	169.586167935	169.712696554	"5"	917.708512107	915.436417093	1.5	0.1
0.01	1	0.152871010000013	1	116	NA	174.747671196	0	0.5	2.28	1	169.936787256	170.089658266	"5"	917.708512107	915.436417093	1.5	0.1
0.01	1	0.145399325000028	1	116	NA	174.747671196	0	0.5	2.28	1	170.32085452	170.466253845	"5"	917.708512107	915.436417093	1.5	0.1
0.01	1	0.120011597999962	1	116	NA	174.747671196	0	0.5	2.28	1	170.704774527	170.824786125	"5"	917.708512107	915.436417093	1.5	0.1
0.01	1	0.457984490000001	1	116	NA	174.747671196	0	0.5	2.28	1	171.055437495	171.513421985	"5"	917.708512107	915.436417093	1.5	0.1
0.01	1	0.212567896999985	1	116	NA	174.747671196	0	0.5	2.28	1	171.739852465	171.952420362	"5"	917.708512107	915.436417093	1.5	0.1
0.01	1	0.346451934000015	1	116	NA	174.747671196	0	0.5	2.28	1	172.190608365	172.537060299	"5"	917.708512107	915.436417093	1.5	0.1
0.01	1	0.323641070999997	1	116	NA	174.747671196	0	0.5	2.28	1	172.774881167	173.098522238	"5"	917.708512107	915.436417093	1.5	0.1
0.01	1	0.244046143999981	1	116	NA	174.747671196	0	0.5	2.28	1	173.32593671	173.569982854	"5"	917.708512107	915.436417093	1.5	0.1
0.01	1	0.952641794999977	2	116	NA	174.747671196	0	0.5	2.28	1	173.793405747	174.746047542	"5"	917.708512107	915.436417093	1.5	0.1
0.01	1	0.371065449000014	1	118	NA	209.322889733	0	0.74	3.02	1	176.79853034	177.169595789	"6"	917.708512107	915.436417093	1.5	0.1
0.01	1	0.169224844000041	1	118	NA	209.322889733	0	0.74	3.02	1	177.399415155	177.568639999	"6"	917.708512107	915.436417093	1.5	0.1
0.01	1	0.130002117999993	1	118	NA	209.322889733	0	0.74	3.02	1	177.80004413	177.930046248	"6"	917.708512107	915.436417093	1.5	0.1
0.01	1	0.130801116999976	1	118	NA	209.322889733	0	0.74	3.02	1	178.16739432	178.298195437	"6"	917.708512107	915.436417093	1.5	0.1
0.01	1	0.0995581010000137	1	118	NA	209.322889733	0	0.74	3.02	1	178.534683587	178.634241688	"6"	917.708512107	915.436417093	1.5	0.1
0.01	1	0.124860658999978	1	118	NA	209.322889733	0	0.74	3.02	1	178.868582107	178.993442766	"6"	917.708512107	915.436417093	1.5	0.1
0.01	1	0.175065684999993	1	118	NA	209.322889733	0	0.74	3.02	1	179.2190687	179.394134385	"6"	917.708512107	915.436417093	1.5	0.1
0.01	1	0.165473582999994	1	118	NA	209.322889733	0	0.74	3.02	1	179.619848537	179.78532212	"6"	917.708512107	915.436417093	1.5	0.1
0.01	1	0.181673550000028	1	118	NA	209.322889733	0	0.74	3.02	1	180.02047997	180.20215352	"6"	917.708512107	915.436417093	1.5	0.1
0.01	1	0.155286809000017	1	118	NA	209.322889733	0	0.74	3.02	1	180.43792376	180.593210569	"6"	917.708512107	915.436417093	1.5	0.1
0.01	1	0.147758973000009	1	118	NA	209.322889733	0	0.74	3.02	1	180.821861162	180.969620135	"6"	917.708512107	915.436417093	1.5	0.1
0.01	1	0.139793202000021	1	118	NA	209.322889733	0	0.74	3.02	1	181.20582492	181.345618122	"6"	917.708512107	915.436417093	1.5	0.1
0.01	1	0.187909994999984	1	118	NA	209.322889733	0	0.74	3.02	1	181.573050287	181.760960282	"6"	917.708512107	915.436417093	1.5	0.1
0.01	1	0.170681759999979	1	118	NA	209.322889733	0	0.74	3.02	1	181.990479987	182.161161747	"6"	917.708512107	915.436417093	1.5	0.1
0.01	1	0.218667562999997	1	118	NA	209.322889733	0	0.74	3.02	1	182.391196275	182.609863838	"6"	917.708512107	915.436417093	1.5	0.1
0.01	1	0.143659212999978	1	118	NA	209.322889733	0	0.74	3.02	1	182.841942145	182.985601358	"6"	917.708512107	915.436417093	1.5	0.1
0.01	1	0.199659273999998	1	118	NA	209.322889733	0	0.74	3.02	1	183.20918412	183.408843394	"6"	917.708512107	915.436417093	1.5	0.1
0.01	1	0.238508587000013	1	118	NA	209.322889733	0	0.74	3.02	1	183.643224267	183.881732854	"6"	917.708512107	915.436417093	1.5	0.1
0.01	1	0.627241645000026	1	118	NA	209.322889733	0	0.74	3.02	1	184.1107222	184.737963845	"6"	917.708512107	915.436417093	1.5	0.1
0.01	1	0.142745278999996	1	118	NA	209.322889733	0	0.74	3.02	1	184.97886381	185.121609089	"6"	917.708512107	915.436417093	1.5	0.1
0.01	1	0.198541616999989	1	118	NA	209.322889733	0	0.74	3.02	1	185.346131149	185.544672766	"6"	917.708512107	915.436417093	1.5	0.1
0.01	1	0.197645152999996	1	118	NA	209.322889733	0	0.74	3.02	1	185.780251695	185.977896848	"6"	917.708512107	915.436417093	1.5	0.1
0.01	1	0.122729361999973	1	118	NA	209.322889733	0	0.74	3.02	1	186.21422326	186.336952622	"6"	917.708512107	915.436417093	1.5	0.1
0.01	1	0.196585038999956	1	118	NA	209.322889733	0	0.74	3.02	1	186.56491378	186.761498819	"6"	917.708512107	915.436417093	1.5	0.1
0.01	1	0.122350789999984	1	118	NA	209.322889733	0	0.74	3.02	1	186.99901842	187.12136921	"6"	917.708512107	915.436417093	1.5	0.1
0.01	1	0.172085340000024	1	118	NA	209.322889733	0	0.74	3.02	1	187.34957948	187.52166482	"6"	917.708512107	915.436417093	1.5	0.1
0.01	1	0.11562352499999	1	118	NA	209.322889733	0	0.74	3.02	1	187.750221697	187.865845222	"6"	917.708512107	915.436417093	1.5	0.1
0.01	1	0.155780773000004	1	118	NA	209.322889733	0	0.74	3.02	1	188.100692745	188.256473518	"6"	917.708512107	915.436417093	1.5	0.1
0.01	1	0.125573282999994	1	118	NA	209.322889733	0	0.74	3.02	1	188.484660107	188.61023339	"6"	917.708512107	915.436417093	1.5	0.1
0.01	1	0.190679778000003	1	118	NA	209.322889733	0	0.74	3.02	1	188.835318717	189.025998495	"6"	917.708512107	915.436417093	1.5	0.1
0.01	1	0.124188197999956	1	118	NA	209.322889733	0	0.74	3.02	1	189.25276632	189.376954518	"6"	917.708512107	915.436417093	1.5	0.1
0.01	1	0.197381597999993	1	118	NA	209.322889733	0	0.74	3.02	1	189.60340544	189.800787038	"6"	917.708512107	915.436417093	1.5	0.1
0.01	1	0.132685960999993	1	118	NA	209.322889733	0	0.74	3.02	1	190.037391005	190.170076966	"6"	917.708512107	915.436417093	1.5	0.1
0.01	1	0.173357852000038	1	118	NA	209.322889733	0	0.74	3.02	1	190.404701575	190.578059427	"6"	917.708512107	915.436417093	1.5	0.1
0.01	1	0.180032473999972	1	118	NA	209.322889733	0	0.74	3.02	1	190.80534584	190.985378314	"6"	917.708512107	915.436417093	1.5	0.1
0.01	1	0.146772982000016	1	118	NA	209.322889733	0	0.74	3.02	1	191.222769035	191.369542017	"6"	917.708512107	915.436417093	1.5	0.1
0.01	1	0.15502061799998	1	118	NA	209.322889733	0	0.74	3.02	1	191.60669846	191.761719078	"6"	917.708512107	915.436417093	1.5	0.1
0.01	1	0.147715301000005	1	118	NA	209.322889733	0	0.74	3.02	1	191.990738845	192.138454146	"6"	917.708512107	915.436417093	1.5	0.1
0.01	1	0.140004809999994	1	118	NA	209.322889733	0	0.74	3.02	1	192.374637375	192.514642185	"6"	917.708512107	915.436417093	1.5	0.1
0.01	1	0.723479586999986	1	118	NA	209.322889733	0	0.74	3.02	1	192.741880582	193.465360169	"6"	917.708512107	915.436417093	1.5	0.1
0.01	1	1.09923354900002	1	118	NA	209.322889733	0	0.74	3.02	1	193.693461975	194.792695524	"6"	917.708512107	915.436417093	1.5	0.1
0.01	1	0.195423590000019	1	118	NA	209.322889733	0	0.74	3.02	1	195.029037775	195.224461365	"6"	917.708512107	915.436417093	1.5	0.1
0.01	1	0.0669345520000206	1	118	NA	209.322889733	0	0.74	3.02	1	195.463074862	195.530009414	"6"	917.708512107	915.436417093	1.5	0.1
0.01	1	0.068905529999995	1	118	NA	209.322889733	0	0.74	3.02	1	195.763651055	195.832556585	"6"	917.708512107	915.436417093	1.5	0.1
0.01	1	0.0722186570000076	1	118	NA	209.322889733	0	0.74	3.02	1	196.064203975	196.136422632	"6"	917.708512107	915.436417093	1.5	0.1
0.01	1	0.0767956660000095	1	118	NA	209.322889733	0	0.74	3.02	1	196.364652049	196.441447715	"6"	917.708512107	915.436417093	1.5	0.1
0.01	1	0.0954428439999901	1	118	NA	209.322889733	0	0.74	3.02	1	196.665259805	196.760702649	"6"	917.708512107	915.436417093	1.5	0.1
0.01	1	0.0334227630000328	1	118	NA	209.322889733	0	0.74	3.02	1	196.999091175	197.032513938	"6"	917.708512107	915.436417093	1.5	0.1
0.01	1	0.0484067500000265	1	118	NA	209.322889733	0	0.74	3.02	1	197.266120505	197.314527255	"6"	917.708512107	915.436417093	1.5	0.1
0.01	1	0.394684107999979	1	118	NA	209.322889733	0	0.74	3.02	1	197.55005083	197.944734938	"6"	917.708512107	915.436417093	1.5	0.1
0.01	1	0.552858779999951	1	118	NA	209.322889733	0	0.74	3.02	1	198.184348217	198.737206997	"6"	917.708512107	915.436417093	1.5	0.1
0.01	1	0.304150029000027	1	118	NA	209.322889733	0	0.74	3.02	1	198.96906656	199.273216589	"6"	917.708512107	915.436417093	1.5	0.1
0.01	1	0.14546662500004	1	118	NA	209.322889733	0	0.74	3.02	1	199.503322192	199.648788817	"6"	917.708512107	915.436417093	1.5	0.1
0.01	1	0.0428877479999983	1	118	NA	209.322889733	0	0.74	3.02	1	199.887265707	199.930153455	"6"	917.708512107	915.436417093	1.5	0.1
0.01	1	0.00707808399999976	1	118	NA	209.322889733	0	0.74	3.02	1	200.15434412	200.161422204	"6"	917.708512107	915.436417093	1.5	0.1
0.01	1	0.132570716999965	1	118	NA	209.322889733	0	0.74	3.02	1	200.3880862	200.520656917	"6"	917.708512107	915.436417093	1.5	0.1
0.01	1	0.00718612800000074	1	118	NA	209.322889733	0	0.74	3.02	1	200.75539953	200.762585658	"6"	917.708512107	915.436417093	1.5	0.1
0.01	1	0.59693986100001	1	118	NA	209.322889733	0	0.74	3.02	1	200.989085255	201.586025116	"6"	917.708512107	915.436417093	1.5	0.1
0.01	1	0.130303302000016	1	118	NA	209.322889733	0	0.74	3.02	1	201.823784337	201.954087639	"6"	917.708512107	915.436417093	1.5	0.1
0.01	1	0.642399056999977	1	118	NA	209.322889733	0	0.74	3.02	1	202.191238917	202.833637974	"6"	917.708512107	915.436417093	1.5	0.1
0.01	1	0.00429611099997373	1	118	NA	209.322889733	0	0.74	3.02	1	203.059275869	203.06357198	"6"	917.708512107	915.436417093	1.5	0.1
0.01	1	0.0686615449999977	1	118	NA	209.322889733	0	0.74	3.02	1	203.29302596	203.361687505	"6"	917.708512107	915.436417093	1.5	0.1
0.01	1	0.0958754040000258	1	118	NA	209.322889733	0	0.74	3.02	1	203.593544185	203.689419589	"6"	917.708512107	915.436417093	1.5	0.1
0.01	1	0.0815880100000186	1	118	NA	209.322889733	0	0.74	3.02	1	203.927394847	204.008982857	"6"	917.708512107	915.436417093	1.5	0.1
0.01	1	0.885743166999987	1	118	NA	209.322889733	0	0.74	3.02	1	204.244604657	205.130347824	"6"	917.708512107	915.436417093	1.5	0.1
0.01	1	0.133411304999981	1	118	NA	209.322889733	0	0.74	3.02	1	205.36313983	205.496551135	"6"	917.708512107	915.436417093	1.5	0.1
0.01	1	0.00460033199999543	1	118	NA	209.322889733	0	0.74	3.02	1	205.730486465	205.735086797	"6"	917.708512107	915.436417093	1.5	0.1
0.01	1	0.0772675320000076	1	118	NA	209.322889733	0	0.74	3.02	1	205.964189127	206.041456659	"6"	917.708512107	915.436417093	1.5	0.1
0.01	1	0.560651957999994	1	118	NA	209.322889733	0	0.74	3.02	1	206.26462694	206.825278898	"6"	917.708512107	915.436417093	1.5	0.1
0.01	1	0.00386439400000427	1	118	NA	209.322889733	0	0.74	3.02	1	207.0492473	207.053111694	"6"	917.708512107	915.436417093	1.5	0.1
0.01	1	0.0941799199999878	1	118	NA	209.322889733	0	0.74	3.02	1	207.28308843	207.37726835	"6"	917.708512107	915.436417093	1.5	0.1
0.01	1	0.00454069500000287	1	118	NA	209.322889733	0	0.74	3.02	1	207.60030512	207.604845815	"6"	917.708512107	915.436417093	1.5	0.1
0.01	1	0.0865619679999554	1	118	NA	209.322889733	0	0.74	3.02	1	207.833906815	207.920468783	"6"	917.708512107	915.436417093	1.5	0.1
0.01	1	0.114097587000003	1	118	NA	209.322889733	0	0.74	3.02	1	208.15117675	208.265274337	"6"	917.708512107	915.436417093	1.5	0.1
0.01	1	0.819645543000036	2	118	NA	209.322889733	0	0.74	3.02	1	208.501710645	209.321356188	"6"	917.708512107	915.436417093	1.5	0.1
0.01	1	0.443162572999995	1	87	237.72109312	NA	1	0	3.02	1	211.373244325	211.816406898	"7"	917.708512107	915.436417093	1.5	0.1
0.01	1	0.0886341969999762	1	87	237.72109312	NA	1	0	3.02	1	212.057770535	212.146404732	"7"	917.708512107	915.436417093	1.5	0.1
0.01	1	0.00463198500000317	1	87	237.72109312	NA	1	0	3.02	1	212.374905655	212.37953764	"7"	917.708512107	915.436417093	1.5	0.1
0.01	1	0.0111758939999618	1	87	237.72109312	NA	1	0	3.02	1	212.60870061	212.619876504	"7"	917.708512107	915.436417093	1.5	0.1
0.01	1	0.0622799179999447	1	87	237.72109312	NA	1	0	3.02	1	212.84230819	212.904588108	"7"	917.708512107	915.436417093	1.5	0.1
0.01	1	0.0655685429999835	1	87	237.72109312	NA	1	0	3.02	1	213.142952742	213.208521285	"7"	917.708512107	915.436417093	1.5	0.1
0.01	1	0.0849559979999981	1	87	237.72109312	NA	1	0	3.02	1	213.443442785	213.528398783	"7"	917.708512107	915.436417093	1.5	0.1
0.01	1	0.0656150679999996	1	87	237.72109312	NA	1	0	3.02	1	213.76053921	213.826154278	"7"	917.708512107	915.436417093	1.5	0.1
0.01	1	0.0608427100000313	1	87	237.72109312	NA	1	0	3.02	1	214.061106995	214.121949705	"7"	917.708512107	915.436417093	1.5	0.1
0.01	1	0.071903275000011	1	87	237.72109312	NA	1	0	3.02	1	214.34490613	214.416809405	"7"	917.708512107	915.436417093	1.5	0.1
0.01	1	0.0590408629999501	1	87	237.72109312	NA	1	0	3.02	1	214.645405097	214.70444596	"7"	917.708512107	915.436417093	1.5	0.1
0.01	1	0.0389415360000385	1	87	237.72109312	NA	1	0	3.02	1	214.945868507	214.984810043	"7"	917.708512107	915.436417093	1.5	0.1
0.01	1	0.0359770640000079	1	87	237.72109312	NA	1	0	3.02	1	215.213008735	215.248985799	"7"	917.708512107	915.436417093	1.5	0.1
0.01	1	0.0734413730000369	1	87	237.72109312	NA	1	0	3.02	1	215.480160442	215.553601815	"7"	917.708512107	915.436417093	1.5	0.1
0.01	1	0.0531424470000275	1	87	237.72109312	NA	1	0	3.02	1	215.780595335	215.833737782	"7"	917.708512107	915.436417093	1.5	0.1
0.01	1	0.0412594819999867	1	87	237.72109312	NA	1	0	3.02	1	216.064487987	216.105747469	"7"	917.708512107	915.436417093	1.5	0.1
0.01	1	0.670450566999989	1	87	237.72109312	NA	1	0	3.02	1	216.331673225	217.002123792	"7"	917.708512107	915.436417093	1.5	0.1
0.01	1	0.121057807	1	87	237.72109312	NA	1	0	3.02	1	217.233154482	217.354212289	"7"	917.708512107	915.436417093	1.5	0.1
0.01	1	0.00389952500000845	1	87	237.72109312	NA	1	0	3.02	1	217.583640845	217.58754037	"7"	917.708512107	915.436417093	1.5	0.1
0.01	1	0.0329800189999787	1	87	237.72109312	NA	1	0	3.02	1	217.81738476	217.850364779	"7"	917.708512107	915.436417093	1.5	0.1
0.01	1	0.0295550719999937	1	87	237.72109312	NA	1	0	3.02	1	218.084613297	218.114168369	"7"	917.708512107	915.436417093	1.5	0.1
0.01	1	0.00202387500002033	1	87	237.72109312	NA	1	0	3.02	1	218.351639572	218.353663447	"7"	917.708512107	915.436417093	1.5	0.1
0.01	1	0.00204216000003044	1	87	237.72109312	NA	1	0	3.02	1	218.585399049	218.587441209	"7"	917.708512107	915.436417093	1.5	0.1
0.01	1	0.00197456200004353	1	87	237.72109312	NA	1	0	3.02	1	218.819158663	218.821133225	"7"	917.708512107	915.436417093	1.5	0.1
0.01	1	0.0998089349999987	1	87	237.72109312	NA	1	0	3.02	1	219.052845577	219.152654512	"7"	917.708512107	915.436417093	1.5	0.1
0.01	1	0.00398886600004289	1	87	237.72109312	NA	1	0	3.02	1	219.38672182	219.390710686	"7"	917.708512107	915.436417093	1.5	0.1
0.01	1	0.0920825779999745	1	87	237.72109312	NA	1	0	3.02	1	219.620390587	219.712473165	"7"	917.708512107	915.436417093	1.5	0.1
0.01	1	0.00225146700000778	1	87	237.72109312	NA	1	0	3.02	1	219.937632788	219.939884255	"7"	917.708512107	915.436417093	1.5	0.1
0.01	1	0.0869372200000385	1	87	237.72109312	NA	1	0	3.02	1	220.171372335	220.258309555	"7"	917.708512107	915.436417093	1.5	0.1
0.01	1	0.00460097500001666	1	87	237.72109312	NA	1	0	3.02	1	220.48860598	220.493206955	"7"	917.708512107	915.436417093	1.5	0.1
0.01	1	0.0716353900000399	1	87	237.72109312	NA	1	0	3.02	1	220.722339547	220.793974937	"7"	917.708512107	915.436417093	1.5	0.1
0.01	1	0.122748553000008	1	87	237.72109312	NA	1	0	3.02	1	221.022838217	221.14558677	"7"	917.708512107	915.436417093	1.5	0.1
0.01	1	0.00462039199999253	1	87	237.72109312	NA	1	0	3.02	1	221.37341587	221.378036262	"7"	917.708512107	915.436417093	1.5	0.1
0.01	1	0.08245780499999	1	87	237.72109312	NA	1	0	3.02	1	221.607116785	221.68957459	"7"	917.708512107	915.436417093	1.5	0.1
0.01	1	0.00361293299999943	1	87	237.72109312	NA	1	0	3.02	1	221.924319017	221.92793195	"7"	917.708512107	915.436417093	1.5	0.1
0.01	1	0.0671225570000047	1	87	237.72109312	NA	1	0	3.02	1	222.158053197	222.225175754	"7"	917.708512107	915.436417093	1.5	0.1
0.01	1	0.119395906000022	1	87	237.72109312	NA	1	0	3.02	1	222.458588374	222.57798428	"7"	917.708512107	915.436417093	1.5	0.1
0.01	1	0.00457217700000001	1	87	237.72109312	NA	1	0	3.02	1	222.809212345	222.813784522	"7"	917.708512107	915.436417093	1.5	0.1
0.01	1	0.030681708999964	1	87	237.72109312	NA	1	0	3.02	1	223.04284633	223.073528039	"7"	917.708512107	915.436417093	1.5	0.1
0.01	1	0.00432821700002251	1	87	237.72109312	NA	1	0	3.02	1	223.309979945	223.314308162	"7"	917.708512107	915.436417093	1.5	0.1
0.01	1	0.0498503620000292	1	87	237.72109312	NA	1	0	3.02	1	223.543762405	223.593612767	"7"	917.708512107	915.436417093	1.5	0.1
0.01	1	0.0531967300000247	1	87	237.72109312	NA	1	0	3.02	1	223.827552595	223.880749325	"7"	917.708512107	915.436417093	1.5	0.1
0.01	1	0.00392599999997856	1	87	237.72109312	NA	1	0	3.02	1	224.11125304	224.11517904	"7"	917.708512107	915.436417093	1.5	0.1
0.01	1	0.0493348220000485	1	87	237.72109312	NA	1	0	3.02	1	224.345045385	224.394380207	"7"	917.708512107	915.436417093	1.5	0.1
0.01	1	0.00199870300002658	1	87	237.72109312	NA	1	0	3.02	1	224.628911158	224.630909861	"7"	917.708512107	915.436417093	1.5	0.1
0.01	1	0.0666828699999655	1	87	237.72109312	NA	1	0	3.02	1	224.862549567	224.929232437	"7"	917.708512107	915.436417093	1.5	0.1
0.01	1	0.00388988599996765	1	87	237.72109312	NA	1	0	3.02	1	225.16312192	225.167011806	"7"	917.708512107	915.436417093	1.5	0.1
0.01	1	0.0517811979999578	1	87	237.72109312	NA	1	0	3.02	1	225.396780882	225.44856208	"7"	917.708512107	915.436417093	1.5	0.1
0.01	1	0.00401995099997521	1	87	237.72109312	NA	1	0	3.02	1	225.680628525	225.684648476	"7"	917.708512107	915.436417093	1.5	0.1
0.01	1	0.00367357499999343	1	87	237.72109312	NA	1	0	3.02	1	225.914385055	225.91805863	"7"	917.708512107	915.436417093	1.5	0.1
0.01	1	0.00219068199999128	1	87	237.72109312	NA	1	0	3.02	1	226.147998188	226.15018887	"7"	917.708512107	915.436417093	1.5	0.1
0.01	1	0.0918820370000049	1	87	237.72109312	NA	1	0	3.02	1	226.381798745	226.473680782	"7"	917.708512107	915.436417093	1.5	0.1
0.01	1	0.00203462000001764	1	87	237.72109312	NA	1	0	3.02	1	226.699011365	226.701045985	"7"	917.708512107	915.436417093	1.5	0.1
0.01	1	0.0615759259999891	1	87	237.72109312	NA	1	0	3.02	1	226.93284828	226.994424206	"7"	917.708512107	915.436417093	1.5	0.1
0.01	1	0.00368620999995528	1	87	237.72109312	NA	1	0	3.02	1	227.216633502	227.220319712	"7"	917.708512107	915.436417093	1.5	0.1
0.01	1	0.0794489170000361	1	87	237.72109312	NA	1	0	3.02	1	227.450391002	227.529839919	"7"	917.708512107	915.436417093	1.5	0.1
0.01	1	0.00387067900004467	1	87	237.72109312	NA	1	0	3.02	1	227.767479177	227.771349856	"7"	917.708512107	915.436417093	1.5	0.1
0.01	1	0.0480974949999791	1	87	237.72109312	NA	1	0	3.02	1	228.001227785	228.04932528	"7"	917.708512107	915.436417093	1.5	0.1
0.01	1	0.108693137999978	1	87	237.72109312	NA	1	0	3.02	1	228.285002767	228.393695905	"7"	917.708512107	915.436417093	1.5	0.1
0.01	1	0.110580880000043	1	87	237.72109312	NA	1	0	3.02	1	228.618966022	228.729546902	"7"	917.708512107	915.436417093	1.5	0.1
0.01	1	0.0631678170000214	1	87	237.72109312	NA	1	0	3.02	1	228.969569658	229.032737475	"7"	917.708512107	915.436417093	1.5	0.1
0.01	1	0.0912001259999897	1	87	237.72109312	NA	1	0	3.02	1	229.270038762	229.361238888	"7"	917.708512107	915.436417093	1.5	0.1
0.01	1	0.117383497999981	1	87	237.72109312	NA	1	0	3.02	1	229.587150462	229.70453396	"7"	917.708512107	915.436417093	1.5	0.1
0.01	1	0.0952051930000266	1	87	237.72109312	NA	1	0	3.02	1	229.937855855	230.033061048	"7"	917.708512107	915.436417093	1.5	0.1
0.01	1	0.00206862899995031	1	87	237.72109312	NA	1	0	3.02	1	230.254974846	230.257043475	"7"	917.708512107	915.436417093	1.5	0.1
0.01	1	0.0881862880000313	1	87	237.72109312	NA	1	0	3.02	1	230.48872416	230.576910448	"7"	917.708512107	915.436417093	1.5	0.1
0.01	1	0.107907266000041	1	87	237.72109312	NA	1	0	3.02	1	230.80597014	230.913877406	"7"	917.708512107	915.436417093	1.5	0.1
0.01	1	0.00452591200001962	1	87	237.72109312	NA	1	0	3.02	1	231.139778885	231.144304797	"7"	917.708512107	915.436417093	1.5	0.1
0.01	1	0.604027584999983	1	87	237.72109312	NA	1	0	3.02	1	231.373578095	231.97760568	"7"	917.708512107	915.436417093	1.5	0.1
0.01	1	0.105233803000033	1	87	237.72109312	NA	1	0	3.02	1	232.208303645	232.313537448	"7"	917.708512107	915.436417093	1.5	0.1
0.01	1	0.00444473800001788	1	87	237.72109312	NA	1	0	3.02	1	232.542151339	232.546596077	"7"	917.708512107	915.436417093	1.5	0.1
0.01	1	0.0574328170000058	1	87	237.72109312	NA	1	0	3.02	1	232.775974435	232.833407252	"7"	917.708512107	915.436417093	1.5	0.1
0.01	1	0.00439181499996266	1	87	237.72109312	NA	1	0	3.02	1	233.059725562	233.064117377	"7"	917.708512107	915.436417093	1.5	0.1
0.01	1	0.0690333160000023	1	87	237.72109312	NA	1	0	3.02	1	233.293452955	233.362486271	"7"	917.708512107	915.436417093	1.5	0.1
0.01	1	0.0038185129999988	1	87	237.72109312	NA	1	0	3.02	1	233.594029005	233.597847518	"7"	917.708512107	915.436417093	1.5	0.1
0.01	1	0.0454528129999971	1	87	237.72109312	NA	1	0	3.02	1	233.827662556	233.873115369	"7"	917.708512107	915.436417093	1.5	0.1
0.01	1	0.0020586609999782	1	87	237.72109312	NA	1	0	3.02	1	234.111498776	234.113557437	"7"	917.708512107	915.436417093	1.5	0.1
0.01	1	0.0478491790000248	1	87	237.72109312	NA	1	0	3.02	1	234.345265725	234.393114904	"7"	917.708512107	915.436417093	1.5	0.1
0.01	1	0.115417677999972	1	87	237.72109312	NA	1	0	3.02	1	234.62906915	234.744486828	"7"	917.708512107	915.436417093	1.5	0.1
0.01	1	0.0707353939999962	1	87	237.72109312	NA	1	0	3.02	1	234.97966353	235.050398924	"7"	917.708512107	915.436417093	1.5	0.1
0.01	1	0.00395972100000108	1	87	237.72109312	NA	1	0	3.02	1	235.280133817	235.284093538	"7"	917.708512107	915.436417093	1.5	0.1
0.01	1	0.0485356540000339	1	87	237.72109312	NA	1	0	3.02	1	235.513837325	235.562372979	"7"	917.708512107	915.436417093	1.5	0.1
0.01	1	0.00370514200000116	1	87	237.72109312	NA	1	0	3.02	1	235.797590122	235.801295264	"7"	917.708512107	915.436417093	1.5	0.1
0.01	1	0.601863836999996	1	87	237.72109312	NA	1	0	3.02	1	236.031324127	236.633187964	"7"	917.708512107	915.436417093	1.5	0.1
0.01	1	0.0865899950000539	1	87	237.72109312	NA	1	0	3.02	1	236.86614969	236.952739685	"7"	917.708512107	915.436417093	1.5	0.1
0.01	1	0.0896795589999897	1	87	237.72109312	NA	1	0	3.02	1	237.18334654	237.273026099	"7"	917.708512107	915.436417093	1.5	0.1
0.01	1	0.100502885000026	1	87	237.72109312	NA	1	0	3.02	1	237.500568019	237.601070904	"7"	917.708512107	915.436417093	1.5	0.1
0.01	1	0.222753161000014	1	6	241.293404157	NA	1	0	3.02	1	239.771030537	239.993783698	"8"	917.708512107	915.436417093	1.5	0.1
0.01	1	0.00218427599997995	1	6	241.293404157	NA	1	0	3.02	1	240.22179901	240.223983286	"8"	917.708512107	915.436417093	1.5	0.1
0.01	1	0.00200487900002599	1	6	241.293404157	NA	1	0	3.02	1	240.455524734	240.457529613	"8"	917.708512107	915.436417093	1.5	0.1
0.01	1	0.0096077869999931	1	6	241.293404157	NA	1	0	3.02	1	240.689217375	240.698825162	"8"	917.708512107	915.436417093	1.5	0.1
0.01	1	0.00393168199997262	1	6	241.293404157	NA	1	0	3.02	1	240.92286927	240.926800952	"8"	917.708512107	915.436417093	1.5	0.1
0.01	1	0.0283237509999594	1	6	241.293404157	NA	1	0	3.02	1	241.156690945	241.185014696	"8"	917.708512107	915.436417093	1.5	0.1
0.01	1	0.0418121189999852	1	106	NA	257.298874355	0	0.48	3.5	1	243.327061675	243.368873794	"9"	917.708512107	915.436417093	1.5	0.1
0.01	1	0.00203742600001533	1	106	NA	257.298874355	0	0.48	3.5	1	243.594154359	243.596191785	"9"	917.708512107	915.436417093	1.5	0.1
0.01	1	0.0927977489999989	1	106	NA	257.298874355	0	0.48	3.5	1	243.827880325	243.920678074	"9"	917.708512107	915.436417093	1.5	0.1
0.01	1	0.00388549400003058	1	106	NA	257.298874355	0	0.48	3.5	1	244.145013162	244.148898656	"9"	917.708512107	915.436417093	1.5	0.1
0.01	1	0.0625449590000358	1	106	NA	257.298874355	0	0.48	3.5	1	244.378681986	244.441226945	"9"	917.708512107	915.436417093	1.5	0.1
0.01	1	0.137259637999989	1	106	NA	257.298874355	0	0.48	3.5	1	244.679227685	244.816487323	"9"	917.708512107	915.436417093	1.5	0.1
0.01	1	0.123725561000015	1	106	NA	257.298874355	0	0.48	3.5	1	245.046631762	245.170357323	"9"	917.708512107	915.436417093	1.5	0.1
0.01	1	0.00412017500002548	1	106	NA	257.298874355	0	0.48	3.5	1	245.397132677	245.401252852	"9"	917.708512107	915.436417093	1.5	0.1
0.01	1	0.0912441699999818	1	106	NA	257.298874355	0	0.48	3.5	1	245.630880277	245.722124447	"9"	917.708512107	915.436417093	1.5	0.1
0.01	1	0.00208590100004358	1	106	NA	257.298874355	0	0.48	3.5	1	245.948054378	245.950140279	"9"	917.708512107	915.436417093	1.5	0.1
0.01	1	0.084438213999988	1	106	NA	257.298874355	0	0.48	3.5	1	246.181800855	246.266239069	"9"	917.708512107	915.436417093	1.5	0.1
0.01	1	0.00205074500001956	1	106	NA	257.298874355	0	0.48	3.5	1	246.498988225	246.50103897	"9"	917.708512107	915.436417093	1.5	0.1
0.01	1	0.0924691270000153	1	106	NA	257.298874355	0	0.48	3.5	1	246.732809805	246.825278932	"9"	917.708512107	915.436417093	1.5	0.1
0.01	1	0.00455809999999701	1	106	NA	257.298874355	0	0.48	3.5	1	247.04993007	247.05448817	"9"	917.708512107	915.436417093	1.5	0.1
0.01	1	0.109707626999977	1	106	NA	257.298874355	0	0.48	3.5	1	247.283670145	247.393377772	"9"	917.708512107	915.436417093	1.5	0.1
0.01	1	0.00225845800002844	1	106	NA	257.298874355	0	0.48	3.5	1	247.61755589	247.619814348	"9"	917.708512107	915.436417093	1.5	0.1
0.01	1	0.118692862999978	1	106	NA	257.298874355	0	0.48	3.5	1	247.851311855	247.970004718	"9"	917.708512107	915.436417093	1.5	0.1
0.01	1	0.00379757899997912	1	106	NA	257.298874355	0	0.48	3.5	1	248.201855457	248.205653036	"9"	917.708512107	915.436417093	1.5	0.1
0.01	1	0.0701470419999737	1	106	NA	257.298874355	0	0.48	3.5	1	248.435612405	248.505759447	"9"	917.708512107	915.436417093	1.5	0.1
0.01	1	0.00207073799998625	1	106	NA	257.298874355	0	0.48	3.5	1	248.736160346	248.738231084	"9"	917.708512107	915.436417093	1.5	0.1
0.01	1	0.0880629000000113	1	106	NA	257.298874355	0	0.48	3.5	1	248.969840535	249.057903435	"9"	917.708512107	915.436417093	1.5	0.1
0.01	1	0.00369981300002564	1	106	NA	257.298874355	0	0.48	3.5	1	249.286939965	249.290639778	"9"	917.708512107	915.436417093	1.5	0.1
0.01	1	0.0966516799999795	1	106	NA	257.298874355	0	0.48	3.5	1	249.520815055	249.617466735	"9"	917.708512107	915.436417093	1.5	0.1
0.01	1	0.00202798999998777	1	106	NA	257.298874355	0	0.48	3.5	1	249.854631667	249.856659657	"9"	917.708512107	915.436417093	1.5	0.1
0.01	1	0.0894999349999921	1	106	NA	257.298874355	0	0.48	3.5	1	250.088452435	250.17795237	"9"	917.708512107	915.436417093	1.5	0.1
0.01	1	0.0020095719999631	1	106	NA	257.298874355	0	0.48	3.5	1	250.405617707	250.407627279	"9"	917.708512107	915.436417093	1.5	0.1
0.01	1	0.090551693000009	1	106	NA	257.298874355	0	0.48	3.5	1	250.63941441	250.729966103	"9"	917.708512107	915.436417093	1.5	0.1
0.01	1	0.00388863000000583	1	106	NA	257.298874355	0	0.48	3.5	1	250.95643314	250.96032177	"9"	917.708512107	915.436417093	1.5	0.1
0.01	1	0.11548404399997	1	106	NA	257.298874355	0	0.48	3.5	1	251.190269805	251.305753849	"9"	917.708512107	915.436417093	1.5	0.1
0.01	1	0.107997291000004	1	106	NA	257.298874355	0	0.48	3.5	1	251.540805395	251.648802686	"9"	917.708512107	915.436417093	1.5	0.1
0.01	1	0.126295625000012	1	106	NA	257.298874355	0	0.48	3.5	1	251.87468823	252.000983855	"9"	917.708512107	915.436417093	1.5	0.1
0.01	1	0.00202882600001431	1	106	NA	257.298874355	0	0.48	3.5	1	252.225255068	252.227283894	"9"	917.708512107	915.436417093	1.5	0.1
0.01	1	0.0699383340000281	1	106	NA	257.298874355	0	0.48	3.5	1	252.45910728	252.529045614	"9"	917.708512107	915.436417093	1.5	0.1
0.01	1	0.00371662300000253	1	106	NA	257.298874355	0	0.48	3.5	1	252.759541525	252.763258148	"9"	917.708512107	915.436417093	1.5	0.1
0.01	1	0.064234220000003	1	106	NA	257.298874355	0	0.48	3.5	1	252.99327449	253.05750871	"9"	917.708512107	915.436417093	1.5	0.1
0.01	1	0.0920314839999605	1	106	NA	257.298874355	0	0.48	3.5	1	253.293790873	253.385822357	"9"	917.708512107	915.436417093	1.5	0.1
0.01	1	0.0021109630000069	1	106	NA	257.298874355	0	0.48	3.5	1	253.611031545	253.613142508	"9"	917.708512107	915.436417093	1.5	0.1
0.01	1	0.0760269069999708	1	106	NA	257.298874355	0	0.48	3.5	1	253.844687117	253.920714024	"9"	917.708512107	915.436417093	1.5	0.1
0.01	1	0.00386300200000278	1	106	NA	257.298874355	0	0.48	3.5	1	254.14506302	254.148926022	"9"	917.708512107	915.436417093	1.5	0.1
0.01	1	0.0696186160000138	1	106	NA	257.298874355	0	0.48	3.5	1	254.37895203	254.448570646	"9"	917.708512107	915.436417093	1.5	0.1
0.01	1	0.0039344659999756	1	106	NA	257.298874355	0	0.48	3.5	1	254.67947291	254.683407376	"9"	917.708512107	915.436417093	1.5	0.1
0.01	1	0.0044973419999792	1	106	NA	257.298874355	0	0.48	3.5	1	254.913253545	254.917750887	"9"	917.708512107	915.436417093	1.5	0.1
0.01	1	0.0037320399999885	1	106	NA	257.298874355	0	0.48	3.5	1	255.14684482	255.15057686	"9"	917.708512107	915.436417093	1.5	0.1
0.01	1	0.00402457799998501	1	106	NA	257.298874355	0	0.48	3.5	1	255.380586562	255.38461114	"9"	917.708512107	915.436417093	1.5	0.1
0.01	1	0.075262677000012	1	106	NA	257.298874355	0	0.48	3.5	1	255.614350305	255.689612982	"9"	917.708512107	915.436417093	1.5	0.1
0.01	1	0.00320522800001299	1	106	NA	257.298874355	0	0.48	3.5	1	255.91489787	255.918103098	"9"	917.708512107	915.436417093	1.5	0.1
0.01	1	0.0615135080000186	1	106	NA	257.298874355	0	0.48	3.5	1	256.148663262	256.21017677	"9"	917.708512107	915.436417093	1.5	0.1
0.01	1	0.0971448059999602	1	106	NA	257.298874355	0	0.48	3.5	1	256.43232516	256.529469966	"9"	917.708512107	915.436417093	1.5	0.1
0.01	1	0.531023806999997	2	106	NA	257.298874355	0	0.48	3.5	1	256.766252865	257.297276672	"9"	917.708512107	915.436417093	1.5	0.1
0.01	1	0.31174179900006	1	21	265.33372127	NA	1	0	3.5	1	259.337319435	259.649061234	"10"	917.708512107	915.436417093	1.5	0.1
0.01	1	0.12984123199999	1	21	265.33372127	NA	1	0	3.5	1	259.888131634	260.017972866	"10"	917.708512107	915.436417093	1.5	0.1
0.01	1	0.00453405999996903	1	21	265.33372127	NA	1	0	3.5	1	260.255561975	260.260096035	"10"	917.708512107	915.436417093	1.5	0.1
0.01	1	0.0804486109999516	1	21	265.33372127	NA	1	0	3.5	1	260.489223147	260.569671758	"10"	917.708512107	915.436417093	1.5	0.1
0.01	1	0.00363950600001317	1	21	265.33372127	NA	1	0	3.5	1	260.806358382	260.809997888	"10"	917.708512107	915.436417093	1.5	0.1
0.01	1	0.104979654999966	1	21	265.33372127	NA	1	0	3.5	1	261.040110865	261.14509052	"10"	917.708512107	915.436417093	1.5	0.1
0.01	1	0.00394795699992301	1	21	265.33372127	NA	1	0	3.5	1	261.374089327	261.378037284	"10"	917.708512107	915.436417093	1.5	0.1
0.01	1	0.0895752949999178	1	21	265.33372127	NA	1	0	3.5	1	261.607777672	261.697352967	"10"	917.708512107	915.436417093	1.5	0.1
0.01	1	0.00202813499993226	1	21	265.33372127	NA	1	0	3.5	1	261.924893055	261.92692119	"10"	917.708512107	915.436417093	1.5	0.1
0.01	1	0.11487243199997	1	21	265.33372127	NA	1	0	3.5	1	262.158632157	262.273504589	"10"	917.708512107	915.436417093	1.5	0.1
0.01	1	0.00455600199995843	1	21	265.33372127	NA	1	0	3.5	1	262.509199365	262.513755367	"10"	917.708512107	915.436417093	1.5	0.1
0.01	1	0.107132265000018	1	21	265.33372127	NA	1	0	3.5	1	262.743074302	262.850206567	"10"	917.708512107	915.436417093	1.5	0.1
0.01	1	0.00393790700002228	1	21	265.33372127	NA	1	0	3.5	1	263.076841085	263.080778992	"10"	917.708512107	915.436417093	1.5	0.1
0.01	1	0.0114105839999183	1	21	265.33372127	NA	1	0	3.5	1	263.31069339	263.322103974	"10"	917.708512107	915.436417093	1.5	0.1
0.01	1	0.0038587040000948	1	21	265.33372127	NA	1	0	3.5	1	263.56096817	263.564826874	"10"	917.708512107	915.436417093	1.5	0.1
0.01	1	0.0389576260000695	1	21	265.33372127	NA	1	0	3.5	1	263.794724532	263.833682158	"10"	917.708512107	915.436417093	1.5	0.1
0.01	1	0.00205460699999094	1	21	265.33372127	NA	1	0	3.5	1	264.061942439	264.063997046	"10"	917.708512107	915.436417093	1.5	0.1
0.01	1	0.0045413569999937	1	21	265.33372127	NA	1	0	3.5	1	264.29558151	264.300122867	"10"	917.708512107	915.436417093	1.5	0.1
0.01	1	0.0797542679999879	1	21	265.33372127	NA	1	0	3.5	1	264.52924729	264.609001558	"10"	917.708512107	915.436417093	1.5	0.1
0.01	1	0.138259569999946	1	21	265.33372127	NA	1	0	3.5	1	264.846450657	264.984710227	"10"	917.708512107	915.436417093	1.5	0.1
0.01	1	0.00383977100000266	1	21	265.33372127	NA	1	0	3.5	1	265.213813407	265.217653178	"10"	917.708512107	915.436417093	1.5	0.1
0.01	1	0.00435073400001329	1	19	272.51263039	NA	1	0	3.5	1	267.384184526	267.38853526	"11"	917.708512107	915.436417093	1.5	0.1
0.01	1	0.0020713540000088	1	19	272.51263039	NA	1	0	3.5	1	267.617940314	267.620011668	"11"	917.708512107	915.436417093	1.5	0.1
0.01	1	0.0775821570000517	1	19	272.51263039	NA	1	0	3.5	1	267.851596422	267.929178579	"11"	917.708512107	915.436417093	1.5	0.1
0.01	1	0.00206107600001815	1	19	272.51263039	NA	1	0	3.5	1	268.152148168	268.154209244	"11"	917.708512107	915.436417093	1.5	0.1
0.01	1	0.0870598579999751	1	19	272.51263039	NA	1	0	3.5	1	268.385805865	268.472865723	"11"	917.708512107	915.436417093	1.5	0.1
0.01	1	0.114335930000038	1	19	272.51263039	NA	1	0	3.5	1	268.70297917	268.8173151	"11"	917.708512107	915.436417093	1.5	0.1
0.01	1	0.00374769600000491	1	19	272.51263039	NA	1	0	3.5	1	269.05359675	269.057344446	"11"	917.708512107	915.436417093	1.5	0.1
0.01	1	0.0742669210000031	1	19	272.51263039	NA	1	0	3.5	1	269.287293527	269.361560448	"11"	917.708512107	915.436417093	1.5	0.1
0.01	1	0.00388346600004752	1	19	272.51263039	NA	1	0	3.5	1	269.587796522	269.591679988	"11"	917.708512107	915.436417093	1.5	0.1
0.01	1	0.0686935699999367	1	19	272.51263039	NA	1	0	3.5	1	269.821467515	269.890161085	"11"	917.708512107	915.436417093	1.5	0.1
0.01	1	0.00461529500000779	1	19	272.51263039	NA	1	0	3.5	1	270.122071665	270.12668696	"11"	917.708512107	915.436417093	1.5	0.1
0.01	1	0.16635703899999	1	19	272.51263039	NA	1	0	3.5	1	270.355789986	270.522147025	"11"	917.708512107	915.436417093	1.5	0.1
0.01	1	0.00198146900004303	1	19	272.51263039	NA	1	0	3.5	1	270.756480214	270.758461683	"11"	917.708512107	915.436417093	1.5	0.1
0.01	1	0.0674252860000024	1	19	272.51263039	NA	1	0	3.5	1	270.99023248	271.057657766	"11"	917.708512107	915.436417093	1.5	0.1
0.01	1	0.055444902999966	1	19	272.51263039	NA	1	0	3.5	1	271.290715712	271.346160615	"11"	917.708512107	915.436417093	1.5	0.1
0.01	1	0.00395475000004808	1	19	272.51263039	NA	1	0	3.5	1	271.57450327	271.57845802	"11"	917.708512107	915.436417093	1.5	0.1
0.01	1	0.049913652999976	1	19	272.51263039	NA	1	0	3.5	1	271.80825605	271.858169703	"11"	917.708512107	915.436417093	1.5	0.1
0.01	1	0.00392707699995754	1	19	272.51263039	NA	1	0	3.5	1	272.091976737	272.095903814	"11"	917.708512107	915.436417093	1.5	0.1
0.01	1	0.0757548750000296	1	19	272.51263039	NA	1	0	3.5	1	272.325756165	272.40151104	"11"	917.708512107	915.436417093	1.5	0.1
0.01	1	0.222348186999966	1	63	NA	289.923073255	0	0.54	4.04	1	274.562832075	274.785180262	"12"	917.708512107	915.436417093	1.5	0.1
0.01	1	0.00449034999996911	1	63	NA	289.923073255	0	0.54	4.04	1	275.013695505	275.018185855	"12"	917.708512107	915.436417093	1.5	0.1
0.01	1	0.106423918000019	1	63	NA	289.923073255	0	0.54	4.04	1	275.247441817	275.353865735	"12"	917.708512107	915.436417093	1.5	0.1
0.01	1	0.00203358099997786	1	63	NA	289.923073255	0	0.54	4.04	1	275.581276505	275.583310086	"12"	917.708512107	915.436417093	1.5	0.1
0.01	1	0.114155628000049	1	63	NA	289.923073255	0	0.54	4.04	1	275.81496316	275.929118788	"12"	917.708512107	915.436417093	1.5	0.1
0.01	1	0.00205854199998612	1	63	NA	289.923073255	0	0.54	4.04	1	276.165554156	276.167612698	"12"	917.708512107	915.436417093	1.5	0.1
0.01	1	0.0978988470000104	1	63	NA	289.923073255	0	0.54	4.04	1	276.399297922	276.497196769	"12"	917.708512107	915.436417093	1.5	0.1
0.01	1	0.00202222199993685	1	63	NA	289.923073255	0	0.54	4.04	1	276.733249904	276.735272126	"12"	917.708512107	915.436417093	1.5	0.1
0.01	1	0.0909814980000192	1	63	NA	289.923073255	0	0.54	4.04	1	276.966912302	277.0578938	"12"	917.708512107	915.436417093	1.5	0.1
0.01	1	0.00402622400008568	1	63	NA	289.923073255	0	0.54	4.04	1	277.28413073	277.288156954	"12"	917.708512107	915.436417093	1.5	0.1
0.01	1	0.100053428000024	1	63	NA	289.923073255	0	0.54	4.04	1	277.517912987	277.617966415	"12"	917.708512107	915.436417093	1.5	0.1
0.01	1	0.00203080400001454	1	63	NA	289.923073255	0	0.54	4.04	1	277.851755998	277.853786802	"12"	917.708512107	915.436417093	1.5	0.1
0.01	1	0.12315236500001	1	63	NA	289.923073255	0	0.54	4.04	1	278.085421027	278.208573392	"12"	917.708512107	915.436417093	1.5	0.1
0.01	1	0.0044354750000366	1	63	NA	289.923073255	0	0.54	4.04	1	278.436110475	278.44054595	"12"	917.708512107	915.436417093	1.5	0.1
0.01	1	0.0746464279999373	1	63	NA	289.923073255	0	0.54	4.04	1	278.66978148	278.744427908	"12"	917.708512107	915.436417093	1.5	0.1
0.01	1	0.00386609700001372	1	63	NA	289.923073255	0	0.54	4.04	1	278.970311635	278.974177732	"12"	917.708512107	915.436417093	1.5	0.1
0.01	1	0.101591675999998	1	63	NA	289.923073255	0	0.54	4.04	1	279.204102522	279.305694198	"12"	917.708512107	915.436417093	1.5	0.1
0.01	1	0.00200085799997396	1	63	NA	289.923073255	0	0.54	4.04	1	279.537905962	279.53990682	"12"	917.708512107	915.436417093	1.5	0.1
0.01	1	0.085127148999959	1	63	NA	289.923073255	0	0.54	4.04	1	279.771669195	279.856796344	"12"	917.708512107	915.436417093	1.5	0.1
0.01	1	0.00392174900002829	1	63	NA	289.923073255	0	0.54	4.04	1	280.088861137	280.092782886	"12"	917.708512107	915.436417093	1.5	0.1
0.01	1	0.0793992119999984	1	63	NA	289.923073255	0	0.54	4.04	1	280.322591305	280.401990517	"12"	917.708512107	915.436417093	1.5	0.1
0.01	1	0.00199624700007917	1	63	NA	289.923073255	0	0.54	4.04	1	280.639834725	280.641830972	"12"	917.708512107	915.436417093	1.5	0.1
0.01	1	0.0644353169999476	1	63	NA	289.923073255	0	0.54	4.04	1	280.873524217	280.937959534	"12"	917.708512107	915.436417093	1.5	0.1
0.01	1	0.124389382000004	1	63	NA	289.923073255	0	0.54	4.04	1	281.17404036	281.298429742	"12"	917.708512107	915.436417093	1.5	0.1
0.01	1	0.00455536499998743	1	63	NA	289.923073255	0	0.54	4.04	1	281.524631005	281.52918637	"12"	917.708512107	915.436417093	1.5	0.1
0.01	1	0.0760651979999238	1	63	NA	289.923073255	0	0.54	4.04	1	281.75835796	281.834423158	"12"	917.708512107	915.436417093	1.5	0.1
0.01	1	0.00204893900001935	1	63	NA	289.923073255	0	0.54	4.04	1	282.058782927	282.060831866	"12"	917.708512107	915.436417093	1.5	0.1
0.01	1	0.0917152129999295	1	63	NA	289.923073255	0	0.54	4.04	1	282.292692215	282.384407428	"12"	917.708512107	915.436417093	1.5	0.1
0.01	1	0.00448428199990758	1	63	NA	289.923073255	0	0.54	4.04	1	282.609768745	282.614253027	"12"	917.708512107	915.436417093	1.5	0.1
0.01	1	0.069431143000088	1	63	NA	289.923073255	0	0.54	4.04	1	282.843504797	282.91293594	"12"	917.708512107	915.436417093	1.5	0.1
0.01	1	0.00431493500002489	1	63	NA	289.923073255	0	0.54	4.04	1	283.143999902	283.148314837	"12"	917.708512107	915.436417093	1.5	0.1
0.01	1	0.0562872870000319	1	63	NA	289.923073255	0	0.54	4.04	1	283.377622995	283.433910282	"12"	917.708512107	915.436417093	1.5	0.1
0.01	1	0.00456632999998874	1	63	NA	289.923073255	0	0.54	4.04	1	283.661561685	283.666128015	"12"	917.708512107	915.436417093	1.5	0.1
0.01	1	0.0414572229999521	1	63	NA	289.923073255	0	0.54	4.04	1	283.895280505	283.936737728	"12"	917.708512107	915.436417093	1.5	0.1
0.01	1	0.00438517200007027	1	63	NA	289.923073255	0	0.54	4.04	1	284.162291405	284.166676577	"12"	917.708512107	915.436417093	1.5	0.1
0.01	1	0.0454491020000205	1	63	NA	289.923073255	0	0.54	4.04	1	284.395997675	284.441446777	"12"	917.708512107	915.436417093	1.5	0.1
0.01	1	0.00209459400002743	1	63	NA	289.923073255	0	0.54	4.04	1	284.6798692	284.681963794	"12"	917.708512107	915.436417093	1.5	0.1
0.01	1	0.0629362329999594	1	63	NA	289.923073255	0	0.54	4.04	1	284.913668822	284.976605055	"12"	917.708512107	915.436417093	1.5	0.1
0.01	1	0.00386117199991531	1	63	NA	289.923073255	0	0.54	4.04	1	285.21409651	285.217957682	"12"	917.708512107	915.436417093	1.5	0.1
0.01	1	0.0741975760000742	1	63	NA	289.923073255	0	0.54	4.04	1	285.44786634	285.522063916	"12"	917.708512107	915.436417093	1.5	0.1
0.01	1	0.00397977800002991	1	63	NA	289.923073255	0	0.54	4.04	1	285.74838155	285.752361328	"12"	917.708512107	915.436417093	1.5	0.1
0.01	1	0.0434197889999268	1	63	NA	289.923073255	0	0.54	4.04	1	285.982145177	286.025564966	"12"	917.708512107	915.436417093	1.5	0.1
0.01	1	0.0961781280000196	1	63	NA	289.923073255	0	0.54	4.04	1	286.26593118	286.362109308	"12"	917.708512107	915.436417093	1.5	0.1
0.01	1	0.112716306000038	1	63	NA	289.923073255	0	0.54	4.04	1	286.599762256	286.712478562	"12"	917.708512107	915.436417093	1.5	0.1
0.01	1	0.00197947100002693	1	63	NA	289.923073255	0	0.54	4.04	1	286.950441056	286.952420527	"12"	917.708512107	915.436417093	1.5	0.1
0.01	1	0.0887772769999629	1	63	NA	289.923073255	0	0.54	4.04	1	287.184128385	287.272905662	"12"	917.708512107	915.436417093	1.5	0.1
0.01	1	0.0020321069999909	1	63	NA	289.923073255	0	0.54	4.04	1	287.501292939	287.503325046	"12"	917.708512107	915.436417093	1.5	0.1
0.01	1	0.0662492380000685	1	63	NA	289.923073255	0	0.54	4.04	1	287.734994247	287.801243485	"12"	917.708512107	915.436417093	1.5	0.1
0.01	1	0.00200215500001377	1	63	NA	289.923073255	0	0.54	4.04	1	288.035579594	288.037581749	"12"	917.708512107	915.436417093	1.5	0.1
0.01	1	0.0434717530000626	1	63	NA	289.923073255	0	0.54	4.04	1	288.269323295	288.312795048	"12"	917.708512107	915.436417093	1.5	0.1
0.01	1	0.00213231999998698	1	63	NA	289.923073255	0	0.54	4.04	1	288.536355856	288.538488176	"12"	917.708512107	915.436417093	1.5	0.1
0.01	1	0.0711305419999917	1	63	NA	289.923073255	0	0.54	4.04	1	288.770110265	288.841240807	"12"	917.708512107	915.436417093	1.5	0.1
0.01	1	0.00384170400002404	1	63	NA	289.923073255	0	0.54	4.04	1	289.07060807	289.074449774	"12"	917.708512107	915.436417093	1.5	0.1
0.01	1	0.0662405629999512	1	63	NA	289.923073255	0	0.54	4.04	1	289.304283115	289.370523678	"12"	917.708512107	915.436417093	1.5	0.1
0.01	1	0.316549548000012	2	63	NA	289.923073255	0	0.54	4.04	1	289.604877295	289.921426843	"12"	917.708512107	915.436417093	1.5	0.1
0.01	1	0.498280636999993	1	54	307.270866305	NA	1	0	4.04	1	291.97550691	292.473787547	"13"	917.708512107	915.436417093	1.5	0.1
0.01	1	0.0916273179999507	1	54	307.270866305	NA	1	0	4.04	1	292.710028247	292.801655565	"13"	917.708512107	915.436417093	1.5	0.1
0.01	1	0.00402090600005067	1	54	307.270866305	NA	1	0	4.04	1	293.02723517	293.031256076	"13"	917.708512107	915.436417093	1.5	0.1
0.01	1	0.0611380949999329	1	54	307.270866305	NA	1	0	4.04	1	293.261010575	293.32214867	"13"	917.708512107	915.436417093	1.5	0.1
0.01	1	0.00383419100000992	1	54	307.270866305	NA	1	0	4.04	1	293.544751697	293.548585888	"13"	917.708512107	915.436417093	1.5	0.1
0.01	1	0.103147067999998	1	54	307.270866305	NA	1	0	4.04	1	293.778532315	293.881679383	"13"	917.708512107	915.436417093	1.5	0.1
0.01	1	0.00461051999991469	1	54	307.270866305	NA	1	0	4.04	1	294.11252915	294.11713967	"13"	917.708512107	915.436417093	1.5	0.1
0.01	1	0.0868265760000213	1	54	307.270866305	NA	1	0	4.04	1	294.346192452	294.433019028	"13"	917.708512107	915.436417093	1.5	0.1
0.01	1	0.00397981300000083	1	54	307.270866305	NA	1	0	4.04	1	294.663272325	294.667252138	"13"	917.708512107	915.436417093	1.5	0.1
0.01	1	0.0811282090000986	1	54	307.270866305	NA	1	0	4.04	1	294.89708165	294.978209859	"13"	917.708512107	915.436417093	1.5	0.1
0.01	1	0.00206759000002421	1	54	307.270866305	NA	1	0	4.04	1	295.214273045	295.216340635	"13"	917.708512107	915.436417093	1.5	0.1
0.01	1	0.104518158000019	1	54	307.270866305	NA	1	0	4.04	1	295.448058082	295.55257624	"13"	917.708512107	915.436417093	1.5	0.1
0.01	1	0.00387003200000891	1	54	307.270866305	NA	1	0	4.04	1	295.78197304	295.785843072	"13"	917.708512107	915.436417093	1.5	0.1
0.01	1	0.0504080270000031	1	54	307.270866305	NA	1	0	4.04	1	296.015705177	296.066113204	"13"	917.708512107	915.436417093	1.5	0.1
0.01	1	0.00205891300004168	1	54	307.270866305	NA	1	0	4.04	1	296.299488846	296.301547759	"13"	917.708512107	915.436417093	1.5	0.1
0.01	1	0.0995424510000475	1	54	307.270866305	NA	1	0	4.04	1	296.533155445	296.632697896	"13"	917.708512107	915.436417093	1.5	0.1
0.01	1	0.00395039300008193	1	54	307.270866305	NA	1	0	4.04	1	296.867007885	296.870958278	"13"	917.708512107	915.436417093	1.5	0.1
0.01	1	0.0685415250000005	1	54	307.270866305	NA	1	0	4.04	1	297.100724915	297.16926644	"13"	917.708512107	915.436417093	1.5	0.1
0.01	1	0.00200906299994585	1	54	307.270866305	NA	1	0	4.04	1	297.401378025	297.403387088	"13"	917.708512107	915.436417093	1.5	0.1
0.01	1	0.0944178669999474	1	54	307.270866305	NA	1	0	4.04	1	297.635040387	297.729458254	"13"	917.708512107	915.436417093	1.5	0.1
0.01	1	0.00209159600001385	1	54	307.270866305	NA	1	0	4.04	1	297.952250834	297.95434243	"13"	917.708512107	915.436417093	1.5	0.1
0.01	1	0.00390964300004271	1	54	307.270866305	NA	1	0	4.04	1	298.185934767	298.18984441	"13"	917.708512107	915.436417093	1.5	0.1
0.01	1	0.00681487999997898	1	54	307.270866305	NA	1	0	4.04	1	298.41963885	298.42645373	"13"	917.708512107	915.436417093	1.5	0.1
0.01	1	0.00368663099993682	1	54	307.270866305	NA	1	0	4.04	1	298.653354617	298.657041248	"13"	917.708512107	915.436417093	1.5	0.1
0.01	1	0.0580106060000389	1	54	307.270866305	NA	1	0	4.04	1	298.887224229	298.945234835	"13"	917.708512107	915.436417093	1.5	0.1
0.01	1	0.00371115999996618	1	54	307.270866305	NA	1	0	4.04	1	299.17096568	299.17467684	"13"	917.708512107	915.436417093	1.5	0.1
0.01	1	0.0533486429999357	1	54	307.270866305	NA	1	0	4.04	1	299.404651715	299.458000358	"13"	917.708512107	915.436417093	1.5	0.1
0.01	1	0.00367172000005667	1	54	307.270866305	NA	1	0	4.04	1	299.68852531	299.69219703	"13"	917.708512107	915.436417093	1.5	0.1
0.01	1	0.0701941150000494	1	54	307.270866305	NA	1	0	4.04	1	299.922248425	299.99244254	"13"	917.708512107	915.436417093	1.5	0.1
0.01	1	0.11466508400008	1	54	307.270866305	NA	1	0	4.04	1	300.222689305	300.337354389	"13"	917.708512107	915.436417093	1.5	0.1
0.01	1	0.0038562089999914	1	54	307.270866305	NA	1	0	4.04	1	300.573248667	300.577104876	"13"	917.708512107	915.436417093	1.5	0.1
0.01	1	0.050382505000016	1	54	307.270866305	NA	1	0	4.04	1	300.806996545	300.85737905	"13"	917.708512107	915.436417093	1.5	0.1
0.01	1	0.0022020149999662	1	54	307.270866305	NA	1	0	4.04	1	301.090797009	301.092999024	"13"	917.708512107	915.436417093	1.5	0.1
0.01	1	0.00377200000002631	1	54	307.270866305	NA	1	0	4.04	1	301.32462468	301.32839668	"13"	917.708512107	915.436417093	1.5	0.1
0.01	1	0.107596539000042	1	54	307.270866305	NA	1	0	4.04	1	301.558348955	301.665945494	"13"	917.708512107	915.436417093	1.5	0.1
0.01	1	0.00343988600002376	1	54	307.270866305	NA	1	0	4.04	1	301.892169506	301.895609392	"13"	917.708512107	915.436417093	1.5	0.1
0.01	1	0.00387229199998274	1	54	307.270866305	NA	1	0	4.04	1	302.12596519	302.129837482	"13"	917.708512107	915.436417093	1.5	0.1
0.01	1	0.370595402000049	1	54	307.270866305	NA	1	0	4.04	1	302.359594795	302.730190197	"13"	917.708512107	915.436417093	1.5	0.1
0.01	1	0.0400525779999725	1	54	307.270866305	NA	1	0	4.04	1	302.960619567	303.000672145	"13"	917.708512107	915.436417093	1.5	0.1
0.01	1	0.00648029199999201	1	54	307.270866305	NA	1	0	4.04	1	303.227776868	303.23425716	"13"	917.708512107	915.436417093	1.5	0.1
0.01	1	0.00703258999999434	1	54	307.270866305	NA	1	0	4.04	1	303.46147037	303.46850296	"13"	917.708512107	915.436417093	1.5	0.1
0.01	1	0.00210957800004508	1	54	307.270866305	NA	1	0	4.04	1	303.695242135	303.697351713	"13"	917.708512107	915.436417093	1.5	0.1
0.01	1	0.00209102099995562	1	54	307.270866305	NA	1	0	4.04	1	303.928892265	303.930983286	"13"	917.708512107	915.436417093	1.5	0.1
0.01	1	0.10340531199995	1	54	307.270866305	NA	1	0	4.04	1	304.162682047	304.266087359	"13"	917.708512107	915.436417093	1.5	0.1
0.01	1	0.00397756299992125	1	54	307.270866305	NA	1	0	4.04	1	304.496509167	304.50048673	"13"	917.708512107	915.436417093	1.5	0.1
0.01	1	0.111434831999986	1	54	307.270866305	NA	1	0	4.04	1	304.730264725	304.841699557	"13"	917.708512107	915.436417093	1.5	0.1
0.01	1	0.00455570199994781	1	54	307.270866305	NA	1	0	4.04	1	305.064219355	305.068775057	"13"	917.708512107	915.436417093	1.5	0.1
0.01	1	0.102866102999997	1	54	307.270866305	NA	1	0	4.04	1	305.297885872	305.400751975	"13"	917.708512107	915.436417093	1.5	0.1
0.01	1	0.00395609100007732	1	54	307.270866305	NA	1	0	4.04	1	305.631755125	305.635711216	"13"	917.708512107	915.436417093	1.5	0.1
0.01	1	0.103712192999978	1	54	307.270866305	NA	1	0	4.04	1	305.865548475	305.969260668	"13"	917.708512107	915.436417093	1.5	0.1
0.01	1	0.145927171000039	1	54	307.270866305	NA	1	0	4.04	1	306.199405905	306.345333076	"13"	917.708512107	915.436417093	1.5	0.1
0.01	1	0.004590306999944	1	54	307.270866305	NA	1	0	4.04	1	306.583469575	306.588059882	"13"	917.708512107	915.436417093	1.5	0.1
0.01	1	0.104217272999904	1	54	307.270866305	NA	1	0	4.04	1	306.817119327	306.9213366	"13"	917.708512107	915.436417093	1.5	0.1
0.01	1	0.0039167479999378	1	54	307.270866305	NA	1	0	4.04	1	307.151072742	307.15498949	"13"	917.708512107	915.436417093	1.5	0.1
0.01	1	0.0878598180000836	1	103	NA	324.138072298	0	0.52	4.56	1	309.30464209	309.392501908	"14"	917.708512107	915.436417093	1.5	0.1
0.01	1	0.00380616899997221	1	103	NA	324.138072298	0	0.52	4.56	1	309.621870125	309.625676294	"14"	917.708512107	915.436417093	1.5	0.1
0.01	1	0.0654800569999452	1	103	NA	324.138072298	0	0.52	4.56	1	309.85559497	309.921075027	"14"	917.708512107	915.436417093	1.5	0.1
0.01	1	0.00431970800002546	1	103	NA	324.138072298	0	0.52	4.56	1	310.155993089	310.160312797	"14"	917.708512107	915.436417093	1.5	0.1
0.01	1	0.0593658270000788	1	103	NA	324.138072298	0	0.52	4.56	1	310.389801399	310.449167226	"14"	917.708512107	915.436417093	1.5	0.1
0.01	1	0.0045330070000773	1	103	NA	324.138072298	0	0.52	4.56	1	310.6735766	310.678109607	"14"	917.708512107	915.436417093	1.5	0.1
0.01	1	0.0539698459999727	1	103	NA	324.138072298	0	0.52	4.56	1	310.907315095	310.961284941	"14"	917.708512107	915.436417093	1.5	0.1
0.01	1	0.0664618239999299	1	103	NA	324.138072298	0	0.52	4.56	1	311.191205265	311.257667089	"14"	917.708512107	915.436417093	1.5	0.1
0.01	1	0.0046201900000824	1	103	NA	324.138072298	0	0.52	4.56	1	311.491662665	311.496282855	"14"	917.708512107	915.436417093	1.5	0.1
0.01	1	0.0435218399999258	1	103	NA	324.138072298	0	0.52	4.56	1	311.72530022	311.76882206	"14"	917.708512107	915.436417093	1.5	0.1
0.01	1	0.00208278999991762	1	103	NA	324.138072298	0	0.52	4.56	1	311.9925498	311.99463259	"14"	917.708512107	915.436417093	1.5	0.1
0.01	1	0.0790050389999806	1	103	NA	324.138072298	0	0.52	4.56	1	312.226199865	312.305204904	"14"	917.708512107	915.436417093	1.5	0.1
0.01	1	0.00391471900002216	1	103	NA	324.138072298	0	0.52	4.56	1	312.543374237	312.547288956	"14"	917.708512107	915.436417093	1.5	0.1
0.01	1	0.0553775889999315	1	103	NA	324.138072298	0	0.52	4.56	1	312.777099465	312.832477054	"14"	917.708512107	915.436417093	1.5	0.1
0.01	1	0.00455815499992696	1	103	NA	324.138072298	0	0.52	4.56	1	313.060986705	313.06554486	"14"	917.708512107	915.436417093	1.5	0.1
0.01	1	0.0498003019999942	1	103	NA	324.138072298	0	0.52	4.56	1	313.294633825	313.344434127	"14"	917.708512107	915.436417093	1.5	0.1
0.01	1	0.00199012500002027	1	103	NA	324.138072298	0	0.52	4.56	1	313.57846324	313.580453365	"14"	917.708512107	915.436417093	1.5	0.1
0.01	1	0.0534042550000322	1	103	NA	324.138072298	0	0.52	4.56	1	313.812241177	313.865645432	"14"	917.708512107	915.436417093	1.5	0.1
0.01	1	0.00204900899996119	1	103	NA	324.138072298	0	0.52	4.56	1	314.096096593	314.098145602	"14"	917.708512107	915.436417093	1.5	0.1
0.01	1	0.0726463710000189	1	103	NA	324.138072298	0	0.52	4.56	1	314.329710992	314.402357363	"14"	917.708512107	915.436417093	1.5	0.1
0.01	1	0.00389611599996442	1	103	NA	324.138072298	0	0.52	4.56	1	314.63025063	314.634146746	"14"	917.708512107	915.436417093	1.5	0.1
0.01	1	0.0742420480000874	1	103	NA	324.138072298	0	0.52	4.56	1	314.86393106	314.938173108	"14"	917.708512107	915.436417093	1.5	0.1
0.01	1	0.00204409299999497	1	103	NA	324.138072298	0	0.52	4.56	1	315.164517652	315.166561745	"14"	917.708512107	915.436417093	1.5	0.1
0.01	1	0.0995436599999948	1	103	NA	324.138072298	0	0.52	4.56	1	315.398241415	315.497785075	"14"	917.708512107	915.436417093	1.5	0.1
0.01	1	0.00434735600003933	1	103	NA	324.138072298	0	0.52	4.56	1	315.732060159	315.736407515	"14"	917.708512107	915.436417093	1.5	0.1
0.01	1	0.0994297809999125	1	103	NA	324.138072298	0	0.52	4.56	1	315.965838976	316.065268757	"14"	917.708512107	915.436417093	1.5	0.1
0.01	1	0.00368036099996516	1	103	NA	324.138072298	0	0.52	4.56	1	316.299720967	316.303401328	"14"	917.708512107	915.436417093	1.5	0.1
0.01	1	0.0923713440000711	1	103	NA	324.138072298	0	0.52	4.56	1	316.53344586	316.625817204	"14"	917.708512107	915.436417093	1.5	0.1
0.01	1	0.00453613199999836	1	103	NA	324.138072298	0	0.52	4.56	1	316.850702285	316.855238417	"14"	917.708512107	915.436417093	1.5	0.1
0.01	1	0.00394505300005221	1	103	NA	324.138072298	0	0.52	4.56	1	317.084391285	317.088336338	"14"	917.708512107	915.436417093	1.5	0.1
0.01	1	0.0683143999999629	1	103	NA	324.138072298	0	0.52	4.56	1	317.31817612	317.38649052	"14"	917.708512107	915.436417093	1.5	0.1
0.01	1	0.00199317800002063	1	103	NA	324.138072298	0	0.52	4.56	1	317.618654025	317.620647203	"14"	917.708512107	915.436417093	1.5	0.1
0.01	1	0.0606396029999132	1	103	NA	324.138072298	0	0.52	4.56	1	317.852398505	317.913038108	"14"	917.708512107	915.436417093	1.5	0.1
0.01	1	0.00399271399999179	1	103	NA	324.138072298	0	0.52	4.56	1	318.1361619	318.140154614	"14"	917.708512107	915.436417093	1.5	0.1
0.01	1	0.0723603970000113	1	103	NA	324.138072298	0	0.52	4.56	1	318.369969162	318.442329559	"14"	917.708512107	915.436417093	1.5	0.1
0.01	1	0.00205549800000426	1	103	NA	324.138072298	0	0.52	4.56	1	318.67037127	318.672426768	"14"	917.708512107	915.436417093	1.5	0.1
0.01	1	0.0887149379999528	1	103	NA	324.138072298	0	0.52	4.56	1	318.90415271	318.992867648	"14"	917.708512107	915.436417093	1.5	0.1
0.01	1	0.00462751200007006	1	103	NA	324.138072298	0	0.52	4.56	1	319.221364405	319.225991917	"14"	917.708512107	915.436417093	1.5	0.1
0.01	1	0.0671479590000672	1	103	NA	324.138072298	0	0.52	4.56	1	319.455150805	319.522298764	"14"	917.708512107	915.436417093	1.5	0.1
0.01	1	0.00392399399993337	1	103	NA	324.138072298	0	0.52	4.56	1	319.75559517	319.759519164	"14"	917.708512107	915.436417093	1.5	0.1
0.01	1	0.0760235019999982	1	103	NA	324.138072298	0	0.52	4.56	1	319.989320885	320.065344387	"14"	917.708512107	915.436417093	1.5	0.1
0.01	1	0.00448685099991053	1	103	NA	324.138072298	0	0.52	4.56	1	320.289774846	320.294261697	"14"	917.708512107	915.436417093	1.5	0.1
0.01	1	0.0862995679999585	1	103	NA	324.138072298	0	0.52	4.56	1	320.52348992	320.609789488	"14"	917.708512107	915.436417093	1.5	0.1
0.01	1	0.104707730000086	1	103	NA	324.138072298	0	0.52	4.56	1	320.840721505	320.945429235	"14"	917.708512107	915.436417093	1.5	0.1
0.01	1	0.0822888580000836	1	103	NA	324.138072298	0	0.52	4.56	1	321.17459968	321.256888538	"14"	917.708512107	915.436417093	1.5	0.1
0.01	1	0.00206863899995824	1	103	NA	324.138072298	0	0.52	4.56	1	321.491867105	321.493935744	"14"	917.708512107	915.436417093	1.5	0.1
0.01	1	0.338974267000026	1	103	NA	324.138072298	0	0.52	4.56	1	321.725586575	322.064560842	"14"	917.708512107	915.436417093	1.5	0.1
0.01	1	0.100960858999997	1	103	NA	324.138072298	0	0.52	4.56	1	322.29312056	322.394081419	"14"	917.708512107	915.436417093	1.5	0.1
0.01	1	0.118264699000065	1	103	NA	324.138072298	0	0.52	4.56	1	322.627008945	322.745273644	"14"	917.708512107	915.436417093	1.5	0.1
0.01	1	0.00458524500004387	1	103	NA	324.138072298	0	0.52	4.56	1	322.97765614	322.982241385	"14"	917.708512107	915.436417093	1.5	0.1
0.01	1	0.0386654679999765	1	103	NA	324.138072298	0	0.52	4.56	1	323.211369257	323.250034725	"14"	917.708512107	915.436417093	1.5	0.1
0.01	1	0.00457492999998976	1	103	NA	324.138072298	0	0.52	4.56	1	323.4785331	323.48310803	"14"	917.708512107	915.436417093	1.5	0.1
0.01	1	0.424385896999979	2	103	NA	324.138072298	0	0.52	4.56	1	323.712141245	324.136527142	"14"	917.708512107	915.436417093	1.5	0.1
0.01	1	0.426593199000081	1	120	NA	344.27617514	0	0.61	5.17	1	326.183021625	326.609614824	"15"	917.708512107	915.436417093	1.5	0.1
0.01	1	0.00376277399993796	1	120	NA	344.27617514	0	0.61	5.17	1	326.83410867	326.837871444	"15"	917.708512107	915.436417093	1.5	0.1
0.01	1	0.0535283170000866	1	120	NA	344.27617514	0	0.61	5.17	1	327.067853407	327.121381724	"15"	917.708512107	915.436417093	1.5	0.1
0.01	1	0.00203510000005735	1	120	NA	344.27617514	0	0.61	5.17	1	327.351730317	327.353765417	"15"	917.708512107	915.436417093	1.5	0.1
0.01	1	0.0241189700000177	1	120	NA	344.27617514	0	0.61	5.17	1	327.585353935	327.609472905	"15"	917.708512107	915.436417093	1.5	0.1
0.01	1	0.0036798710000312	1	120	NA	344.27617514	0	0.61	5.17	1	327.835847527	327.839527398	"15"	917.708512107	915.436417093	1.5	0.1
0.01	1	0.00202595700000074	1	120	NA	344.27617514	0	0.61	5.17	1	328.069603647	328.071629604	"15"	917.708512107	915.436417093	1.5	0.1
0.01	1	0.075197127000024	1	120	NA	344.27617514	0	0.61	5.17	1	328.303272262	328.378469389	"15"	917.708512107	915.436417093	1.5	0.1
0.01	1	0.00387932300009197	1	120	NA	344.27617514	0	0.61	5.17	1	328.603754115	328.607633438	"15"	917.708512107	915.436417093	1.5	0.1
0.01	1	0.0523700640000015	1	120	NA	344.27617514	0	0.61	5.17	1	328.837502315	328.889872379	"15"	917.708512107	915.436417093	1.5	0.1
0.01	1	0.0969892230000369	1	120	NA	344.27617514	0	0.61	5.17	1	329.121341912	329.218331135	"15"	917.708512107	915.436417093	1.5	0.1
0.01	1	0.083131554999909	1	120	NA	344.27617514	0	0.61	5.17	1	329.45524975	329.538381305	"15"	917.708512107	915.436417093	1.5	0.1
0.01	1	0.0763662749999412	1	120	NA	344.27617514	0	0.61	5.17	1	329.7724763	329.848842575	"15"	917.708512107	915.436417093	1.5	0.1
0.01	1	0.00429345099996681	1	120	NA	344.27617514	0	0.61	5.17	1	330.089522056	330.093815507	"15"	917.708512107	915.436417093	1.5	0.1
0.01	1	0.0778363990000344	1	120	NA	344.27617514	0	0.61	5.17	1	330.323361615	330.401198014	"15"	917.708512107	915.436417093	1.5	0.1
0.01	1	0.00437460099999498	1	120	NA	344.27617514	0	0.61	5.17	1	330.623761879	330.62813648	"15"	917.708512107	915.436417093	1.5	0.1
0.01	1	0.056026625999948	1	120	NA	344.27617514	0	0.61	5.17	1	330.857702842	330.913729468	"15"	917.708512107	915.436417093	1.5	0.1
0.01	1	0.00391745199999605	1	120	NA	344.27617514	0	0.61	5.17	1	331.14137315	331.145290602	"15"	917.708512107	915.436417093	1.5	0.1
0.01	1	0.0663333530000045	1	120	NA	344.27617514	0	0.61	5.17	1	331.375076137	331.44140949	"15"	917.708512107	915.436417093	1.5	0.1
0.01	1	0.102705784999898	1	120	NA	344.27617514	0	0.61	5.17	1	331.67562319	331.778328975	"15"	917.708512107	915.436417093	1.5	0.1
0.01	1	0.00463682500003415	1	120	NA	344.27617514	0	0.61	5.17	1	332.00959221	332.014229035	"15"	917.708512107	915.436417093	1.5	0.1
0.01	1	0.069248254999934	1	120	NA	344.27617514	0	0.61	5.17	1	332.243194767	332.312443022	"15"	917.708512107	915.436417093	1.5	0.1
0.01	1	0.0037402950000569	1	120	NA	344.27617514	0	0.61	5.17	1	332.543775047	332.547515342	"15"	917.708512107	915.436417093	1.5	0.1
0.01	1	0.0722452709999288	1	120	NA	344.27617514	0	0.61	5.17	1	332.777397577	332.849642848	"15"	917.708512107	915.436417093	1.5	0.1
0.01	1	0.0838050339999654	1	120	NA	344.27617514	0	0.61	5.17	1	333.078000192	333.161805226	"15"	917.708512107	915.436417093	1.5	0.1
0.01	1	0.00204446800000824	1	120	NA	344.27617514	0	0.61	5.17	1	333.395262396	333.397306864	"15"	917.708512107	915.436417093	1.5	0.1
0.01	1	0.0534536459999799	1	120	NA	344.27617514	0	0.61	5.17	1	333.628943585	333.682397231	"15"	917.708512107	915.436417093	1.5	0.1
0.01	1	0.0045822299999827	1	120	NA	344.27617514	0	0.61	5.17	1	333.912720815	333.917303045	"15"	917.708512107	915.436417093	1.5	0.1
0.01	1	0.0466994990000558	1	120	NA	344.27617514	0	0.61	5.17	1	334.14643049	334.193129989	"15"	917.708512107	915.436417093	1.5	0.1
0.01	1	0.0906881470000371	1	120	NA	344.27617514	0	0.61	5.17	1	334.43021822	334.520906367	"15"	917.708512107	915.436417093	1.5	0.1
0.01	1	0.00382556299996395	1	120	NA	344.27617514	0	0.61	5.17	1	334.747436655	334.751262218	"15"	917.708512107	915.436417093	1.5	0.1
0.01	1	0.0360669460000054	1	120	NA	344.27617514	0	0.61	5.17	1	334.98120664	335.017273586	"15"	917.708512107	915.436417093	1.5	0.1
0.01	1	0.106241815999965	1	120	NA	344.27617514	0	0.61	5.17	1	335.24827259	335.354514406	"15"	917.708512107	915.436417093	1.5	0.1
0.01	1	0.00392223500000455	1	120	NA	344.27617514	0	0.61	5.17	1	335.582086865	335.5860091	"15"	917.708512107	915.436417093	1.5	0.1
0.01	1	0.089195995999944	1	120	NA	344.27617514	0	0.61	5.17	1	335.815945405	335.905141401	"15"	917.708512107	915.436417093	1.5	0.1
0.01	1	0.00381630300000779	1	120	NA	344.27617514	0	0.61	5.17	1	336.133124347	336.13694065	"15"	917.708512107	915.436417093	1.5	0.1
0.01	1	0.0748129919999201	1	120	NA	344.27617514	0	0.61	5.17	1	336.366848087	336.441661079	"15"	917.708512107	915.436417093	1.5	0.1
0.01	1	0.00395065299994712	1	120	NA	344.27617514	0	0.61	5.17	1	336.667368897	336.67131955	"15"	917.708512107	915.436417093	1.5	0.1
0.01	1	0.0841276229999721	1	120	NA	344.27617514	0	0.61	5.17	1	336.90106479	336.985192413	"15"	917.708512107	915.436417093	1.5	0.1
0.01	1	0.00385300699997515	1	120	NA	344.27617514	0	0.61	5.17	1	337.218293425	337.222146432	"15"	917.708512107	915.436417093	1.5	0.1
0.01	1	0.0610103550000076	1	120	NA	344.27617514	0	0.61	5.17	1	337.451934905	337.51294526	"15"	917.708512107	915.436417093	1.5	0.1
0.01	1	0.00203817199997047	1	120	NA	344.27617514	0	0.61	5.17	1	337.735839912	337.737878084	"15"	917.708512107	915.436417093	1.5	0.1
0.01	1	0.0720068670000273	1	120	NA	344.27617514	0	0.61	5.17	1	337.96951778	338.041524647	"15"	917.708512107	915.436417093	1.5	0.1
0.01	1	0.00441175299999941	1	120	NA	344.27617514	0	0.61	5.17	1	338.270055029	338.274466782	"15"	917.708512107	915.436417093	1.5	0.1
0.01	1	0.0727402660000962	1	120	NA	344.27617514	0	0.61	5.17	1	338.503794565	338.576534831	"15"	917.708512107	915.436417093	1.5	0.1
0.01	1	0.00459724500001357	1	120	NA	344.27617514	0	0.61	5.17	1	338.804405625	338.80900287	"15"	917.708512107	915.436417093	1.5	0.1
0.01	1	0.0593050950000134	1	120	NA	344.27617514	0	0.61	5.17	1	339.038059562	339.097364657	"15"	917.708512107	915.436417093	1.5	0.1
0.01	1	0.00458986000001005	1	120	NA	344.27617514	0	0.61	5.17	1	339.32174765	339.32633751	"15"	917.708512107	915.436417093	1.5	0.1
0.01	1	0.0696971200000007	1	120	NA	344.27617514	0	0.61	5.17	1	339.555518567	339.625215687	"15"	917.708512107	915.436417093	1.5	0.1
0.01	1	0.00383957300005022	1	120	NA	344.27617514	0	0.61	5.17	1	339.855942395	339.859781968	"15"	917.708512107	915.436417093	1.5	0.1
0.01	1	0.102701722999996	1	120	NA	344.27617514	0	0.61	5.17	1	340.089822565	340.192524288	"15"	917.708512107	915.436417093	1.5	0.1
0.01	1	0.00458077700000104	1	120	NA	344.27617514	0	0.61	5.17	1	340.423691045	340.428271822	"15"	917.708512107	915.436417093	1.5	0.1
0.01	1	0.080292184999962	1	120	NA	344.27617514	0	0.61	5.17	1	340.657466763	340.737758948	"15"	917.708512107	915.436417093	1.5	0.1
0.01	1	0.00382899500004896	1	120	NA	344.27617514	0	0.61	5.17	1	340.974541395	340.97837039	"15"	917.708512107	915.436417093	1.5	0.1
0.01	1	0.0736288609999747	1	120	NA	344.27617514	0	0.61	5.17	1	341.208285245	341.281914106	"15"	917.708512107	915.436417093	1.5	0.1
0.01	1	0.00374782300002607	1	120	NA	344.27617514	0	0.61	5.17	1	341.508771097	341.51251892	"15"	917.708512107	915.436417093	1.5	0.1
0.01	1	0.0749266750000288	1	120	NA	344.27617514	0	0.61	5.17	1	341.742490882	341.817417557	"15"	917.708512107	915.436417093	1.5	0.1
0.01	1	0.00452596699994956	1	120	NA	344.27617514	0	0.61	5.17	1	342.042982525	342.047508492	"15"	917.708512107	915.436417093	1.5	0.1
0.01	1	0.467986010000004	1	120	NA	344.27617514	0	0.61	5.17	1	342.276740607	342.744726617	"15"	917.708512107	915.436417093	1.5	0.1
0.01	1	0.00379027500002849	1	120	NA	344.27617514	0	0.61	5.17	1	342.978020995	342.98181127	"15"	917.708512107	915.436417093	1.5	0.1
0.01	1	0.046196870000017	1	120	NA	344.27617514	0	0.61	5.17	1	343.21169566	343.25789253	"15"	917.708512107	915.436417093	1.5	0.1
0.01	1	0.779074700000024	2	120	NA	344.27617514	0	0.61	5.17	1	343.495511135	344.274585835	"15"	917.708512107	915.436417093	1.5	0.1
0.01	1	0.00220962600008079	1	109	NA	377.779288545	0	1.08	6.25	1	346.300267348	346.302476974	"16"	917.708512107	915.436417093	1.5	0.1
0.01	1	0.108689652000066	1	109	NA	377.779288545	0	1.08	6.25	1	346.53395548	346.642645132	"16"	917.708512107	915.436417093	1.5	0.1
0.01	1	0.108934130999955	1	109	NA	377.779288545	0	1.08	6.25	1	346.867859307	346.976793438	"16"	917.708512107	915.436417093	1.5	0.1
0.01	1	0.111939161000009	1	109	NA	377.779288545	0	1.08	6.25	1	347.201732347	347.313671508	"16"	917.708512107	915.436417093	1.5	0.1
0.01	1	0.0888632889999599	1	109	NA	377.779288545	0	1.08	6.25	1	347.55233502	347.641198309	"16"	917.708512107	915.436417093	1.5	0.1
0.01	1	0.100302044000045	1	109	NA	377.779288545	0	1.08	6.25	1	347.869491635	347.969793679	"16"	917.708512107	915.436417093	1.5	0.1
0.01	1	0.11789842799999	1	109	NA	377.779288545	0	1.08	6.25	1	348.203375737	348.321274165	"16"	917.708512107	915.436417093	1.5	0.1
0.01	1	0.103826579000042	1	109	NA	377.779288545	0	1.08	6.25	1	348.553896875	348.657723454	"16"	917.708512107	915.436417093	1.5	0.1
0.01	1	0.12126668999997	1	109	NA	377.779288545	0	1.08	6.25	1	348.887879725	349.009146415	"16"	917.708512107	915.436417093	1.5	0.1
0.01	1	0.0826909439999781	1	109	NA	377.779288545	0	1.08	6.25	1	349.238451235	349.321142179	"16"	917.708512107	915.436417093	1.5	0.1
0.01	1	0.00200929799996175	1	109	NA	377.779288545	0	1.08	6.25	1	349.555660795	349.557670093	"16"	917.708512107	915.436417093	1.5	0.1
0.01	1	0.0757408309999619	1	109	NA	377.779288545	0	1.08	6.25	1	349.789328097	349.865068928	"16"	917.708512107	915.436417093	1.5	0.1
0.01	1	0.00386452099996859	1	109	NA	377.779288545	0	1.08	6.25	1	350.089788917	350.093653438	"16"	917.708512107	915.436417093	1.5	0.1
0.01	1	0.0705428400000301	1	109	NA	377.779288545	0	1.08	6.25	1	350.323634107	350.394176947	"16"	917.708512107	915.436417093	1.5	0.1
0.01	1	0.128454985000076	1	109	NA	377.779288545	0	1.08	6.25	1	350.624099684	350.752554669	"16"	917.708512107	915.436417093	1.5	0.1
