"payoff.level"	"balloon"	"rt"	"resp"	"explode.trial"	"explode.time"	"finish.time"	"exploded"	"trial.total"	"cumulative.total"	"finished"	"trial.start"	"trial.end"	"trial.num"	"secs"	"start.time"	"iti"	"isi"
0.01	1	1.04187760200057	1	64	50.368980065	NA	1	0	0	1	0.0129062879996127	1.05478389000018	"1"	7694.529889783	7689.593782628	1.5	0.1
0.01	1	0.538074796000728	1	64	50.368980065	NA	1	0	0	1	1.34838404799939	1.88645884400012	"1"	7694.529889783	7689.593782628	1.5	0.1
0.01	1	0.402229585999521	1	64	50.368980065	NA	1	0	0	1	2.11634226800015	2.51857185399967	"1"	7694.529889783	7689.593782628	1.5	0.1
0.01	1	0.39364353000019	1	64	50.368980065	NA	1	0	0	1	2.75065479299974	3.14429832299993	"1"	7694.529889783	7689.593782628	1.5	0.1
0.01	1	0.359137663000183	1	64	50.368980065	NA	1	0	0	1	3.36858799499987	3.72772565800005	"1"	7694.529889783	7689.593782628	1.5	0.1
0.01	1	0.350521085999389	1	64	50.368980065	NA	1	0	0	1	3.95283163000022	4.30335271599961	"1"	7694.529889783	7689.593782628	1.5	0.1
0.01	1	0.38982758200018	1	64	50.368980065	NA	1	0	0	1	4.53713097299988	4.92695855500006	"1"	7694.529889783	7689.593782628	1.5	0.1
0.01	1	0.332952211999327	1	64	50.368980065	NA	1	0	0	1	5.15489266300028	5.48784487499961	"1"	7694.529889783	7689.593782628	1.5	0.1
0.01	1	0.340391015000023	1	64	50.368980065	NA	1	0	0	1	5.72246444699977	6.06285546199979	"1"	7694.529889783	7689.593782628	1.5	0.1
0.01	1	0.333410554999318	1	64	50.368980065	NA	1	0	0	1	6.29005795000012	6.62346850499944	"1"	7694.529889783	7689.593782628	1.5	0.1
0.01	1	0.38134983800046	1	64	50.368980065	NA	1	0	0	1	6.8577305029994	7.23908034099986	"1"	7694.529889783	7689.593782628	1.5	0.1
0.01	1	0.316681987000266	1	64	50.368980065	NA	1	0	0	1	7.47544219999963	7.7921241869999	"1"	7694.529889783	7689.593782628	1.5	0.1
0.01	1	0.324440680999942	1	64	50.368980065	NA	1	0	0	1	8.02630468799998	8.35074536899992	"1"	7694.529889783	7689.593782628	1.5	0.1
0.01	1	0.381440242999815	1	64	50.368980065	NA	1	0	0	1	8.57715786300014	8.95859810599995	"1"	7694.529889783	7689.593782628	1.5	0.1
0.01	1	0.437181017000512	1	64	50.368980065	NA	1	0	0	1	9.19497454799966	9.63215556500018	"1"	7694.529889783	7689.593782628	1.5	0.1
0.01	1	0.352219051999782	1	64	50.368980065	NA	1	0	0	1	9.86282078299973	10.2150398349995	"1"	7694.529889783	7689.593782628	1.5	0.1
0.01	1	0.359316101999866	1	64	50.368980065	NA	1	0	0	1	10.4470495879996	10.8063656899994	"1"	7694.529889783	7689.593782628	1.5	0.1
0.01	1	0.352535829999397	1	64	50.368980065	NA	1	0	0	1	11.0313117750002	11.3838476049996	"1"	7694.529889783	7689.593782628	1.5	0.1
0.01	1	0.367383378000341	1	64	50.368980065	NA	1	0	0	1	11.6156647279995	11.9830481059998	"1"	7694.529889783	7689.593782628	1.5	0.1
0.01	1	0.383417830000326	1	64	50.368980065	NA	1	0	0	1	12.2167135629998	12.6001313930001	"1"	7694.529889783	7689.593782628	1.5	0.1
0.01	1	0.357597832000465	1	64	50.368980065	NA	1	0	0	1	12.8344363449996	13.1920341770001	"1"	7694.529889783	7689.593782628	1.5	0.1
0.01	1	0.452699839999696	1	64	50.368980065	NA	1	0	0	1	13.4187023730001	13.8714022129998	"1"	7694.529889783	7689.593782628	1.5	0.1
0.01	1	0.799398874999497	1	64	50.368980065	NA	1	0	0	1	14.1032534280002	14.9026523029997	"1"	7694.529889783	7689.593782628	1.5	0.1
0.01	1	0.653717035000227	1	64	50.368980065	NA	1	0	0	1	15.1382941929996	15.7920112279999	"1"	7694.529889783	7689.593782628	1.5	0.1
0.01	1	0.752629170000546	1	64	50.368980065	NA	1	0	0	1	16.0230683129994	16.7756974829999	"1"	7694.529889783	7689.593782628	1.5	0.1
0.01	1	0.687553223000577	1	64	50.368980065	NA	1	0	0	1	17.0081675029996	17.6957207260002	"1"	7694.529889783	7689.593782628	1.5	0.1
0.01	1	0.528195721999509	1	64	50.368980065	NA	1	0	0	1	17.9262889780002	18.4544846999997	"1"	7694.529889783	7689.593782628	1.5	0.1
0.01	1	0.474466716999814	1	64	50.368980065	NA	1	0	0	1	18.6775820579996	19.1520487749995	"1"	7694.529889783	7689.593782628	1.5	0.1
0.01	1	0.565429799000412	1	64	50.368980065	NA	1	0	0	1	19.3787128479999	19.9441426470003	"1"	7694.529889783	7689.593782628	1.5	0.1
0.01	1	0.507877602999542	1	64	50.368980065	NA	1	0	0	1	20.1800284999999	20.6879061029995	"1"	7694.529889783	7689.593782628	1.5	0.1
0.01	1	0.516084740999759	1	64	50.368980065	NA	1	0	0	1	20.9146705479998	21.4307552889995	"1"	7694.529889783	7689.593782628	1.5	0.1
0.01	1	0.550318589999733	1	64	50.368980065	NA	1	0	0	1	21.6659304280001	22.2162490179999	"1"	7694.529889783	7689.593782628	1.5	0.1
0.01	1	0.564924076000352	1	64	50.368980065	NA	1	0	0	1	22.4505414659998	23.0154655420001	"1"	7694.529889783	7689.593782628	1.5	0.1
0.01	1	0.579438933999882	1	64	50.368980065	NA	1	0	0	1	23.2519906930002	23.831429627	"1"	7694.529889783	7689.593782628	1.5	0.1
0.01	1	0.681606064000334	1	64	50.368980065	NA	1	0	0	1	24.0532024849999	24.7348085490003	"1"	7694.529889783	7689.593782628	1.5	0.1
0.01	1	0.588164196999969	1	64	50.368980065	NA	1	0	0	1	24.9714716829994	25.5596358799994	"1"	7694.529889783	7689.593782628	1.5	0.1
0.01	1	0.642756773000656	1	64	50.368980065	NA	1	0	0	1	25.7895816929995	26.4323384660001	"1"	7694.529889783	7689.593782628	1.5	0.1
0.01	1	0.653048009000486	1	64	50.368980065	NA	1	0	0	1	26.6576462799994	27.3106942889999	"1"	7694.529889783	7689.593782628	1.5	0.1
0.01	1	0.825128741999833	1	64	50.368980065	NA	1	0	0	1	27.5425971730001	28.3677259149999	"1"	7694.529889783	7689.593782628	1.5	0.1
0.01	1	0.461980572000357	1	64	50.368980065	NA	1	0	0	1	28.5942610249995	29.0562415969998	"1"	7694.529889783	7689.593782628	1.5	0.1
0.01	1	0.55300584700035	1	64	50.368980065	NA	1	0	0	1	29.2787863579997	29.8317922050001	"1"	7694.529889783	7689.593782628	1.5	0.1
0.01	1	0.543714716000068	1	64	50.368980065	NA	1	0	0	1	30.0634375539994	30.6071522699995	"1"	7694.529889783	7689.593782628	1.5	0.1
0.01	1	1.29658216600001	1	64	50.368980065	NA	1	0	0	1	30.8313537909999	32.1279359569999	"1"	7694.529889783	7689.593782628	1.5	0.1
0.01	1	0.537091332999807	1	64	50.368980065	NA	1	0	0	1	32.3673242739997	32.9044156069995	"1"	7694.529889783	7689.593782628	1.5	0.1
0.01	1	0.720066688999395	1	64	50.368980065	NA	1	0	0	1	33.1351872830001	33.8552539719994	"1"	7694.529889783	7689.593782628	1.5	0.1
0.01	1	0.601235279000321	1	64	50.368980065	NA	1	0	0	1	34.0868126699997	34.6880479490001	"1"	7694.529889783	7689.593782628	1.5	0.1
0.01	1	0.558068063999599	1	64	50.368980065	NA	1	0	0	1	34.9215947180001	35.4796627819997	"1"	7694.529889783	7689.593782628	1.5	0.1
0.01	1	0.909286565000002	1	64	50.368980065	NA	1	0	0	1	35.7062009379997	36.6154875029997	"1"	7694.529889783	7689.593782628	1.5	0.1
0.01	1	0.661298181999882	1	64	50.368980065	NA	1	0	0	1	36.8415179479998	37.5028161299997	"1"	7694.529889783	7689.593782628	1.5	0.1
0.01	1	0.608737286000178	1	64	50.368980065	NA	1	0	0	1	37.742972518	38.3517098040002	"1"	7694.529889783	7689.593782628	1.5	0.1
0.01	1	0.574623336999139	1	64	50.368980065	NA	1	0	0	1	38.5777481630003	39.1523714999994	"1"	7694.529889783	7689.593782628	1.5	0.1
0.01	1	0.588935626999955	1	64	50.368980065	NA	1	0	0	1	39.3791122479997	39.9680478749997	"1"	7694.529889783	7689.593782628	1.5	0.1
0.01	1	0.643186721999882	1	64	50.368980065	NA	1	0	0	1	40.1971906139997	40.8403773359996	"1"	7694.529889783	7689.593782628	1.5	0.1
0.01	1	0.557304887999635	1	64	50.368980065	NA	1	0	0	1	41.0652237929999	41.6225286809995	"1"	7694.529889783	7689.593782628	1.5	0.1
0.01	1	0.917665832999774	1	64	50.368980065	NA	1	0	0	1	41.8498705530001	42.7675363859998	"1"	7694.529889783	7689.593782628	1.5	0.1
0.01	1	0.693318595999699	1	64	50.368980065	NA	1	0	0	1	43.0019243480001	43.6952429439998	"1"	7694.529889783	7689.593782628	1.5	0.1
0.01	1	0.671954228000686	1	64	50.368980065	NA	1	0	0	1	43.9200376279996	44.5919918560003	"1"	7694.529889783	7689.593782628	1.5	0.1
0.01	1	0.576923622999857	1	64	50.368980065	NA	1	0	0	1	44.8216204549999	45.3985440779998	"1"	7694.529889783	7689.593782628	1.5	0.1
0.01	1	0.520267718000468	1	64	50.368980065	NA	1	0	0	1	45.6228300149996	46.1430977330001	"1"	7694.529889783	7689.593782628	1.5	0.1
0.01	1	0.689560177000203	1	64	50.368980065	NA	1	0	0	1	46.3741954179995	47.0637555949997	"1"	7694.529889783	7689.593782628	1.5	0.1
0.01	1	0.570910867999373	1	64	50.368980065	NA	1	0	0	1	47.2923965700002	47.8633074379995	"1"	7694.529889783	7689.593782628	1.5	0.1
0.01	1	0.546588989999691	1	64	50.368980065	NA	1	0	0	1	48.0937701430003	48.6403591329999	"1"	7694.529889783	7689.593782628	1.5	0.1
0.01	1	0.52953670900024	1	64	50.368980065	NA	1	0	0	1	48.8783988779996	49.4079355869999	"1"	7694.529889783	7689.593782628	1.5	0.1
0.01	1	0.608375478000198	1	64	50.368980065	NA	1	0	0	1	49.6463640279999	50.2547395060001	"1"	7694.529889783	7689.593782628	1.5	0.1
0.01	1	2.02990424600011	1	68	NA	96.3750180729994	0	0.45	0.45	1	52.4009979169996	54.4309021629997	"2"	7694.529889783	7689.593782628	1.5	0.1
0.01	1	0.319614496000213	1	68	NA	96.3750180729994	0	0.45	0.45	1	54.6547860479996	54.9744005439998	"2"	7694.529889783	7689.593782628	1.5	0.1
0.01	1	0.345706859000529	1	68	NA	96.3750180729994	0	0.45	0.45	1	55.2056873049996	55.5513941640002	"2"	7694.529889783	7689.593782628	1.5	0.1
0.01	1	0.362722051999299	1	68	NA	96.3750180729994	0	0.45	0.45	1	55.7733171580003	56.1360392099996	"2"	7694.529889783	7689.593782628	1.5	0.1
0.01	1	0.312898401999519	1	68	NA	96.3750180729994	0	0.45	0.45	1	56.3743437430003	56.6872421449998	"2"	7694.529889783	7689.593782628	1.5	0.1
0.01	1	0.346014480000122	1	68	NA	96.3750180729994	0	0.45	0.45	1	56.9252195379995	57.2712340179996	"2"	7694.529889783	7689.593782628	1.5	0.1
0.01	1	0.329295944000478	1	68	NA	96.3750180729994	0	0.45	0.45	1	57.5095372999995	57.8388332439999	"2"	7694.529889783	7689.593782628	1.5	0.1
0.01	1	0.369205236000198	1	68	NA	96.3750180729994	0	0.45	0.45	1	58.0772364329996	58.4464416689998	"2"	7694.529889783	7689.593782628	1.5	0.1
0.01	1	0.352586324000185	1	68	NA	96.3750180729994	0	0.45	0.45	1	58.6782405829999	59.0308269070001	"2"	7694.529889783	7689.593782628	1.5	0.1
0.01	1	0.329196800999853	1	68	NA	96.3750180729994	0	0.45	0.45	1	59.2625880429996	59.5917848439994	"2"	7694.529889783	7689.593782628	1.5	0.1
0.01	1	0.360675210000409	1	68	NA	96.3750180729994	0	0.45	0.45	1	59.8301746179995	60.190849828	"2"	7694.529889783	7689.593782628	1.5	0.1
0.01	1	0.344581768000353	1	68	NA	96.3750180729994	0	0.45	0.45	1	60.4145167299994	60.7590984979997	"2"	7694.529889783	7689.593782628	1.5	0.1
0.01	1	0.377389336000306	1	68	NA	96.3750180729994	0	0.45	0.45	1	60.9988817379999	61.3762710740002	"2"	7694.529889783	7689.593782628	1.5	0.1
0.01	1	0.59906296600002	1	68	NA	96.3750180729994	0	0.45	0.45	1	61.5998196109995	62.1988825769995	"2"	7694.529889783	7689.593782628	1.5	0.1
0.01	1	0.43734560699977	1	68	NA	96.3750180729994	0	0.45	0.45	1	62.4346123599998	62.8719579669996	"2"	7694.529889783	7689.593782628	1.5	0.1
0.01	1	0.465399697000066	1	68	NA	96.3750180729994	0	0.45	0.45	1	63.1022981179995	63.5676978149995	"2"	7694.529889783	7689.593782628	1.5	0.1
0.01	1	0.804943739000009	1	68	NA	96.3750180729994	0	0.45	0.45	1	63.8034338930001	64.6083776320002	"2"	7694.529889783	7689.593782628	1.5	0.1
0.01	1	0.56080672600001	1	68	NA	96.3750180729994	0	0.45	0.45	1	64.838636898	65.399443624	"2"	7694.529889783	7689.593782628	1.5	0.1
0.01	1	0.593056350999177	1	68	NA	96.3750180729994	0	0.45	0.45	1	65.6232345950002	66.2162909459994	"2"	7694.529889783	7689.593782628	1.5	0.1
0.01	1	0.460980269999709	1	68	NA	96.3750180729994	0	0.45	0.45	1	66.4414190130001	66.9023992829998	"2"	7694.529889783	7689.593782628	1.5	0.1
0.01	1	0.552762123999855	1	68	NA	96.3750180729994	0	0.45	0.45	1	67.1423717429998	67.6951338669996	"2"	7694.529889783	7689.593782628	1.5	0.1
0.01	1	0.560699313999976	1	68	NA	96.3750180729994	0	0.45	0.45	1	67.9271704579996	68.4878697719996	"2"	7694.529889783	7689.593782628	1.5	0.1
0.01	1	0.678692180000326	1	68	NA	96.3750180729994	0	0.45	0.45	1	68.7117331869995	69.3904253669998	"2"	7694.529889783	7689.593782628	1.5	0.1
0.01	1	0.5535529459994	1	68	NA	96.3750180729994	0	0.45	0.45	1	69.61322397	70.1667769159994	"2"	7694.529889783	7689.593782628	1.5	0.1
0.01	1	0.594238966000376	1	68	NA	96.3750180729994	0	0.45	0.45	1	70.3979026079996	70.992141574	"2"	7694.529889783	7689.593782628	1.5	0.1
0.01	1	0.663515146000464	1	68	NA	96.3750180729994	0	0.45	0.45	1	71.2159673569995	71.879482503	"2"	7694.529889783	7689.593782628	1.5	0.1
0.01	1	0.7540687289993	1	68	NA	96.3750180729994	0	0.45	0.45	1	72.1175173880001	72.8715861169994	"2"	7694.529889783	7689.593782628	1.5	0.1
0.01	1	0.504463569000109	1	68	NA	96.3750180729994	0	0.45	0.45	1	73.1025231379999	73.606986707	"2"	7694.529889783	7689.593782628	1.5	0.1
0.01	1	0.698084229999949	1	68	NA	96.3750180729994	0	0.45	0.45	1	73.8371436899997	74.5352279199997	"2"	7694.529889783	7689.593782628	1.5	0.1
0.01	1	0.651884148000136	1	68	NA	96.3750180729994	0	0.45	0.45	1	74.7719082949998	75.4237924429999	"2"	7694.529889783	7689.593782628	1.5	0.1
0.01	1	0.974541783999484	1	68	NA	96.3750180729994	0	0.45	0.45	1	75.6567774929999	76.6313192769994	"2"	7694.529889783	7689.593782628	1.5	0.1
0.01	1	3.18048469899986	1	68	NA	96.3750180729994	0	0.45	0.45	1	76.858768223	80.0392529219998	"2"	7694.529889783	7689.593782628	1.5	0.1
0.01	1	2.04670696499943	1	68	NA	96.3750180729994	0	0.45	0.45	1	80.2645123040002	82.3112192689996	"2"	7694.529889783	7689.593782628	1.5	0.1
0.01	1	0.600645314999383	1	68	NA	96.3750180729994	0	0.45	0.45	1	82.5349322550001	83.1355775699994	"2"	7694.529889783	7689.593782628	1.5	0.1
0.01	1	0.604922550000083	1	68	NA	96.3750180729994	0	0.45	0.45	1	83.3697405329995	83.9746630829995	"2"	7694.529889783	7689.593782628	1.5	0.1
0.01	1	0.594888026999797	1	68	NA	96.3750180729994	0	0.45	0.45	1	84.2044690729999	84.7993570999997	"2"	7694.529889783	7689.593782628	1.5	0.1
0.01	1	1.08133006999924	1	68	NA	96.3750180729994	0	0.45	0.45	1	85.0225395830003	86.1038696529995	"2"	7694.529889783	7689.593782628	1.5	0.1
0.01	1	3.36938486199961	1	68	NA	96.3750180729994	0	0.45	0.45	1	86.3414485479998	89.7108334099994	"2"	7694.529889783	7689.593782628	1.5	0.1
0.01	1	0.523241863000294	1	68	NA	96.3750180729994	0	0.45	0.45	1	89.9475410599998	90.4707829230001	"2"	7694.529889783	7689.593782628	1.5	0.1
0.01	1	0.634446107000258	1	68	NA	96.3750180729994	0	0.45	0.45	1	90.6986483029996	91.3330944099998	"2"	7694.529889783	7689.593782628	1.5	0.1
0.01	1	1.07817204000003	1	68	NA	96.3750180729994	0	0.45	0.45	1	91.5668668429998	92.6450388829999	"2"	7694.529889783	7689.593782628	1.5	0.1
0.01	1	0.441839222999988	1	68	NA	96.3750180729994	0	0.45	0.45	1	92.8691578999997	93.3109971229997	"2"	7694.529889783	7689.593782628	1.5	0.1
0.01	1	0.572807287000614	1	68	NA	96.3750180729994	0	0.45	0.45	1	93.5369166399996	94.1097239270002	"2"	7694.529889783	7689.593782628	1.5	0.1
0.01	1	0.67612777100021	1	68	NA	96.3750180729994	0	0.45	0.45	1	94.338257247	95.0143850180002	"2"	7694.529889783	7689.593782628	1.5	0.1
0.01	1	0.470260804000645	1	68	NA	96.3750180729994	0	0.45	0.45	1	95.2397592649995	95.7100200690002	"2"	7694.529889783	7689.593782628	1.5	0.1
0.01	1	0.43258895300005	2	68	NA	96.3750180729994	0	0.45	0.45	1	95.9408526429997	96.3734415959998	"2"	7694.529889783	7689.593782628	1.5	0.1
0.01	1	14.7244446079994	1	33	139.934696103	NA	1	0	0.45	1	98.411651718	113.136096325999	"3"	7694.529889783	7689.593782628	1.5	0.1
0.01	1	0.79906661699988	1	33	139.934696103	NA	1	0	0.45	1	113.370310278	114.169376895	"3"	7694.529889783	7689.593782628	1.5	0.1
0.01	1	0.507633801999873	1	33	139.934696103	NA	1	0	0.45	1	114.405329178	114.91296298	"3"	7694.529889783	7689.593782628	1.5	0.1
0.01	1	0.508891458999642	1	33	139.934696103	NA	1	0	0.45	1	115.139924158	115.648815617	"3"	7694.529889783	7689.593782628	1.5	0.1
0.01	1	0.605580424000436	1	33	139.934696103	NA	1	0	0.45	1	115.874409458	116.479989882	"3"	7694.529889783	7689.593782628	1.5	0.1
0.01	1	0.51500427100018	1	33	139.934696103	NA	1	0	0.45	1	116.709169485	117.224173756	"3"	7694.529889783	7689.593782628	1.5	0.1
0.01	1	0.476302942000075	1	33	139.934696103	NA	1	0	0.45	1	117.460421918	117.93672486	"3"	7694.529889783	7689.593782628	1.5	0.1
0.01	1	0.52769898600036	1	33	139.934696103	NA	1	0	0.45	1	118.161599317	118.689298303	"3"	7694.529889783	7689.593782628	1.5	0.1
0.01	1	0.583592848999615	1	33	139.934696103	NA	1	0	0.45	1	118.913000407	119.496593256	"3"	7694.529889783	7689.593782628	1.5	0.1
0.01	1	0.524880843000574	1	33	139.934696103	NA	1	0	0.45	1	119.730992485	120.255873328	"3"	7694.529889783	7689.593782628	1.5	0.1
0.01	1	1.07827704800002	1	33	139.934696103	NA	1	0	0.45	1	120.482271065	121.560548113	"3"	7694.529889783	7689.593782628	1.5	0.1
0.01	1	0.440082879999864	1	33	139.934696103	NA	1	0	0.45	1	121.784433306	122.224516186	"3"	7694.529889783	7689.593782628	1.5	0.1
0.01	1	0.619468820999828	1	33	139.934696103	NA	1	0	0.45	1	122.452243568	123.071712389	"3"	7694.529889783	7689.593782628	1.5	0.1
0.01	1	0.472124636999979	1	33	139.934696103	NA	1	0	0.45	1	123.303643863	123.7757685	"3"	7694.529889783	7689.593782628	1.5	0.1
0.01	1	0.507276096999703	1	33	139.934696103	NA	1	0	0.45	1	124.004778255	124.512054352	"3"	7694.529889783	7689.593782628	1.5	0.1
0.01	1	0.460399841000253	1	33	139.934696103	NA	1	0	0.45	1	124.739421828	125.199821669	"3"	7694.529889783	7689.593782628	1.5	0.1
0.01	1	0.495636379000644	1	33	139.934696103	NA	1	0	0.45	1	125.423928454999	125.919564834	"3"	7694.529889783	7689.593782628	1.5	0.1
0.01	1	0.554768276999312	1	33	139.934696103	NA	1	0	0.45	1	126.158508323	126.7132766	"3"	7694.529889783	7689.593782628	1.5	0.1
0.01	1	0.43279427699963	1	33	139.934696103	NA	1	0	0.45	1	126.943096453	127.37589073	"3"	7694.529889783	7689.593782628	1.5	0.1
0.01	1	0.572578842000439	1	33	139.934696103	NA	1	0	0.45	1	127.610901085	128.183479927	"3"	7694.529889783	7689.593782628	1.5	0.1
0.01	1	2.7005266189999	1	33	139.934696103	NA	1	0	0.45	1	128.412143693	131.112670312	"3"	7694.529889783	7689.593782628	1.5	0.1
0.01	1	0.465338283999699	1	33	139.934696103	NA	1	0	0.45	1	131.350501568	131.815839852	"3"	7694.529889783	7689.593782628	1.5	0.1
0.01	1	0.413410121000197	1	33	139.934696103	NA	1	0	0.45	1	132.051625566	132.465035687	"3"	7694.529889783	7689.593782628	1.5	0.1
0.01	1	0.378100253999946	1	33	139.934696103	NA	1	0	0.45	1	132.7027202	133.080820454	"3"	7694.529889783	7689.593782628	1.5	0.1
0.01	1	0.424969069999861	1	33	139.934696103	NA	1	0	0.45	1	133.303666613	133.728635683	"3"	7694.529889783	7689.593782628	1.5	0.1
0.01	1	0.476668378000795	1	33	139.934696103	NA	1	0	0.45	1	133.954840087999	134.431508466	"3"	7694.529889783	7689.593782628	1.5	0.1
0.01	1	0.471452171000237	1	33	139.934696103	NA	1	0	0.45	1	134.656136973	135.127589144	"3"	7694.529889783	7689.593782628	1.5	0.1
0.01	1	0.443321382999784	1	33	139.934696103	NA	1	0	0.45	1	135.357190193	135.800511576	"3"	7694.529889783	7689.593782628	1.5	0.1
0.01	1	0.454437882000093	1	33	139.934696103	NA	1	0	0.45	1	136.024970845	136.479408727	"3"	7694.529889783	7689.593782628	1.5	0.1
0.01	1	0.915059242000098	1	33	139.934696103	NA	1	0	0.45	1	136.709579163	137.624638405	"3"	7694.529889783	7689.593782628	1.5	0.1
0.01	1	0.490179174999867	1	33	139.934696103	NA	1	0	0.45	1	137.861478383	138.351657558	"3"	7694.529889783	7689.593782628	1.5	0.1
0.01	1	0.468603954000173	1	33	139.934696103	NA	1	0	0.45	1	138.57933159	139.047935544	"3"	7694.529889783	7689.593782628	1.5	0.1
0.01	1	0.544520538999677	1	33	139.934696103	NA	1	0	0.45	1	139.280534828	139.825055367	"3"	7694.529889783	7689.593782628	1.5	0.1
0.01	1	20.5393059799999	1	105	NA	193.417553321	0	0.35	0.8	1	141.968285113	162.507591093	"4"	7694.529889783	7689.593782628	1.5	0.1
0.01	1	0.689550031000181	1	105	NA	193.417553321	0	0.35	0.8	1	162.736692893	163.426242924	"4"	7694.529889783	7689.593782628	1.5	0.1
0.01	1	0.453035711000666	1	105	NA	193.417553321	0	0.35	0.8	1	163.654884314999	164.107920026	"4"	7694.529889783	7689.593782628	1.5	0.1
0.01	1	0.48703386499983	1	105	NA	193.417553321	0	0.35	0.8	1	164.339429453	164.826463318	"4"	7694.529889783	7689.593782628	1.5	0.1
0.01	1	0.537599532999593	1	105	NA	193.417553321	0	0.35	0.8	1	165.057242088	165.594841620999	"4"	7694.529889783	7689.593782628	1.5	0.1
0.01	1	0.41808982800012	1	105	NA	193.417553321	0	0.35	0.8	1	165.825213438	166.243303266	"4"	7694.529889783	7689.593782628	1.5	0.1
0.01	1	0.479671033999693	1	105	NA	193.417553321	0	0.35	0.8	1	166.476320068	166.955991102	"4"	7694.529889783	7689.593782628	1.5	0.1
0.01	1	0.440172300000086	1	105	NA	193.417553321	0	0.35	0.8	1	167.194053853	167.634226153	"4"	7694.529889783	7689.593782628	1.5	0.1
0.01	1	0.485580260999996	1	105	NA	193.417553321	0	0.35	0.8	1	167.861893675	168.347473936	"4"	7694.529889783	7689.593782628	1.5	0.1
0.01	1	0.526498528000047	1	105	NA	193.417553321	0	0.35	0.8	1	168.579811258	169.106309786	"4"	7694.529889783	7689.593782628	1.5	0.1
0.01	1	0.575155581000217	1	105	NA	193.417553321	0	0.35	0.8	1	169.331104808	169.906260389	"4"	7694.529889783	7689.593782628	1.5	0.1
0.01	1	0.558313903000453	1	105	NA	193.417553321	0	0.35	0.8	1	170.1324172	170.690731103	"4"	7694.529889783	7689.593782628	1.5	0.1
0.01	1	0.734805557000072	1	105	NA	193.417553321	0	0.35	0.8	1	170.917010593	171.65181615	"4"	7694.529889783	7689.593782628	1.5	0.1
0.01	1	0.82904880299975	1	105	NA	193.417553321	0	0.35	0.8	1	171.885337185	172.714385988	"4"	7694.529889783	7689.593782628	1.5	0.1
0.01	1	0.44992204800019	1	105	NA	193.417553321	0	0.35	0.8	1	172.937152433	173.387074481	"4"	7694.529889783	7689.593782628	1.5	0.1
0.01	1	0.493348189000244	1	105	NA	193.417553321	0	0.35	0.8	1	173.62161544	174.114963629	"4"	7694.529889783	7689.593782628	1.5	0.1
0.01	1	0.510614726999847	1	105	NA	193.417553321	0	0.35	0.8	1	174.339558168	174.850172895	"4"	7694.529889783	7689.593782628	1.5	0.1
0.01	1	0.536442372999772	1	105	NA	193.417553321	0	0.35	0.8	1	175.074094888	175.610537261	"4"	7694.529889783	7689.593782628	1.5	0.1
0.01	1	0.552115552999567	1	105	NA	193.417553321	0	0.35	0.8	1	175.841998353	176.394113906	"4"	7694.529889783	7689.593782628	1.5	0.1
0.01	1	0.687691463999727	1	105	NA	193.417553321	0	0.35	0.8	1	176.626688998	177.314380461999	"4"	7694.529889783	7689.593782628	1.5	0.1
0.01	1	0.530806732000201	1	105	NA	193.417553321	0	0.35	0.8	1	177.544921993	178.075728725	"4"	7694.529889783	7689.593782628	1.5	0.1
0.01	1	0.562798488999761	1	105	NA	193.417553321	0	0.35	0.8	1	178.312828563	178.875627052	"4"	7694.529889783	7689.593782628	1.5	0.1
0.01	1	3.99764442000014	1	105	NA	193.417553321	0	0.35	0.8	1	179.1141989	183.11184332	"4"	7694.529889783	7689.593782628	1.5	0.1
0.01	1	0.519157183000061	1	105	NA	193.417553321	0	0.35	0.8	1	183.337935385	183.857092568	"4"	7694.529889783	7689.593782628	1.5	0.1
0.01	1	0.49575576999996	1	105	NA	193.417553321	0	0.35	0.8	1	184.08916948	184.58492525	"4"	7694.529889783	7689.593782628	1.5	0.1
0.01	1	0.49777270300001	1	105	NA	193.417553321	0	0.35	0.8	1	184.807186818	185.304959521	"4"	7694.529889783	7689.593782628	1.5	0.1
0.01	1	0.627824684999723	1	105	NA	193.417553321	0	0.35	0.8	1	185.541578948	186.169403633	"4"	7694.529889783	7689.593782628	1.5	0.1
0.01	1	0.598575127000004	1	105	NA	193.417553321	0	0.35	0.8	1	186.393111068	186.991686195	"4"	7694.529889783	7689.593782628	1.5	0.1
0.01	1	0.532078371000352	1	105	NA	193.417553321	0	0.35	0.8	1	187.227837105	187.759915476	"4"	7694.529889783	7689.593782628	1.5	0.1
0.01	1	0.644330346000061	1	105	NA	193.417553321	0	0.35	0.8	1	187.995719778	188.640050124	"4"	7694.529889783	7689.593782628	1.5	0.1
0.01	1	1.00121154200042	1	105	NA	193.417553321	0	0.35	0.8	1	188.864014858	189.8652264	"4"	7694.529889783	7689.593782628	1.5	0.1
0.01	1	0.493023528999402	1	105	NA	193.417553321	0	0.35	0.8	1	190.099265263	190.592288792	"4"	7694.529889783	7689.593782628	1.5	0.1
0.01	1	0.46234695000021	1	105	NA	193.417553321	0	0.35	0.8	1	190.817299545	191.279646495	"4"	7694.529889783	7689.593782628	1.5	0.1
0.01	1	0.466858112000409	1	105	NA	193.417553321	0	0.35	0.8	1	191.501700768	191.96855888	"4"	7694.529889783	7689.593782628	1.5	0.1
0.01	1	0.453237357000035	1	105	NA	193.417553321	0	0.35	0.8	1	192.202922134999	192.656159491999	"4"	7694.529889783	7689.593782628	1.5	0.1
0.01	1	0.528608160000658	2	105	NA	193.417553321	0	0.35	0.8	1	192.887414798	193.416022958	"4"	7694.529889783	7689.593782628	1.5	0.1
0.01	1	7.54506700800084	1	73	NA	235.468738232	0	0.4	1.2	1	195.475114557999	203.020181566	"5"	7694.529889783	7689.593782628	1.5	0.1
0.01	1	0.563591516000088	1	73	NA	235.468738232	0	0.4	1.2	1	203.254822755	203.818414271	"5"	7694.529889783	7689.593782628	1.5	0.1
0.01	1	0.546580324000388	1	73	NA	235.468738232	0	0.4	1.2	1	204.056167428	204.602747752	"5"	7694.529889783	7689.593782628	1.5	0.1
0.01	1	0.554839053000251	1	73	NA	235.468738232	0	0.4	1.2	1	204.8408144	205.395653453	"5"	7694.529889783	7689.593782628	1.5	0.1
0.01	1	0.626768686000105	1	73	NA	235.468738232	0	0.4	1.2	1	205.625456143	206.252224829	"5"	7694.529889783	7689.593782628	1.5	0.1
0.01	1	0.701846107000165	1	73	NA	235.468738232	0	0.4	1.2	1	206.476873713	207.17871982	"5"	7694.529889783	7689.593782628	1.5	0.1
0.01	1	0.536232279000615	1	73	NA	235.468738232	0	0.4	1.2	1	207.411772068	207.948004347	"5"	7694.529889783	7689.593782628	1.5	0.1
0.01	1	0.511846145000163	1	73	NA	235.468738232	0	0.4	1.2	1	208.179700758	208.691546903	"5"	7694.529889783	7689.593782628	1.5	0.1
0.01	1	0.537422314000651	1	73	NA	235.468738232	0	0.4	1.2	1	208.914284869999	209.451707184	"5"	7694.529889783	7689.593782628	1.5	0.1
0.01	1	0.440879767000297	1	73	NA	235.468738232	0	0.4	1.2	1	209.682179928	210.123059695	"5"	7694.529889783	7689.593782628	1.5	0.1
0.01	1	0.541184380000232	1	73	NA	235.468738232	0	0.4	1.2	1	210.350057658	210.891242038	"5"	7694.529889783	7689.593782628	1.5	0.1
0.01	1	0.532393177999438	1	73	NA	235.468738232	0	0.4	1.2	1	211.118073908	211.650467085999	"5"	7694.529889783	7689.593782628	1.5	0.1
0.01	1	0.469120517000192	1	73	NA	235.468738232	0	0.4	1.2	1	211.8860642	212.355184717	"5"	7694.529889783	7689.593782628	1.5	0.1
0.01	1	0.535487030000695	1	73	NA	235.468738232	0	0.4	1.2	1	212.587105402999	213.122592433	"5"	7694.529889783	7689.593782628	1.5	0.1
0.01	1	0.416542616999322	1	73	NA	235.468738232	0	0.4	1.2	1	213.355190178	213.771732794999	"5"	7694.529889783	7689.593782628	1.5	0.1
0.01	1	0.452106141000513	1	73	NA	235.468738232	0	0.4	1.2	1	214.006251868	214.458358009	"5"	7694.529889783	7689.593782628	1.5	0.1
0.01	1	0.448857952999788	1	73	NA	235.468738232	0	0.4	1.2	1	214.690708565	215.139566518	"5"	7694.529889783	7689.593782628	1.5	0.1
0.01	1	0.444558327999403	1	73	NA	235.468738232	0	0.4	1.2	1	215.375315878	215.819874205999	"5"	7694.529889783	7689.593782628	1.5	0.1
0.01	1	0.432991333000246	1	73	NA	235.468738232	0	0.4	1.2	1	216.043020225	216.476011558	"5"	7694.529889783	7689.593782628	1.5	0.1
0.01	1	0.499900981999417	1	73	NA	235.468738232	0	0.4	1.2	1	216.710788483	217.210689465	"5"	7694.529889783	7689.593782628	1.5	0.1
0.01	1	0.36709007599984	1	73	NA	235.468738232	0	0.4	1.2	1	217.445383403	217.812473479	"5"	7694.529889783	7689.593782628	1.5	0.1
0.01	1	0.596770830999958	1	73	NA	235.468738232	0	0.4	1.2	1	218.046341155	218.643111986	"5"	7694.529889783	7689.593782628	1.5	0.1
0.01	1	0.563287741999375	1	73	NA	235.468738232	0	0.4	1.2	1	218.881066848	219.444354589999	"5"	7694.529889783	7689.593782628	1.5	0.1
0.01	1	0.50449381100043	1	73	NA	235.468738232	0	0.4	1.2	1	219.682557673	220.187051484	"5"	7694.529889783	7689.593782628	1.5	0.1
0.01	1	0.505999057999361	1	73	NA	235.468738232	0	0.4	1.2	1	220.416976675	220.922975732999	"5"	7694.529889783	7689.593782628	1.5	0.1
0.01	1	2.66037946200049	1	73	NA	235.468738232	0	0.4	1.2	1	221.151587803	223.811967265	"5"	7694.529889783	7689.593782628	1.5	0.1
0.01	1	0.435156946999996	1	73	NA	235.468738232	0	0.4	1.2	1	224.039848608	224.475005555	"5"	7694.529889783	7689.593782628	1.5	0.1
0.01	1	0.415443120000418	1	73	NA	235.468738232	0	0.4	1.2	1	224.707490843	225.122933963	"5"	7694.529889783	7689.593782628	1.5	0.1
0.01	1	0.476283087999946	1	73	NA	235.468738232	0	0.4	1.2	1	225.358709147999	225.834992235999	"5"	7694.529889783	7689.593782628	1.5	0.1
0.01	1	0.582697570999699	1	73	NA	235.468738232	0	0.4	1.2	1	226.059889315	226.642586886	"5"	7694.529889783	7689.593782628	1.5	0.1
0.01	1	0.572852147999583	1	73	NA	235.468738232	0	0.4	1.2	1	226.877890918	227.450743066	"5"	7694.529889783	7689.593782628	1.5	0.1
0.01	1	0.508924763000323	1	73	NA	235.468738232	0	0.4	1.2	1	227.679221552999	228.188146316	"5"	7694.529889783	7689.593782628	1.5	0.1
0.01	1	0.485803301000487	1	73	NA	235.468738232	0	0.4	1.2	1	228.413821048	228.899624349	"5"	7694.529889783	7689.593782628	1.5	0.1
0.01	1	0.422993967999901	1	73	NA	235.468738232	0	0.4	1.2	1	229.131588085	229.554582053	"5"	7694.529889783	7689.593782628	1.5	0.1
0.01	1	0.4358884330004	1	73	NA	235.468738232	0	0.4	1.2	1	229.782754893999	230.218643327	"5"	7694.529889783	7689.593782628	1.5	0.1
0.01	1	0.376490828999522	1	73	NA	235.468738232	0	0.4	1.2	1	230.450483505	230.826974334	"5"	7694.529889783	7689.593782628	1.5	0.1
0.01	1	0.439284278000741	1	73	NA	235.468738232	0	0.4	1.2	1	231.051596507999	231.490880786	"5"	7694.529889783	7689.593782628	1.5	0.1
0.01	1	0.484486225000182	1	73	NA	235.468738232	0	0.4	1.2	1	231.719369208	232.203855433	"5"	7694.529889783	7689.593782628	1.5	0.1
0.01	1	0.455190540999865	1	73	NA	235.468738232	0	0.4	1.2	1	232.437156618	232.892347159	"5"	7694.529889783	7689.593782628	1.5	0.1
0.01	1	0.897875302999637	1	73	NA	235.468738232	0	0.4	1.2	1	233.121745818	234.019621121	"5"	7694.529889783	7689.593782628	1.5	0.1
0.01	1	1.21019057699959	2	73	NA	235.468738232	0	0.4	1.2	1	234.257016923	235.4672075	"5"	7694.529889783	7689.593782628	1.5	0.1
0.01	1	40.5896914619998	1	45	316.966608158	NA	1	0	1.2	1	237.512401838	278.1020933	"6"	7694.529889783	7689.593782628	1.5	0.1
0.01	1	0.418515984999431	1	45	316.966608158	NA	1	0	1.2	1	278.331068358	278.749584343	"6"	7694.529889783	7689.593782628	1.5	0.1
0.01	1	0.598958825000409	1	45	316.966608158	NA	1	0	1.2	1	278.982181724999	279.58114055	"6"	7694.529889783	7689.593782628	1.5	0.1
0.01	1	0.469527801999902	1	45	316.966608158	NA	1	0	1.2	1	279.816854545	280.286382347	"6"	7694.529889783	7689.593782628	1.5	0.1
0.01	1	0.439254540000547	1	45	316.966608158	NA	1	0	1.2	1	280.518137264999	280.957391805	"6"	7694.529889783	7689.593782628	1.5	0.1
0.01	1	0.387063249999301	1	45	316.966608158	NA	1	0	1.2	1	281.185876765	281.572940014999	"6"	7694.529889783	7689.593782628	1.5	0.1
0.01	1	0.481819230000838	1	45	316.966608158	NA	1	0	1.2	1	281.803594227999	282.285413458	"6"	7694.529889783	7689.593782628	1.5	0.1
0.01	1	0.381397430999641	1	45	316.966608158	NA	1	0	1.2	1	282.521444565	282.902841996	"6"	7694.529889783	7689.593782628	1.5	0.1
0.01	1	0.442464050999661	1	45	316.966608158	NA	1	0	1.2	1	283.139221843	283.581685894	"6"	7694.529889783	7689.593782628	1.5	0.1
0.01	1	0.479438442000173	1	45	316.966608158	NA	1	0	1.2	1	283.806880057999	284.2863185	"6"	7694.529889783	7689.593782628	1.5	0.1
0.01	1	0.378300244999991	1	45	316.966608158	NA	1	0	1.2	1	284.508148093	284.886448338	"6"	7694.529889783	7689.593782628	1.5	0.1
0.01	1	0.47196171899941	1	45	316.966608158	NA	1	0	1.2	1	285.125867828	285.597829546999	"6"	7694.529889783	7689.593782628	1.5	0.1
0.01	1	0.442548416999671	1	45	316.966608158	NA	1	0	1.2	1	285.826938098	286.269486515	"6"	7694.529889783	7689.593782628	1.5	0.1
0.01	1	0.383487207999679	1	45	316.966608158	NA	1	0	1.2	1	286.494869856	286.878357064	"6"	7694.529889783	7689.593782628	1.5	0.1
0.01	1	0.436610992999704	1	45	316.966608158	NA	1	0	1.2	1	287.11253338	287.549144373	"6"	7694.529889783	7689.593782628	1.5	0.1
0.01	1	0.410067503000391	1	45	316.966608158	NA	1	0	1.2	1	287.78038116	288.190448663	"6"	7694.529889783	7689.593782628	1.5	0.1
0.01	1	0.494905465999182	1	45	316.966608158	NA	1	0	1.2	1	288.4146957	288.909601165999	"6"	7694.529889783	7689.593782628	1.5	0.1
0.01	1	0.471904151000672	1	45	316.966608158	NA	1	0	1.2	1	289.149272494999	289.621176646	"6"	7694.529889783	7689.593782628	1.5	0.1
0.01	1	0.452349950999633	1	45	316.966608158	NA	1	0	1.2	1	289.850500378	290.302850329	"6"	7694.529889783	7689.593782628	1.5	0.1
0.01	1	0.430361093999636	1	45	316.966608158	NA	1	0	1.2	1	290.534998643	290.965359737	"6"	7694.529889783	7689.593782628	1.5	0.1
0.01	1	0.442959150999741	1	45	316.966608158	NA	1	0	1.2	1	291.202818905	291.645778055999	"6"	7694.529889783	7689.593782628	1.5	0.1
0.01	1	0.455096824000066	1	45	316.966608158	NA	1	0	1.2	1	291.870570503	292.325667327	"6"	7694.529889783	7689.593782628	1.5	0.1
0.01	1	0.515468445999431	1	45	316.966608158	NA	1	0	1.2	1	292.555058338	293.070526783999	"6"	7694.529889783	7689.593782628	1.5	0.1
0.01	1	0.69973951800057	1	45	316.966608158	NA	1	0	1.2	1	293.30628457	294.006024088	"6"	7694.529889783	7689.593782628	1.5	0.1
0.01	1	0.420464324999557	1	45	316.966608158	NA	1	0	1.2	1	294.241306228	294.661770553	"6"	7694.529889783	7689.593782628	1.5	0.1
0.01	1	0.472931647000223	1	45	316.966608158	NA	1	0	1.2	1	294.892201053	295.3651327	"6"	7694.529889783	7689.593782628	1.5	0.1
0.01	1	0.420166745000643	1	45	316.966608158	NA	1	0	1.2	1	295.593417827999	296.013584573	"6"	7694.529889783	7689.593782628	1.5	0.1
0.01	1	0.393577998999717	1	45	316.966608158	NA	1	0	1.2	1	296.244589274	296.638167272999	"6"	7694.529889783	7689.593782628	1.5	0.1
0.01	1	0.992650244999822	1	45	316.966608158	NA	1	0	1.2	1	296.862253163	297.854903408	"6"	7694.529889783	7689.593782628	1.5	0.1
0.01	1	3.4360182270002	1	45	316.966608158	NA	1	0	1.2	1	298.081030058	301.517048285	"6"	7694.529889783	7689.593782628	1.5	0.1
0.01	1	0.547713224999825	1	45	316.966608158	NA	1	0	1.2	1	301.753896233	302.301609458	"6"	7694.529889783	7689.593782628	1.5	0.1
0.01	1	0.506876966999698	1	45	316.966608158	NA	1	0	1.2	1	302.538515428	303.045392395	"6"	7694.529889783	7689.593782628	1.5	0.1
0.01	1	0.55615312000009	1	45	316.966608158	NA	1	0	1.2	1	303.273032773	303.829185893	"6"	7694.529889783	7689.593782628	1.5	0.1
0.01	1	0.563681446999908	1	45	316.966608158	NA	1	0	1.2	1	304.05772316	304.621404607	"6"	7694.529889783	7689.593782628	1.5	0.1
0.01	1	0.553773116000229	1	45	316.966608158	NA	1	0	1.2	1	304.859031548	305.412804664	"6"	7694.529889783	7689.593782628	1.5	0.1
0.01	1	0.585766877999959	1	45	316.966608158	NA	1	0	1.2	1	305.643689779999	306.229456657999	"6"	7694.529889783	7689.593782628	1.5	0.1
0.01	1	0.639646065999841	1	45	316.966608158	NA	1	0	1.2	1	306.461718398	307.101364464	"6"	7694.529889783	7689.593782628	1.5	0.1
0.01	1	0.515249441999913	1	45	316.966608158	NA	1	0	1.2	1	307.329916273	307.845165715	"6"	7694.529889783	7689.593782628	1.5	0.1
0.01	1	1.06714437500068	1	45	316.966608158	NA	1	0	1.2	1	308.081204104999	309.14834848	"6"	7694.529889783	7689.593782628	1.5	0.1
0.01	1	0.470968705000814	1	45	316.966608158	NA	1	0	1.2	1	309.383268449999	309.854237155	"6"	7694.529889783	7689.593782628	1.5	0.1
0.01	1	0.56943580799998	1	45	316.966608158	NA	1	0	1.2	1	310.084486193	310.653922001	"6"	7694.529889783	7689.593782628	1.5	0.1
0.01	1	0.528059156000381	1	45	316.966608158	NA	1	0	1.2	1	310.886017287999	311.414076444	"6"	7694.529889783	7689.593782628	1.5	0.1
0.01	1	3.07255457600058	1	45	316.966608158	NA	1	0	1.2	1	311.63711052	314.709665096	"6"	7694.529889783	7689.593782628	1.5	0.1
0.01	1	1.23836875899997	1	45	316.966608158	NA	1	0	1.2	1	314.942701868	316.181070627	"6"	7694.529889783	7689.593782628	1.5	0.1
0.01	1	0.432931041000302	1	45	316.966608158	NA	1	0	1.2	1	316.411774663	316.844705704	"6"	7694.529889783	7689.593782628	1.5	0.1
0.01	1	8.68999192699994	1	10	333.611385138	NA	1	0	1.2	1	319.016160563	327.70615249	"7"	7694.529889783	7689.593782628	1.5	0.1
0.01	1	0.28698614699988	1	10	333.611385138	NA	1	0	1.2	1	327.931188388	328.218174535	"7"	7694.529889783	7689.593782628	1.5	0.1
0.01	1	0.338855586000136	1	10	333.611385138	NA	1	0	1.2	1	328.448795077999	328.787650664	"7"	7694.529889783	7689.593782628	1.5	0.1
0.01	1	0.442205487000138	1	10	333.611385138	NA	1	0	1.2	1	329.016302118	329.458507605	"7"	7694.529889783	7689.593782628	1.5	0.1
0.01	1	0.479677966000054	1	10	333.611385138	NA	1	0	1.2	1	329.684122166	330.163800132	"7"	7694.529889783	7689.593782628	1.5	0.1
0.01	1	0.37005500199939	1	10	333.611385138	NA	1	0	1.2	1	330.402043305	330.772098306999	"7"	7694.529889783	7689.593782628	1.5	0.1
0.01	1	0.505146493999746	1	10	333.611385138	NA	1	0	1.2	1	331.003028878	331.508175372	"7"	7694.529889783	7689.593782628	1.5	0.1
0.01	1	0.473621476000517	1	10	333.611385138	NA	1	0	1.2	1	331.73767868	332.211300156	"7"	7694.529889783	7689.593782628	1.5	0.1
0.01	1	0.443526204000591	1	10	333.611385138	NA	1	0	1.2	1	332.438871042999	332.882397247	"7"	7694.529889783	7689.593782628	1.5	0.1
0.01	1	0.39158575700003	1	10	333.611385138	NA	1	0	1.2	1	333.106634911	333.498220668	"7"	7694.529889783	7689.593782628	1.5	0.1
0.01	1	6.88556464799967	1	37	NA	374.074152802	0	0.35	1.55	1	335.660792013	342.546356661	"8"	7694.529889783	7689.593782628	1.5	0.1
0.01	1	0.381981957999415	1	37	NA	374.074152802	0	0.35	1.55	1	342.772930178	343.154912135999	"8"	7694.529889783	7689.593782628	1.5	0.1
0.01	1	0.445322818000022	1	37	NA	374.074152802	0	0.35	1.55	1	343.390502245	343.835825063	"8"	7694.529889783	7689.593782628	1.5	0.1
0.01	1	0.464864972000214	1	37	NA	374.074152802	0	0.35	1.55	1	344.058310875	344.523175847	"8"	7694.529889783	7689.593782628	1.5	0.1
0.01	1	0.419758263000404	1	37	NA	374.074152802	0	0.35	1.55	1	344.75957564	345.179333903	"8"	7694.529889783	7689.593782628	1.5	0.1
0.01	1	0.472540552999817	1	37	NA	374.074152802	0	0.35	1.55	1	345.410590355	345.883130908	"8"	7694.529889783	7689.593782628	1.5	0.1
0.01	1	0.459666922999531	1	37	NA	374.074152802	0	0.35	1.55	1	346.11184192	346.571508843	"8"	7694.529889783	7689.593782628	1.5	0.1
0.01	1	0.391914259999794	1	37	NA	374.074152802	0	0.35	1.55	1	346.796324598	347.188238858	"8"	7694.529889783	7689.593782628	1.5	0.1
0.01	1	0.477401305999592	1	37	NA	374.074152802	0	0.35	1.55	1	347.413946824	347.89134813	"8"	7694.529889783	7689.593782628	1.5	0.1
0.01	1	0.448174277000362	1	37	NA	374.074152802	0	0.35	1.55	1	348.115198867999	348.563373145	"8"	7694.529889783	7689.593782628	1.5	0.1
0.01	1	0.484682865999275	1	37	NA	374.074152802	0	0.35	1.55	1	348.799600778	349.284283644	"8"	7694.529889783	7689.593782628	1.5	0.1
0.01	1	0.421711117999621	1	37	NA	374.074152802	0	0.35	1.55	1	349.517564615	349.939275733	"8"	7694.529889783	7689.593782628	1.5	0.1
0.01	1	0.483137528000043	1	37	NA	374.074152802	0	0.35	1.55	1	350.168511373	350.651648901	"8"	7694.529889783	7689.593782628	1.5	0.1
0.01	1	0.381771004999791	1	37	NA	374.074152802	0	0.35	1.55	1	350.886450668	351.268221673	"8"	7694.529889783	7689.593782628	1.5	0.1
0.01	1	0.41107900499992	1	37	NA	374.074152802	0	0.35	1.55	1	351.504145545	351.91522455	"8"	7694.529889783	7689.593782628	1.5	0.1
0.01	1	0.463019486999656	1	37	NA	374.074152802	0	0.35	1.55	1	352.155299088	352.618318575	"8"	7694.529889783	7689.593782628	1.5	0.1
0.01	1	0.434010912999838	1	37	NA	374.074152802	0	0.35	1.55	1	352.85645337	353.290464283	"8"	7694.529889783	7689.593782628	1.5	0.1
0.01	1	0.470662949000143	1	37	NA	374.074152802	0	0.35	1.55	1	353.524248998	353.994911947	"8"	7694.529889783	7689.593782628	1.5	0.1
0.01	1	0.554707086000235	1	37	NA	374.074152802	0	0.35	1.55	1	354.225473158	354.780180244	"8"	7694.529889783	7689.593782628	1.5	0.1
0.01	1	0.392648102999374	1	37	NA	374.074152802	0	0.35	1.55	1	355.010143253	355.402791355999	"8"	7694.529889783	7689.593782628	1.5	0.1
0.01	1	0.431127460000425	1	37	NA	374.074152802	0	0.35	1.55	1	355.627841375	356.058968835	"8"	7694.529889783	7689.593782628	1.5	0.1
0.01	1	9.08067583600041	1	37	NA	374.074152802	0	0.35	1.55	1	356.295450285	365.376126121	"8"	7694.529889783	7689.593782628	1.5	0.1
0.01	1	0.342606596000223	1	37	NA	374.074152802	0	0.35	1.55	1	365.61131245	365.953919046	"8"	7694.529889783	7689.593782628	1.5	0.1
0.01	1	0.366955182999845	1	37	NA	374.074152802	0	0.35	1.55	1	366.178949603	366.545904785999	"8"	7694.529889783	7689.593782628	1.5	0.1
0.01	1	0.357570670999849	1	37	NA	374.074152802	0	0.35	1.55	1	366.779877123	367.137447794	"8"	7694.529889783	7689.593782628	1.5	0.1
0.01	1	0.381425520999983	1	37	NA	374.074152802	0	0.35	1.55	1	367.364166007	367.745591528	"8"	7694.529889783	7689.593782628	1.5	0.1
0.01	1	0.355670254999495	1	37	NA	374.074152802	0	0.35	1.55	1	367.981830128	368.337500383	"8"	7694.529889783	7689.593782628	1.5	0.1
0.01	1	0.354881621999994	1	37	NA	374.074152802	0	0.35	1.55	1	368.566214648	368.92109627	"8"	7694.529889783	7689.593782628	1.5	0.1
0.01	1	0.290899935000198	1	37	NA	374.074152802	0	0.35	1.55	1	369.150475384999	369.44137532	"8"	7694.529889783	7689.593782628	1.5	0.1
0.01	1	0.32505337099974	1	37	NA	374.074152802	0	0.35	1.55	1	369.668088753	369.993142124	"8"	7694.529889783	7689.593782628	1.5	0.1
0.01	1	0.525019091999638	1	37	NA	374.074152802	0	0.35	1.55	1	370.219036775	370.744055867	"8"	7694.529889783	7689.593782628	1.5	0.1
0.01	1	0.478487843999574	1	37	NA	374.074152802	0	0.35	1.55	1	370.97027256	371.448760404	"8"	7694.529889783	7689.593782628	1.5	0.1
0.01	1	0.576357787000234	1	37	NA	374.074152802	0	0.35	1.55	1	371.688043917999	372.264401705	"8"	7694.529889783	7689.593782628	1.5	0.1
0.01	1	0.359898466000232	1	37	NA	374.074152802	0	0.35	1.55	1	372.489423063	372.849321529	"8"	7694.529889783	7689.593782628	1.5	0.1
0.01	1	0.359624302000157	1	37	NA	374.074152802	0	0.35	1.55	1	373.073775342	373.433399644	"8"	7694.529889783	7689.593782628	1.5	0.1
0.01	1	0.414531807000458	2	37	NA	374.074152802	0	0.35	1.55	1	373.658102678	374.072634485	"8"	7694.529889783	7689.593782628	1.5	0.1
0.01	1	7.90895485799956	1	108	NA	412.344501336	0	0.44	1.99	1	376.12893316	384.037888018	"9"	7694.529889783	7689.593782628	1.5	0.1
0.01	1	0.266645353999593	1	108	NA	412.344501336	0	0.44	1.99	1	384.275979563	384.542624917	"9"	7694.529889783	7689.593782628	1.5	0.1
0.01	1	0.33234123299917	1	108	NA	412.344501336	0	0.44	1.99	1	384.776738753	385.109079985999	"9"	7694.529889783	7689.593782628	1.5	0.1
0.01	1	0.357209542999954	1	108	NA	412.344501336	0	0.44	1.99	1	385.344345143	385.701554686	"9"	7694.529889783	7689.593782628	1.5	0.1
0.01	1	0.389134297000055	1	108	NA	412.344501336	0	0.44	1.99	1	385.928719038	386.317853335	"9"	7694.529889783	7689.593782628	1.5	0.1
0.01	1	0.372127204999742	1	108	NA	412.344501336	0	0.44	1.99	1	386.546436213	386.918563417999	"9"	7694.529889783	7689.593782628	1.5	0.1
0.01	1	0.402353256000424	1	108	NA	412.344501336	0	0.44	1.99	1	387.147384108	387.549737364	"9"	7694.529889783	7689.593782628	1.5	0.1
0.01	1	0.375555998999516	1	108	NA	412.344501336	0	0.44	1.99	1	387.781869685	388.157425683999	"9"	7694.529889783	7689.593782628	1.5	0.1
0.01	1	0.439039073999993	1	108	NA	412.344501336	0	0.44	1.99	1	388.382826163	388.821865237	"9"	7694.529889783	7689.593782628	1.5	0.1
0.01	1	0.363495567000427	1	108	NA	412.344501336	0	0.44	1.99	1	389.05064352	389.414139087	"9"	7694.529889783	7689.593782628	1.5	0.1
0.01	1	0.418149867000466	1	108	NA	412.344501336	0	0.44	1.99	1	389.651730293	390.06988016	"9"	7694.529889783	7689.593782628	1.5	0.1
0.01	1	0.422425591999854	1	108	NA	412.344501336	0	0.44	1.99	1	390.302880835	390.725306427	"9"	7694.529889783	7689.593782628	1.5	0.1
0.01	1	0.436693161999756	1	108	NA	412.344501336	0	0.44	1.99	1	390.953832065	391.390525227	"9"	7694.529889783	7689.593782628	1.5	0.1
0.01	1	0.375567883000258	1	108	NA	412.344501336	0	0.44	1.99	1	391.621664453	391.997232336	"9"	7694.529889783	7689.593782628	1.5	0.1
0.01	1	0.366468628999428	1	108	NA	412.344501336	0	0.44	1.99	1	392.222704574	392.589173203	"9"	7694.529889783	7689.593782628	1.5	0.1
0.01	1	0.397805624999819	1	108	NA	412.344501336	0	0.44	1.99	1	392.823685048	393.221490673	"9"	7694.529889783	7689.593782628	1.5	0.1
0.01	1	0.339666029999535	1	108	NA	412.344501336	0	0.44	1.99	1	393.458034133	393.797700163	"9"	7694.529889783	7689.593782628	1.5	0.1
0.01	1	0.348428580000473	1	108	NA	412.344501336	0	0.44	1.99	1	394.025737692999	394.374166273	"9"	7694.529889783	7689.593782628	1.5	0.1
0.01	1	0.348833887000183	1	108	NA	412.344501336	0	0.44	1.99	1	394.610053848	394.958887735	"9"	7694.529889783	7689.593782628	1.5	0.1
0.01	1	0.323711527999876	1	108	NA	412.344501336	0	0.44	1.99	1	395.194308505	395.518020033	"9"	7694.529889783	7689.593782628	1.5	0.1
0.01	1	0.357002439000098	1	108	NA	412.344501336	0	0.44	1.99	1	395.74522499	396.102227429	"9"	7694.529889783	7689.593782628	1.5	0.1
0.01	1	0.357069054000021	1	108	NA	412.344501336	0	0.44	1.99	1	396.329604572999	396.686673626999	"9"	7694.529889783	7689.593782628	1.5	0.1
0.01	1	0.404718977999437	1	108	NA	412.344501336	0	0.44	1.99	1	396.913928578	397.318647556	"9"	7694.529889783	7689.593782628	1.5	0.1
0.01	1	0.369746243000009	1	108	NA	412.344501336	0	0.44	1.99	1	397.548298383	397.918044626	"9"	7694.529889783	7689.593782628	1.5	0.1
0.01	1	0.352274521000254	1	108	NA	412.344501336	0	0.44	1.99	1	398.149230733	398.501505254	"9"	7694.529889783	7689.593782628	1.5	0.1
0.01	1	0.375795189999735	1	108	NA	412.344501336	0	0.44	1.99	1	398.733621868	399.109417058	"9"	7694.529889783	7689.593782628	1.5	0.1
0.01	1	0.382729117999588	1	108	NA	412.344501336	0	0.44	1.99	1	399.334518195	399.717247312999	"9"	7694.529889783	7689.593782628	1.5	0.1
0.01	1	0.309069998000268	1	108	NA	412.344501336	0	0.44	1.99	1	399.952384796	400.261454794	"9"	7694.529889783	7689.593782628	1.5	0.1
0.01	1	0.623282726999605	1	108	NA	412.344501336	0	0.44	1.99	1	400.48663296	401.109915687	"9"	7694.529889783	7689.593782628	1.5	0.1
0.01	1	0.308721539000544	1	108	NA	412.344501336	0	0.44	1.99	1	401.337929507999	401.646651047	"9"	7694.529889783	7689.593782628	1.5	0.1
0.01	1	0.357823552999434	1	108	NA	412.344501336	0	0.44	1.99	1	401.872211883	402.230035436	"9"	7694.529889783	7689.593782628	1.5	0.1
0.01	1	0.40619159399921	1	108	NA	412.344501336	0	0.44	1.99	1	402.456570563	402.862762156999	"9"	7694.529889783	7689.593782628	1.5	0.1
0.01	1	0.434813287999532	1	108	NA	412.344501336	0	0.44	1.99	1	403.090959647	403.525772935	"9"	7694.529889783	7689.593782628	1.5	0.1
0.01	1	0.335658191999755	1	108	NA	412.344501336	0	0.44	1.99	1	403.758717608	404.094375799999	"9"	7694.529889783	7689.593782628	1.5	0.1
0.01	1	0.408551882000211	1	108	NA	412.344501336	0	0.44	1.99	1	404.32630326	404.734855142	"9"	7694.529889783	7689.593782628	1.5	0.1
0.01	1	1.50048799900014	1	108	NA	412.344501336	0	0.44	1.99	1	404.960806598	406.461294597	"9"	7694.529889783	7689.593782628	1.5	0.1
0.01	1	0.341044949999741	1	108	NA	412.344501336	0	0.44	1.99	1	406.697010643	407.038055593	"9"	7694.529889783	7689.593782628	1.5	0.1
0.01	1	0.293592994999926	1	108	NA	412.344501336	0	0.44	1.99	1	407.264684094	407.558277089	"9"	7694.529889783	7689.593782628	1.5	0.1
0.01	1	0.288015838999854	1	108	NA	412.344501336	0	0.44	1.99	1	407.782119985	408.070135823999	"9"	7694.529889783	7689.593782628	1.5	0.1
0.01	1	0.346012935000545	1	108	NA	412.344501336	0	0.44	1.99	1	408.299612807999	408.645625743	"9"	7694.529889783	7689.593782628	1.5	0.1
0.01	1	0.898842419000175	1	108	NA	412.344501336	0	0.44	1.99	1	408.883909045	409.782751464	"9"	7694.529889783	7689.593782628	1.5	0.1
0.01	1	0.179327789999661	1	108	NA	412.344501336	0	0.44	1.99	1	410.019190405	410.198518194999	"9"	7694.529889783	7689.593782628	1.5	0.1
0.01	1	0.513291190999553	1	108	NA	412.344501336	0	0.44	1.99	1	410.436659965	410.949951156	"9"	7694.529889783	7689.593782628	1.5	0.1
0.01	1	0.40292583900009	1	108	NA	412.344501336	0	0.44	1.99	1	411.188011833	411.590937672	"9"	7694.529889783	7689.593782628	1.5	0.1
0.01	1	0.520659864000663	2	108	NA	412.344501336	0	0.44	1.99	1	411.822266693	412.342926557	"9"	7694.529889783	7689.593782628	1.5	0.1
0.01	1	14.6612007849999	1	18	439.955689713	NA	1	0	1.99	1	414.393181293	429.054382077999	"10"	7694.529889783	7689.593782628	1.5	0.1
0.01	1	0.337809098999969	1	18	439.955689713	NA	1	0	1.99	1	429.285048045	429.622857144	"10"	7694.529889783	7689.593782628	1.5	0.1
0.01	1	0.426616331999867	1	18	439.955689713	NA	1	0	1.99	1	429.852595775	430.279212107	"10"	7694.529889783	7689.593782628	1.5	0.1
0.01	1	0.399098873000185	1	18	439.955689713	NA	1	0	1.99	1	430.503608825	430.902707698	"10"	7694.529889783	7689.593782628	1.5	0.1
0.01	1	0.389726428999893	1	18	439.955689713	NA	1	0	1.99	1	431.138120028	431.527846457	"10"	7694.529889783	7689.593782628	1.5	0.1
0.01	1	0.388386480000008	1	18	439.955689713	NA	1	0	1.99	1	431.755828273	432.144214753	"10"	7694.529889783	7689.593782628	1.5	0.1
0.01	1	0.425309764000303	1	18	439.955689713	NA	1	0	1.99	1	432.373524359999	432.798834124	"10"	7694.529889783	7689.593782628	1.5	0.1
0.01	1	0.406188057999316	1	18	439.955689713	NA	1	0	1.99	1	433.024645028	433.430833085999	"10"	7694.529889783	7689.593782628	1.5	0.1
0.01	1	0.467340670999874	1	18	439.955689713	NA	1	0	1.99	1	433.658997355	434.126338026	"10"	7694.529889783	7689.593782628	1.5	0.1
0.01	1	0.415155495999898	1	18	439.955689713	NA	1	0	1.99	1	434.360149096	434.775304592	"10"	7694.529889783	7689.593782628	1.5	0.1
0.01	1	0.396731112999987	1	18	439.955689713	NA	1	0	1.99	1	435.01132178	435.408052893	"10"	7694.529889783	7689.593782628	1.5	0.1
0.01	1	0.442584628999612	1	18	439.955689713	NA	1	0	1.99	1	435.645660335	436.088244963999	"10"	7694.529889783	7689.593782628	1.5	0.1
0.01	1	0.406772197999999	1	18	439.955689713	NA	1	0	1.99	1	436.313393978	436.720166176	"10"	7694.529889783	7689.593782628	1.5	0.1
0.01	1	0.362413458999981	1	18	439.955689713	NA	1	0	1.99	1	436.947857128	437.310270587	"10"	7694.529889783	7689.593782628	1.5	0.1
0.01	1	0.449991071999648	1	18	439.955689713	NA	1	0	1.99	1	437.548794993	437.998786065	"10"	7694.529889783	7689.593782628	1.5	0.1
0.01	1	0.388900619000196	1	18	439.955689713	NA	1	0	1.99	1	438.233412733	438.622313352	"10"	7694.529889783	7689.593782628	1.5	0.1
0.01	1	0.412344440999732	1	18	439.955689713	NA	1	0	1.99	1	438.851013593	439.263358034	"10"	7694.529889783	7689.593782628	1.5	0.1
0.01	1	0.362483233999228	1	18	439.955689713	NA	1	0	1.99	1	439.485438378	439.847921611999	"10"	7694.529889783	7689.593782628	1.5	0.1
0.01	1	9.59293023800001	1	2	452.32677896	NA	1	0	1.99	1	442.006380838	451.599311076	"11"	7694.529889783	7689.593782628	1.5	0.1
0.01	1	0.368676089000473	1	2	452.32677896	NA	1	0	1.99	1	451.839530247999	452.208206337	"11"	7694.529889783	7689.593782628	1.5	0.1
0.01	1	5.96966926700043	1	107	NA	495.630395809	0	0.5	2.49	1	454.360429816999	460.330099084	"12"	7694.529889783	7689.593782628	1.5	0.1
0.01	1	0.415903426000114	1	107	NA	495.630395809	0	0.5	2.49	1	460.554163678	460.970067104	"12"	7694.529889783	7689.593782628	1.5	0.1
0.01	1	0.546921189000386	1	107	NA	495.630395809	0	0.5	2.49	1	461.205471658	461.752392847	"12"	7694.529889783	7689.593782628	1.5	0.1
0.01	1	0.483488337000381	1	107	NA	495.630395809	0	0.5	2.49	1	461.990000457999	462.473488795	"12"	7694.529889783	7689.593782628	1.5	0.1
0.01	1	0.494315240000105	1	107	NA	495.630395809	0	0.5	2.49	1	462.707858578	463.202173818	"12"	7694.529889783	7689.593782628	1.5	0.1
0.01	1	0.431977856000231	1	107	NA	495.630395809	0	0.5	2.49	1	463.425779845	463.857757701	"12"	7694.529889783	7689.593782628	1.5	0.1
0.01	1	0.523164999000073	1	107	NA	495.630395809	0	0.5	2.49	1	464.093480285	464.616645284	"12"	7694.529889783	7689.593782628	1.5	0.1
0.01	1	0.413439717000074	1	107	NA	495.630395809	0	0.5	2.49	1	464.844901300999	465.258341018	"12"	7694.529889783	7689.593782628	1.5	0.1
0.01	1	0.434442273000059	1	107	NA	495.630395809	0	0.5	2.49	1	465.495944943	465.930387216	"12"	7694.529889783	7689.593782628	1.5	0.1
0.01	1	0.438269887000388	1	107	NA	495.630395809	0	0.5	2.49	1	466.163652314	466.601922201	"12"	7694.529889783	7689.593782628	1.5	0.1
0.01	1	0.474127215000408	1	107	NA	495.630395809	0	0.5	2.49	1	466.831496598	467.305623813	"12"	7694.529889783	7689.593782628	1.5	0.1
0.01	1	0.477202953999949	1	107	NA	495.630395809	0	0.5	2.49	1	467.532712688	468.009915642	"12"	7694.529889783	7689.593782628	1.5	0.1
0.01	1	0.440496205999807	1	107	NA	495.630395809	0	0.5	2.49	1	468.233765238	468.674261444	"12"	7694.529889783	7689.593782628	1.5	0.1
0.01	1	0.524039400999754	1	107	NA	495.630395809	0	0.5	2.49	1	468.901641343	469.425680744	"12"	7694.529889783	7689.593782628	1.5	0.1
0.01	1	0.421100389000458	1	107	NA	495.630395809	0	0.5	2.49	1	469.652901703	470.074002092	"12"	7694.529889783	7689.593782628	1.5	0.1
0.01	1	0.352552997999737	1	107	NA	495.630395809	0	0.5	2.49	1	470.304015535	470.656568533	"12"	7694.529889783	7689.593782628	1.5	0.1
0.01	1	0.3848775940005	1	107	NA	495.630395809	0	0.5	2.49	1	470.8882607	471.273138294	"12"	7694.529889783	7689.593782628	1.5	0.1
0.01	1	0.390670191999561	1	107	NA	495.630395809	0	0.5	2.49	1	471.506056708	471.8967269	"12"	7694.529889783	7689.593782628	1.5	0.1
0.01	1	0.397186926000359	1	107	NA	495.630395809	0	0.5	2.49	1	472.123673308	472.520860234	"12"	7694.529889783	7689.593782628	1.5	0.1
0.01	1	0.363075523000589	1	107	NA	495.630395809	0	0.5	2.49	1	472.758085893	473.121161416	"12"	7694.529889783	7689.593782628	1.5	0.1
0.01	1	0.385525114000302	1	107	NA	495.630395809	0	0.5	2.49	1	473.359122297999	473.744647412	"12"	7694.529889783	7689.593782628	1.5	0.1
0.01	1	0.417357490000541	1	107	NA	495.630395809	0	0.5	2.49	1	473.976805148	474.394162638	"12"	7694.529889783	7689.593782628	1.5	0.1
0.01	1	0.364657047999572	1	107	NA	495.630395809	0	0.5	2.49	1	474.627895535	474.992552582999	"12"	7694.529889783	7689.593782628	1.5	0.1
0.01	1	0.363711500000136	1	107	NA	495.630395809	0	0.5	2.49	1	475.228856983	475.592568483	"12"	7694.529889783	7689.593782628	1.5	0.1
0.01	1	0.41160009899977	1	107	NA	495.630395809	0	0.5	2.49	1	475.829926714	476.241526813	"12"	7694.529889783	7689.593782628	1.5	0.1
0.01	1	0.329651715000182	1	107	NA	495.630395809	0	0.5	2.49	1	476.464337463	476.793989178	"12"	7694.529889783	7689.593782628	1.5	0.1
0.01	1	0.345284765000542	1	107	NA	495.630395809	0	0.5	2.49	1	477.031952167999	477.377236933	"12"	7694.529889783	7689.593782628	1.5	0.1
0.01	1	0.330326625999987	1	107	NA	495.630395809	0	0.5	2.49	1	477.599530508	477.929857134	"12"	7694.529889783	7689.593782628	1.5	0.1
0.01	1	0.361572478000198	1	107	NA	495.630395809	0	0.5	2.49	1	478.167152675	478.528725153	"12"	7694.529889783	7689.593782628	1.5	0.1
0.01	1	0.506290807000369	1	107	NA	495.630395809	0	0.5	2.49	1	478.75141258	479.257703387	"12"	7694.529889783	7689.593782628	1.5	0.1
0.01	1	0.396167558000343	1	107	NA	495.630395809	0	0.5	2.49	1	479.486177735	479.882345293	"12"	7694.529889783	7689.593782628	1.5	0.1
0.01	1	0.386846223999783	1	107	NA	495.630395809	0	0.5	2.49	1	480.12036914	480.507215363999	"12"	7694.529889783	7689.593782628	1.5	0.1
0.01	1	0.384201240000039	1	107	NA	495.630395809	0	0.5	2.49	1	480.738172328	481.122373568	"12"	7694.529889783	7689.593782628	1.5	0.1
0.01	1	0.341947179000272	1	107	NA	495.630395809	0	0.5	2.49	1	481.355926763	481.697873942	"12"	7694.529889783	7689.593782628	1.5	0.1
0.01	1	0.397338615000081	1	107	NA	495.630395809	0	0.5	2.49	1	481.923440513	482.320779128	"12"	7694.529889783	7689.593782628	1.5	0.1
0.01	1	0.370446621000156	1	107	NA	495.630395809	0	0.5	2.49	1	482.557974507999	482.928421129	"12"	7694.529889783	7689.593782628	1.5	0.1
0.01	1	0.370398791999833	1	107	NA	495.630395809	0	0.5	2.49	1	483.158933943	483.529332735	"12"	7694.529889783	7689.593782628	1.5	0.1
0.01	1	0.338477732000683	1	107	NA	495.630395809	0	0.5	2.49	1	483.759936684	484.098414416	"12"	7694.529889783	7689.593782628	1.5	0.1
0.01	1	0.386130070000036	1	107	NA	495.630395809	0	0.5	2.49	1	484.327529748	484.713659818	"12"	7694.529889783	7689.593782628	1.5	0.1
0.01	1	0.367786671999966	1	107	NA	495.630395809	0	0.5	2.49	1	484.945286538	485.31307321	"12"	7694.529889783	7689.593782628	1.5	0.1
0.01	1	3.73947032199976	1	107	NA	495.630395809	0	0.5	2.49	1	485.546284473	489.285754795	"12"	7694.529889783	7689.593782628	1.5	0.1
0.01	1	0.293209310999373	1	107	NA	495.630395809	0	0.5	2.49	1	489.519656798	489.812866109	"12"	7694.529889783	7689.593782628	1.5	0.1
0.01	1	0.359789743999499	1	107	NA	495.630395809	0	0.5	2.49	1	490.037172528	490.396962272	"12"	7694.529889783	7689.593782628	1.5	0.1
0.01	1	0.319862917000137	1	107	NA	495.630395809	0	0.5	2.49	1	490.621467735	490.941330652	"12"	7694.529889783	7689.593782628	1.5	0.1
0.01	1	0.336745531000815	1	107	NA	495.630395809	0	0.5	2.49	1	491.172439094999	491.509184626	"12"	7694.529889783	7689.593782628	1.5	0.1
0.01	1	0.64158165399931	1	107	NA	495.630395809	0	0.5	2.49	1	491.74003445	492.381616103999	"12"	7694.529889783	7689.593782628	1.5	0.1
0.01	1	0.325143998000385	1	107	NA	495.630395809	0	0.5	2.49	1	492.608178295	492.933322293	"12"	7694.529889783	7689.593782628	1.5	0.1
0.01	1	0.334676016999765	1	107	NA	495.630395809	0	0.5	2.49	1	493.15899525	493.493671267	"12"	7694.529889783	7689.593782628	1.5	0.1
0.01	1	0.470083717999842	1	107	NA	495.630395809	0	0.5	2.49	1	493.726721465	494.196805183	"12"	7694.529889783	7689.593782628	1.5	0.1
0.01	1	0.521901747999436	1	107	NA	495.630395809	0	0.5	2.49	1	494.427824368	494.949726116	"12"	7694.529889783	7689.593782628	1.5	0.1
0.01	1	0.449726834000103	2	107	NA	495.630395809	0	0.5	2.49	1	495.179088039999	495.628814874	"12"	7694.529889783	7689.593782628	1.5	0.1
0.01	1	7.2997618950003	1	119	NA	530.240402545	0	0.4	2.89	1	497.683385978	504.983147873	"13"	7694.529889783	7689.593782628	1.5	0.1
0.01	1	0.330286886000067	1	119	NA	530.240402545	0	0.4	2.89	1	505.212740174999	505.543027061	"13"	7694.529889783	7689.593782628	1.5	0.1
0.01	1	0.427213988999938	1	119	NA	530.240402545	0	0.4	2.89	1	505.780196055	506.207410044	"13"	7694.529889783	7689.593782628	1.5	0.1
0.01	1	0.503292490999229	1	119	NA	530.240402545	0	0.4	2.89	1	506.431394813	506.934687303999	"13"	7694.529889783	7689.593782628	1.5	0.1
0.01	1	0.465081696999732	1	119	NA	530.240402545	0	0.4	2.89	1	507.165993715	507.631075412	"13"	7694.529889783	7689.593782628	1.5	0.1
0.01	1	0.44329177399959	1	119	NA	530.240402545	0	0.4	2.89	1	507.867104875	508.310396649	"13"	7694.529889783	7689.593782628	1.5	0.1
0.01	1	0.536842602000434	1	119	NA	530.240402545	0	0.4	2.89	1	508.534985507999	509.07182811	"13"	7694.529889783	7689.593782628	1.5	0.1
0.01	1	0.448633746000269	1	119	NA	530.240402545	0	0.4	2.89	1	509.30294568	509.751579426	"13"	7694.529889783	7689.593782628	1.5	0.1
0.01	1	0.483103601000039	1	119	NA	530.240402545	0	0.4	2.89	1	509.987293792999	510.470397394	"13"	7694.529889783	7689.593782628	1.5	0.1
0.01	1	0.412782354000228	1	119	NA	530.240402545	0	0.4	2.89	1	510.705235195	511.118017549	"13"	7694.529889783	7689.593782628	1.5	0.1
0.01	1	0.681817498000783	1	119	NA	530.240402545	0	0.4	2.89	1	511.356429858	512.038247356	"13"	7694.529889783	7689.593782628	1.5	0.1
0.01	1	0.356711763000021	1	119	NA	530.240402545	0	0.4	2.89	1	512.274483065	512.631194828	"13"	7694.529889783	7689.593782628	1.5	0.1
0.01	1	0.427444142999775	1	119	NA	530.240402545	0	0.4	2.89	1	512.858815718	513.286259861	"13"	7694.529889783	7689.593782628	1.5	0.1
0.01	1	0.441294378000748	1	119	NA	530.240402545	0	0.4	2.89	1	513.510156427999	513.951450806	"13"	7694.529889783	7689.593782628	1.5	0.1
0.01	1	0.389701050999975	1	119	NA	530.240402545	0	0.4	2.89	1	514.177714793	514.567415844	"13"	7694.529889783	7689.593782628	1.5	0.1
0.01	1	0.411486664000222	1	119	NA	530.240402545	0	0.4	2.89	1	514.795489743	515.206976407	"13"	7694.529889783	7689.593782628	1.5	0.1
0.01	1	0.368770375999702	1	119	NA	530.240402545	0	0.4	2.89	1	515.44661492	515.815385295999	"13"	7694.529889783	7689.593782628	1.5	0.1
0.01	1	0.342706075000024	1	119	NA	530.240402545	0	0.4	2.89	1	516.047554055	516.39026013	"13"	7694.529889783	7689.593782628	1.5	0.1
0.01	1	0.392121253999903	1	119	NA	530.240402545	0	0.4	2.89	1	516.615118277999	517.007239531999	"13"	7694.529889783	7689.593782628	1.5	0.1
0.01	1	0.350939967000159	1	119	NA	530.240402545	0	0.4	2.89	1	517.232896357999	517.583836325	"13"	7694.529889783	7689.593782628	1.5	0.1
0.01	1	0.997472484999889	1	119	NA	530.240402545	0	0.4	2.89	1	517.817278398	518.814750883	"13"	7694.529889783	7689.593782628	1.5	0.1
0.01	1	0.385610336999889	1	119	NA	530.240402545	0	0.4	2.89	1	519.052574589999	519.438184926999	"13"	7694.529889783	7689.593782628	1.5	0.1
0.01	1	0.353032973999689	1	119	NA	530.240402545	0	0.4	2.89	1	519.670296173	520.023329146999	"13"	7694.529889783	7689.593782628	1.5	0.1
0.01	1	0.311500211000748	1	119	NA	530.240402545	0	0.4	2.89	1	520.254742442999	520.566242654	"13"	7694.529889783	7689.593782628	1.5	0.1
0.01	1	0.323031828999774	1	119	NA	530.240402545	0	0.4	2.89	1	520.788845413	521.111877242	"13"	7694.529889783	7689.593782628	1.5	0.1
0.01	1	0.378771894000238	1	119	NA	530.240402545	0	0.4	2.89	1	521.339823918	521.718595812	"13"	7694.529889783	7689.593782628	1.5	0.1
0.01	1	0.392690315999971	1	119	NA	530.240402545	0	0.4	2.89	1	521.957506558	522.350196874	"13"	7694.529889783	7689.593782628	1.5	0.1
0.01	1	0.352120862999982	1	119	NA	530.240402545	0	0.4	2.89	1	522.575230635	522.927351498	"13"	7694.529889783	7689.593782628	1.5	0.1
0.01	1	0.366942723000648	1	119	NA	530.240402545	0	0.4	2.89	1	523.159497582999	523.526440306	"13"	7694.529889783	7689.593782628	1.5	0.1
0.01	1	0.343386788999851	1	119	NA	530.240402545	0	0.4	2.89	1	523.760536218	524.103923007	"13"	7694.529889783	7689.593782628	1.5	0.1
0.01	1	0.351546809999491	1	119	NA	530.240402545	0	0.4	2.89	1	524.328157058	524.679703868	"13"	7694.529889783	7689.593782628	1.5	0.1
0.01	1	0.367464764000033	1	119	NA	530.240402545	0	0.4	2.89	1	524.912464397999	525.279929161999	"13"	7694.529889783	7689.593782628	1.5	0.1
0.01	1	0.340692026000397	1	119	NA	530.240402545	0	0.4	2.89	1	525.513470978	525.854163004	"13"	7694.529889783	7689.593782628	1.5	0.1
0.01	1	0.31066689599993	1	119	NA	530.240402545	0	0.4	2.89	1	526.080989365	526.391656261	"13"	7694.529889783	7689.593782628	1.5	0.1
0.01	1	0.288506795000103	1	119	NA	530.240402545	0	0.4	2.89	1	526.615284803	526.903791598	"13"	7694.529889783	7689.593782628	1.5	0.1
0.01	1	0.363128871999834	1	119	NA	530.240402545	0	0.4	2.89	1	527.132787643	527.495916514999	"13"	7694.529889783	7689.593782628	1.5	0.1
0.01	1	0.31305432299996	1	119	NA	530.240402545	0	0.4	2.89	1	527.717230628	528.030284951	"13"	7694.529889783	7689.593782628	1.5	0.1
0.01	1	0.284179100999609	1	119	NA	530.240402545	0	0.4	2.89	1	528.251430385	528.535609486	"13"	7694.529889783	7689.593782628	1.5	0.1
0.01	1	0.325331392000408	1	119	NA	530.240402545	0	0.4	2.89	1	528.768947097999	529.09427849	"13"	7694.529889783	7689.593782628	1.5	0.1
0.01	1	0.343602031000046	1	119	NA	530.240402545	0	0.4	2.89	1	529.31986749	529.663469521	"13"	7694.529889783	7689.593782628	1.5	0.1
0.01	1	0.351315038000394	2	119	NA	530.240402545	0	0.4	2.89	1	529.887563374999	530.238878413	"13"	7694.529889783	7689.593782628	1.5	0.1
0.01	1	6.28378915800022	1	71	NA	562.569478511999	0	0.4	3.29	1	532.291545394	538.575334552	"14"	7694.529889783	7689.593782628	1.5	0.1
0.01	1	0.334079375000329	1	71	NA	562.569478511999	0	0.4	3.29	1	538.80251126	539.136590635	"14"	7694.529889783	7689.593782628	1.5	0.1
0.01	1	0.389625421999881	1	71	NA	562.569478511999	0	0.4	3.29	1	539.370162185	539.759787606999	"14"	7694.529889783	7689.593782628	1.5	0.1
0.01	1	0.412995712000338	1	71	NA	562.569478511999	0	0.4	3.29	1	539.987823248	540.40081896	"14"	7694.529889783	7689.593782628	1.5	0.1
0.01	1	0.513965467999697	1	71	NA	562.569478511999	0	0.4	3.29	1	540.622152495	541.136117962999	"14"	7694.529889783	7689.593782628	1.5	0.1
0.01	1	0.489647107000565	1	71	NA	562.569478511999	0	0.4	3.29	1	541.373501863	541.86314897	"14"	7694.529889783	7689.593782628	1.5	0.1
0.01	1	0.452148379999926	1	71	NA	562.569478511999	0	0.4	3.29	1	542.091418848	542.543567228	"14"	7694.529889783	7689.593782628	1.5	0.1
0.01	1	0.384106087999498	1	71	NA	562.569478511999	0	0.4	3.29	1	542.775819478	543.159925565999	"14"	7694.529889783	7689.593782628	1.5	0.1
0.01	1	0.422803684000428	1	71	NA	562.569478511999	0	0.4	3.29	1	543.393591628	543.816395312	"14"	7694.529889783	7689.593782628	1.5	0.1
0.01	1	0.378256326000155	1	71	NA	562.569478511999	0	0.4	3.29	1	544.044736918	544.422993244	"14"	7694.529889783	7689.593782628	1.5	0.1
0.01	1	0.402234314999987	1	71	NA	562.569478511999	0	0.4	3.29	1	544.645590543	545.047824858	"14"	7694.529889783	7689.593782628	1.5	0.1
0.01	1	0.391632908000247	1	71	NA	562.569478511999	0	0.4	3.29	1	545.280027788	545.671660696	"14"	7694.529889783	7689.593782628	1.5	0.1
0.01	1	0.438486556000498	1	71	NA	562.569478511999	0	0.4	3.29	1	545.897844638	546.336331194	"14"	7694.529889783	7689.593782628	1.5	0.1
0.01	1	0.362101809999331	1	71	NA	562.569478511999	0	0.4	3.29	1	546.565479873	546.927581683	"14"	7694.529889783	7689.593782628	1.5	0.1
0.01	1	0.353765728000326	1	71	NA	562.569478511999	0	0.4	3.29	1	547.166540298	547.520306026	"14"	7694.529889783	7689.593782628	1.5	0.1
0.01	1	0.320488585000021	1	71	NA	562.569478511999	0	0.4	3.29	1	547.750835888	548.071324473	"14"	7694.529889783	7689.593782628	1.5	0.1
0.01	1	0.297308180000073	1	71	NA	562.569478511999	0	0.4	3.29	1	548.301819355	548.599127535	"14"	7694.529889783	7689.593782628	1.5	0.1
0.01	1	0.35645243899944	1	71	NA	562.569478511999	0	0.4	3.29	1	548.836006808	549.192459247	"14"	7694.529889783	7689.593782628	1.5	0.1
0.01	1	0.331384701999923	1	71	NA	562.569478511999	0	0.4	3.29	1	549.420308405	549.751693106999	"14"	7694.529889783	7689.593782628	1.5	0.1
0.01	1	0.299173997999787	1	71	NA	562.569478511999	0	0.4	3.29	1	549.987958128	550.287132126	"14"	7694.529889783	7689.593782628	1.5	0.1
0.01	1	0.39019314000052	1	71	NA	562.569478511999	0	0.4	3.29	1	550.522177485	550.912370625	"14"	7694.529889783	7689.593782628	1.5	0.1
0.01	1	0.3956286370003	1	71	NA	562.569478511999	0	0.4	3.29	1	551.139807178	551.535435815	"14"	7694.529889783	7689.593782628	1.5	0.1
0.01	1	0.385209950999524	1	71	NA	562.569478511999	0	0.4	3.29	1	551.757668933	552.142878883999	"14"	7694.529889783	7689.593782628	1.5	0.1
0.01	1	0.385284884999237	1	71	NA	562.569478511999	0	0.4	3.29	1	552.375224143	552.760509027999	"14"	7694.529889783	7689.593782628	1.5	0.1
0.01	1	0.350198067999372	1	71	NA	562.569478511999	0	0.4	3.29	1	552.992950568	553.343148636	"14"	7694.529889783	7689.593782628	1.5	0.1
0.01	1	0.358193323000705	1	71	NA	562.569478511999	0	0.4	3.29	1	553.577292434999	553.935485758	"14"	7694.529889783	7689.593782628	1.5	0.1
0.01	1	0.325545458999841	1	71	NA	562.569478511999	0	0.4	3.29	1	554.161559466	554.487104925	"14"	7694.529889783	7689.593782628	1.5	0.1
0.01	1	0.350942625000243	1	71	NA	562.569478511999	0	0.4	3.29	1	554.712549588	555.063492213	"14"	7694.529889783	7689.593782628	1.5	0.1
0.01	1	0.311654039000132	1	71	NA	562.569478511999	0	0.4	3.29	1	555.296838535	555.608492574	"14"	7694.529889783	7689.593782628	1.5	0.1
0.01	1	0.376995111999349	1	71	NA	562.569478511999	0	0.4	3.29	1	555.831132698	556.208127809999	"14"	7694.529889783	7689.593782628	1.5	0.1
0.01	1	0.344065760000376	1	71	NA	562.569478511999	0	0.4	3.29	1	556.432134842999	556.776200603	"14"	7694.529889783	7689.593782628	1.5	0.1
0.01	1	0.351679658000648	1	71	NA	562.569478511999	0	0.4	3.29	1	556.999702827999	557.351382486	"14"	7694.529889783	7689.593782628	1.5	0.1
0.01	1	0.320129832999555	1	71	NA	562.569478511999	0	0.4	3.29	1	557.584151148	557.904280981	"14"	7694.529889783	7689.593782628	1.5	0.1
0.01	1	0.297230479999598	1	71	NA	562.569478511999	0	0.4	3.29	1	558.135216273	558.432446753	"14"	7694.529889783	7689.593782628	1.5	0.1
0.01	1	0.313938092999706	1	71	NA	562.569478511999	0	0.4	3.29	1	558.669169805	558.983107898	"14"	7694.529889783	7689.593782628	1.5	0.1
0.01	1	0.291167004000272	1	71	NA	562.569478511999	0	0.4	3.29	1	559.22013118	559.511298184	"14"	7694.529889783	7689.593782628	1.5	0.1
0.01	1	0.342190538000068	1	71	NA	562.569478511999	0	0.4	3.29	1	559.73769686	560.079887398	"14"	7694.529889783	7689.593782628	1.5	0.1
0.01	1	0.310686556999826	1	71	NA	562.569478511999	0	0.4	3.29	1	560.305286358	560.615972914999	"14"	7694.529889783	7689.593782628	1.5	0.1
0.01	1	0.318614822999734	1	71	NA	562.569478511999	0	0.4	3.29	1	560.856198423	561.174813246	"14"	7694.529889783	7689.593782628	1.5	0.1
0.01	1	0.632497663000322	1	71	NA	562.569478511999	0	0.4	3.29	1	561.407202124999	562.039699788	"14"	7694.529889783	7689.593782628	1.5	0.1
0.01	1	0.292691014999946	2	71	NA	562.569478511999	0	0.4	3.29	1	562.275264588	562.567955603	"14"	7694.529889783	7689.593782628	1.5	0.1
0.01	1	8.66285413599962	1	32	593.247067935	NA	1	0	3.29	1	564.612473033	573.275327169	"15"	7694.529889783	7689.593782628	1.5	0.1
0.01	1	0.317690865000259	1	32	593.247067935	NA	1	0	3.29	1	573.510867438	573.828558303	"15"	7694.529889783	7689.593782628	1.5	0.1
0.01	1	0.317194872999607	1	32	593.247067935	NA	1	0	3.29	1	574.061739263	574.378934136	"15"	7694.529889783	7689.593782628	1.5	0.1
0.01	1	0.326045755999985	1	32	593.247067935	NA	1	0	3.29	1	574.612655805	574.938701561	"15"	7694.529889783	7689.593782628	1.5	0.1
0.01	1	0.456732937000197	1	32	593.247067935	NA	1	0	3.29	1	575.163569875	575.620302812	"15"	7694.529889783	7689.593782628	1.5	0.1
0.01	1	0.372145731999808	1	32	593.247067935	NA	1	0	3.29	1	575.848075148	576.22022088	"15"	7694.529889783	7689.593782628	1.5	0.1
0.01	1	0.441770013999303	1	32	593.247067935	NA	1	0	3.29	1	576.449170238	576.890940251999	"15"	7694.529889783	7689.593782628	1.5	0.1
0.01	1	0.350283644000228	1	32	593.247067935	NA	1	0	3.29	1	577.116923707999	577.467207352	"15"	7694.529889783	7689.593782628	1.5	0.1
0.01	1	0.357446245000574	1	32	593.247067935	NA	1	0	3.29	1	577.701269953	578.058716198	"15"	7694.529889783	7689.593782628	1.5	0.1
0.01	1	0.39751435800008	1	32	593.247067935	NA	1	0	3.29	1	578.285613155	578.683127513	"15"	7694.529889783	7689.593782628	1.5	0.1
0.01	1	0.371964386999935	1	32	593.247067935	NA	1	0	3.29	1	578.919973978	579.291938365	"15"	7694.529889783	7689.593782628	1.5	0.1
0.01	1	0.346665994999967	1	32	593.247067935	NA	1	0	3.29	1	579.520911703	579.867577698	"15"	7694.529889783	7689.593782628	1.5	0.1
0.01	1	0.339868457000193	1	32	593.247067935	NA	1	0	3.29	1	580.088606898	580.428475355	"15"	7694.529889783	7689.593782628	1.5	0.1
0.01	1	0.396374916000241	1	32	593.247067935	NA	1	0	3.29	1	580.656213138	581.052588054	"15"	7694.529889783	7689.593782628	1.5	0.1
0.01	1	0.290022101000432	1	32	593.247067935	NA	1	0	3.29	1	581.290562953	581.580585054	"15"	7694.529889783	7689.593782628	1.5	0.1
0.01	1	0.306729411000561	1	32	593.247067935	NA	1	0	3.29	1	581.808122734999	582.114852146	"15"	7694.529889783	7689.593782628	1.5	0.1
0.01	1	0.308262560999538	1	32	593.247067935	NA	1	0	3.29	1	582.342305405	582.650567965999	"15"	7694.529889783	7689.593782628	1.5	0.1
0.01	1	0.295677967999836	1	32	593.247067935	NA	1	0	3.29	1	582.87661596	583.172293928	"15"	7694.529889783	7689.593782628	1.5	0.1
0.01	1	0.345523820000381	1	32	593.247067935	NA	1	0	3.29	1	583.394174307999	583.739698128	"15"	7694.529889783	7689.593782628	1.5	0.1
0.01	1	0.305188791000546	1	32	593.247067935	NA	1	0	3.29	1	583.961740303	584.266929094	"15"	7694.529889783	7689.593782628	1.5	0.1
0.01	1	0.283999341000708	1	32	593.247067935	NA	1	0	3.29	1	584.496020133	584.780019474	"15"	7694.529889783	7689.593782628	1.5	0.1
0.01	1	0.318175762999999	1	32	593.247067935	NA	1	0	3.29	1	585.013541425	585.331717188	"15"	7694.529889783	7689.593782628	1.5	0.1
0.01	1	0.326782768000157	1	32	593.247067935	NA	1	0	3.29	1	585.564442555	585.891225323	"15"	7694.529889783	7689.593782628	1.5	0.1
0.01	1	0.304909212999519	1	32	593.247067935	NA	1	0	3.29	1	586.115411048	586.420320261	"15"	7694.529889783	7689.593782628	1.5	0.1
0.01	1	0.369601028999568	1	32	593.247067935	NA	1	0	3.29	1	586.649527235	587.019128264	"15"	7694.529889783	7689.593782628	1.5	0.1
0.01	1	0.336375257000327	1	32	593.247067935	NA	1	0	3.29	1	587.250591618	587.586966875	"15"	7694.529889783	7689.593782628	1.5	0.1
0.01	1	0.368854327000008	1	32	593.247067935	NA	1	0	3.29	1	587.818238725	588.187093052	"15"	7694.529889783	7689.593782628	1.5	0.1
0.01	1	0.344634527999915	1	32	593.247067935	NA	1	0	3.29	1	588.419346838	588.763981366	"15"	7694.529889783	7689.593782628	1.5	0.1
0.01	1	0.376467053999477	1	32	593.247067935	NA	1	0	3.29	1	588.9869588	589.363425854	"15"	7694.529889783	7689.593782628	1.5	0.1
0.01	1	0.375698673999977	1	32	593.247067935	NA	1	0	3.29	1	589.587942473	589.963641147	"15"	7694.529889783	7689.593782628	1.5	0.1
0.01	1	2.05472455000017	1	32	593.247067935	NA	1	0	3.29	1	590.188866177999	592.243590728	"15"	7694.529889783	7689.593782628	1.5	0.1
0.01	1	0.663934358999541	1	32	593.247067935	NA	1	0	3.29	1	592.476091918	593.140026276999	"15"	7694.529889783	7689.593782628	1.5	0.1
0.01	1	18.544675481	2	7	NA	613.826932273	0	0	3.29	1	595.280722351999	613.825397832999	"16"	7694.529889783	7689.593782628	1.5	0.1
0.01	1	6.85627041600037	1	49	NA	644.635001363999	0	0.4	3.69	1	615.881999839999	622.738270256	"17"	7694.529889783	7689.593782628	1.5	0.1
0.01	1	0.321105467999587	1	49	NA	644.635001363999	0	0.4	3.69	1	622.977355438	623.298460905999	"17"	7694.529889783	7689.593782628	1.5	0.1
0.01	1	0.353017966000152	1	49	NA	644.635001363999	0	0.4	3.69	1	623.528220978	623.881238944	"17"	7694.529889783	7689.593782628	1.5	0.1
0.01	1	0.394137087000672	1	49	NA	644.635001363999	0	0.4	3.69	1	624.112536924999	624.506674012	"17"	7694.529889783	7689.593782628	1.5	0.1
0.01	1	0.422838645999946	1	49	NA	644.635001363999	0	0.4	3.69	1	624.73022099	625.153059636	"17"	7694.529889783	7689.593782628	1.5	0.1
0.01	1	0.372296770000503	1	49	NA	644.635001363999	0	0.4	3.69	1	625.381472763	625.753769533	"17"	7694.529889783	7689.593782628	1.5	0.1
0.01	1	0.339012737999838	1	49	NA	644.635001363999	0	0.4	3.69	1	625.98241541	626.321428148	"17"	7694.529889783	7689.593782628	1.5	0.1
0.01	1	0.372840220000398	1	49	NA	644.635001363999	0	0.4	3.69	1	626.550003693	626.922843913	"17"	7694.529889783	7689.593782628	1.5	0.1
0.01	1	0.37171396299982	1	49	NA	644.635001363999	0	0.4	3.69	1	627.151001645	627.522715608	"17"	7694.529889783	7689.593782628	1.5	0.1
0.01	1	0.354745094000464	1	49	NA	644.635001363999	0	0.4	3.69	1	627.752126668	628.106871762	"17"	7694.529889783	7689.593782628	1.5	0.1
0.01	1	0.32175394099977	1	49	NA	644.635001363999	0	0.4	3.69	1	628.336447648	628.658201589	"17"	7694.529889783	7689.593782628	1.5	0.1
0.01	1	0.346195518000059	1	49	NA	644.635001363999	0	0.4	3.69	1	628.887293575	629.233489093	"17"	7694.529889783	7689.593782628	1.5	0.1
0.01	1	0.378792798999712	1	49	NA	644.635001363999	0	0.4	3.69	1	629.471647673	629.850440472	"17"	7694.529889783	7689.593782628	1.5	0.1
0.01	1	0.353574009000113	1	49	NA	644.635001363999	0	0.4	3.69	1	630.072567554	630.426141563	"17"	7694.529889783	7689.593782628	1.5	0.1
0.01	1	0.38584040600017	1	49	NA	644.635001363999	0	0.4	3.69	1	630.65699393	631.042834336	"17"	7694.529889783	7689.593782628	1.5	0.1
0.01	1	0.37473510000018	1	49	NA	644.635001363999	0	0.4	3.69	1	631.274732913	631.649468013	"17"	7694.529889783	7689.593782628	1.5	0.1
0.01	1	0.357362746000035	1	49	NA	644.635001363999	0	0.4	3.69	1	631.875613103	632.232975849	"17"	7694.529889783	7689.593782628	1.5	0.1
0.01	1	0.350060341999779	1	49	NA	644.635001363999	0	0.4	3.69	1	632.460001184	632.810061526	"17"	7694.529889783	7689.593782628	1.5	0.1
0.01	1	0.292567290000079	1	49	NA	644.635001363999	0	0.4	3.69	1	633.044422903	633.336990193	"17"	7694.529889783	7689.593782628	1.5	0.1
0.01	1	0.327186673000142	1	49	NA	644.635001363999	0	0.4	3.69	1	633.561816758	633.889003431	"17"	7694.529889783	7689.593782628	1.5	0.1
0.01	1	0.329219399000067	1	49	NA	644.635001363999	0	0.4	3.69	1	634.112780705	634.442000104	"17"	7694.529889783	7689.593782628	1.5	0.1
0.01	1	0.386068886999965	1	49	NA	644.635001363999	0	0.4	3.69	1	634.663683048	635.049751935	"17"	7694.529889783	7689.593782628	1.5	0.1
0.01	1	0.417118870000195	1	49	NA	644.635001363999	0	0.4	3.69	1	635.281353248	635.698472118	"17"	7694.529889783	7689.593782628	1.5	0.1
0.01	1	0.470167386999492	1	49	NA	644.635001363999	0	0.4	3.69	1	635.93252121	636.402688597	"17"	7694.529889783	7689.593782628	1.5	0.1
0.01	1	0.319482134000282	1	49	NA	644.635001363999	0	0.4	3.69	1	636.633716803	636.953198937	"17"	7694.529889783	7689.593782628	1.5	0.1
0.01	1	0.377728022000156	1	49	NA	644.635001363999	0	0.4	3.69	1	637.184566328	637.56229435	"17"	7694.529889783	7689.593782628	1.5	0.1
0.01	1	0.304067326000222	1	49	NA	644.635001363999	0	0.4	3.69	1	637.7857072	638.089774526	"17"	7694.529889783	7689.593782628	1.5	0.1
0.01	1	0.29764232999969	1	49	NA	644.635001363999	0	0.4	3.69	1	638.319861013	638.617503343	"17"	7694.529889783	7689.593782628	1.5	0.1
0.01	1	0.24351648100037	1	49	NA	644.635001363999	0	0.4	3.69	1	638.854048228	639.097564709	"17"	7694.529889783	7689.593782628	1.5	0.1
0.01	1	0.25619134399949	1	49	NA	644.635001363999	0	0.4	3.69	1	639.321519133	639.577710477	"17"	7694.529889783	7689.593782628	1.5	0.1
0.01	1	0.156377663000058	1	49	NA	644.635001363999	0	0.4	3.69	1	639.805647553	639.962025216	"17"	7694.529889783	7689.593782628	1.5	0.1
0.01	1	0.189183027999206	1	49	NA	644.635001363999	0	0.4	3.69	1	640.189600298	640.378783325999	"17"	7694.529889783	7689.593782628	1.5	0.1
0.01	1	0.179015451999476	1	49	NA	644.635001363999	0	0.4	3.69	1	640.606937943	640.785953395	"17"	7694.529889783	7689.593782628	1.5	0.1
0.01	1	0.186559144000057	1	49	NA	644.635001363999	0	0.4	3.69	1	641.007640424999	641.194199568999	"17"	7694.529889783	7689.593782628	1.5	0.1
0.01	1	0.120019151999259	1	49	NA	644.635001363999	0	0.4	3.69	1	641.425095108	641.54511426	"17"	7694.529889783	7689.593782628	1.5	0.1
0.01	1	0.48233142800018	1	49	NA	644.635001363999	0	0.4	3.69	1	641.775578915	642.257910343	"17"	7694.529889783	7689.593782628	1.5	0.1
0.01	1	0.243750248000651	1	49	NA	644.635001363999	0	0.4	3.69	1	642.493496775	642.737247023	"17"	7694.529889783	7689.593782628	1.5	0.1
0.01	1	0.192343261999667	1	49	NA	644.635001363999	0	0.4	3.69	1	642.96095721	643.153300472	"17"	7694.529889783	7689.593782628	1.5	0.1
0.01	1	0.295877864999966	1	49	NA	644.635001363999	0	0.4	3.69	1	643.378406807999	643.674284672999	"17"	7694.529889783	7689.593782628	1.5	0.1
0.01	1	0.249070861999826	1	49	NA	644.635001363999	0	0.4	3.69	1	643.91258526	644.161656122	"17"	7694.529889783	7689.593782628	1.5	0.1
0.01	1	0.236723764999624	2	49	NA	644.635001363999	0	0.4	3.69	1	644.396690525	644.63341429	"17"	7694.529889783	7689.593782628	1.5	0.1
0.01	1	6.47935860699999	1	17	657.43811988	NA	1	0	3.69	1	646.683963548	653.163322155	"18"	7694.529889783	7689.593782628	1.5	0.1
0.01	1	0.136285902999589	1	17	657.43811988	NA	1	0	3.69	1	653.395191085	653.531476988	"18"	7694.529889783	7689.593782628	1.5	0.1
0.01	1	0.15350221099925	1	17	657.43811988	NA	1	0	3.69	1	653.762469483	653.915971693999	"18"	7694.529889783	7689.593782628	1.5	0.1
0.01	1	0.0583318029994189	1	17	657.43811988	NA	1	0	3.69	1	654.146429233	654.204761036	"18"	7694.529889783	7689.593782628	1.5	0.1
0.01	1	0.0220523059997504	1	17	657.43811988	NA	1	0	3.69	1	654.43018784	654.452240146	"18"	7694.529889783	7689.593782628	1.5	0.1
0.01	1	0.0276150999998208	1	17	657.43811988	NA	1	0	3.69	1	654.680688958	654.708304058	"18"	7694.529889783	7689.593782628	1.5	0.1
0.01	1	0.0245711170000504	1	17	657.43811988	NA	1	0	3.69	1	654.931088208	654.955659325	"18"	7694.529889783	7689.593782628	1.5	0.1
0.01	1	0.00384154000039416	1	17	657.43811988	NA	1	0	3.69	1	655.181441547999	655.185283088	"18"	7694.529889783	7689.593782628	1.5	0.1
0.01	1	0.0280741629994736	1	17	657.43811988	NA	1	0	3.69	1	655.415260803	655.443334965999	"18"	7694.529889783	7689.593782628	1.5	0.1
0.01	1	0.0175596349999978	1	17	657.43811988	NA	1	0	3.69	1	655.665817588	655.683377223	"18"	7694.529889783	7689.593782628	1.5	0.1
0.01	1	0.00269023000055313	1	17	657.43811988	NA	1	0	3.69	1	655.916201997999	655.918892228	"18"	7694.529889783	7689.593782628	1.5	0.1
0.01	1	0.0021843690001333	1	17	657.43811988	NA	1	0	3.69	1	656.149877074999	656.152061444	"18"	7694.529889783	7689.593782628	1.5	0.1
0.01	1	0.00219257900062075	1	17	657.43811988	NA	1	0	3.69	1	656.38341523	656.385607809	"18"	7694.529889783	7689.593782628	1.5	0.1
0.01	1	0.00326781599960668	1	17	657.43811988	NA	1	0	3.69	1	656.617321896	656.620589712	"18"	7694.529889783	7689.593782628	1.5	0.1
0.01	1	0.00387328100077866	1	17	657.43811988	NA	1	0	3.69	1	656.850952242999	656.854825524	"18"	7694.529889783	7689.593782628	1.5	0.1
0.01	1	0.00792199100033031	1	17	657.43811988	NA	1	0	3.69	1	657.084702753	657.092624744	"18"	7694.529889783	7689.593782628	1.5	0.1
0.01	1	0.0138437410005281	1	17	657.43811988	NA	1	0	3.69	1	657.318423475	657.332267216	"18"	7694.529889783	7689.593782628	1.5	0.1
0.01	1	7.08378908099985	1	20	674.985215555	NA	1	0	3.69	1	659.471967768	666.555756848999	"19"	7694.529889783	7689.593782628	1.5	0.1
0.01	1	0.163139150999996	1	20	674.985215555	NA	1	0	3.69	1	666.784419455	666.947558606	"19"	7694.529889783	7689.593782628	1.5	0.1
0.01	1	0.217980029000501	1	20	674.985215555	NA	1	0	3.69	1	667.185026378	667.403006407	"19"	7694.529889783	7689.593782628	1.5	0.1
0.01	1	0.224459811000088	1	20	674.985215555	NA	1	0	3.69	1	667.635715812999	667.860175624	"19"	7694.529889783	7689.593782628	1.5	0.1
0.01	1	0.220882691999577	1	20	674.985215555	NA	1	0	3.69	1	668.086510393	668.307393085	"19"	7694.529889783	7689.593782628	1.5	0.1
0.01	1	0.218669927000519	1	20	674.985215555	NA	1	0	3.69	1	668.537334348	668.756004275	"19"	7694.529889783	7689.593782628	1.5	0.1
0.01	1	0.254481759000555	1	20	674.985215555	NA	1	0	3.69	1	668.988126828	669.242608587	"19"	7694.529889783	7689.593782628	1.5	0.1
0.01	1	0.210194413999488	1	20	674.985215555	NA	1	0	3.69	1	669.472223615	669.682418029	"19"	7694.529889783	7689.593782628	1.5	0.1
0.01	1	0.257527632000347	1	20	674.985215555	NA	1	0	3.69	1	669.906311485	670.163839117	"19"	7694.529889783	7689.593782628	1.5	0.1
0.01	1	0.212446089999503	1	20	674.985215555	NA	1	0	3.69	1	670.390469893	670.602915983	"19"	7694.529889783	7689.593782628	1.5	0.1
0.01	1	0.242904831000487	1	20	674.985215555	NA	1	0	3.69	1	670.841128413	671.084033244	"19"	7694.529889783	7689.593782628	1.5	0.1
0.01	1	0.223166591000336	1	20	674.985215555	NA	1	0	3.69	1	671.308559998	671.531726589	"19"	7694.529889783	7689.593782628	1.5	0.1
0.01	1	0.218999754999459	1	20	674.985215555	NA	1	0	3.69	1	671.759441305	671.97844106	"19"	7694.529889783	7689.593782628	1.5	0.1
0.01	1	0.202155234999736	1	20	674.985215555	NA	1	0	3.69	1	672.210130365	672.412285599999	"19"	7694.529889783	7689.593782628	1.5	0.1
0.01	1	0.22371720999945	1	20	674.985215555	NA	1	0	3.69	1	672.644198643	672.867915852999	"19"	7694.529889783	7689.593782628	1.5	0.1
0.01	1	0.189032840000436	1	20	674.985215555	NA	1	0	3.69	1	673.094889163	673.283922003	"19"	7694.529889783	7689.593782628	1.5	0.1
0.01	1	0.195369059999393	1	20	674.985215555	NA	1	0	3.69	1	673.512368638	673.707737698	"19"	7694.529889783	7689.593782628	1.5	0.1
0.01	1	0.169364678999955	1	20	674.985215555	NA	1	0	3.69	1	673.946331618	674.115696297	"19"	7694.529889783	7689.593782628	1.5	0.1
0.01	1	0.160159056999873	1	20	674.985215555	NA	1	0	3.69	1	674.347031478	674.507190535	"19"	7694.529889783	7689.593782628	1.5	0.1
0.01	1	0.143568665000203	1	20	674.985215555	NA	1	0	3.69	1	674.730957465	674.87452613	"19"	7694.529889783	7689.593782628	1.5	0.1
0.01	1	7.68662889700045	1	21	695.335227068	NA	1	0	3.69	1	677.018339306	684.704968203	"20"	7694.529889783	7689.593782628	1.5	0.1
0.01	1	0.742703513999913	1	21	695.335227068	NA	1	0	3.69	1	684.931580458	685.674283972	"20"	7694.529889783	7689.593782628	1.5	0.1
0.01	1	0.229300615000284	1	21	695.335227068	NA	1	0	3.69	1	685.899868428	686.129169043	"20"	7694.529889783	7689.593782628	1.5	0.1
0.01	1	0.258273894999547	1	21	695.335227068	NA	1	0	3.69	1	686.367296493	686.625570388	"20"	7694.529889783	7689.593782628	1.5	0.1
0.01	1	0.213924323000356	1	21	695.335227068	NA	1	0	3.69	1	686.851392713	687.065317036	"20"	7694.529889783	7689.593782628	1.5	0.1
0.01	1	0.179732815000534	1	21	695.335227068	NA	1	0	3.69	1	687.302186944999	687.48191976	"20"	7694.529889783	7689.593782628	1.5	0.1
0.01	1	0.23329071399985	1	21	695.335227068	NA	1	0	3.69	1	687.719528173	687.952818887	"20"	7694.529889783	7689.593782628	1.5	0.1
0.01	1	0.229677801999969	1	21	695.335227068	NA	1	0	3.69	1	688.187209733	688.416887535	"20"	7694.529889783	7689.593782628	1.5	0.1
0.01	1	0.226331716999994	1	21	695.335227068	NA	1	0	3.69	1	688.65443052	688.880762237	"20"	7694.529889783	7689.593782628	1.5	0.1
0.01	1	0.223967420000008	1	21	695.335227068	NA	1	0	3.69	1	689.105153275	689.329120695	"20"	7694.529889783	7689.593782628	1.5	0.1
0.01	1	0.244911744000092	1	21	695.335227068	NA	1	0	3.69	1	689.556052843	689.800964587	"20"	7694.529889783	7689.593782628	1.5	0.1
0.01	1	0.216544849000456	1	21	695.335227068	NA	1	0	3.69	1	690.040086315	690.256631164	"20"	7694.529889783	7689.593782628	1.5	0.1
0.01	1	0.198969914000372	1	21	695.335227068	NA	1	0	3.69	1	690.490843424	690.689813338	"20"	7694.529889783	7689.593782628	1.5	0.1
0.01	1	0.212044734000301	1	21	695.335227068	NA	1	0	3.69	1	690.924868953	691.136913687	"20"	7694.529889783	7689.593782628	1.5	0.1
0.01	1	0.194559792999826	1	21	695.335227068	NA	1	0	3.69	1	691.358941648	691.553501441	"20"	7694.529889783	7689.593782628	1.5	0.1
0.01	1	0.201091742000244	1	21	695.335227068	NA	1	0	3.69	1	691.776340167999	691.97743191	"20"	7694.529889783	7689.593782628	1.5	0.1
0.01	1	0.223452116000772	1	21	695.335227068	NA	1	0	3.69	1	692.210325399999	692.433777516	"20"	7694.529889783	7689.593782628	1.5	0.1
0.01	1	0.179642557000079	1	21	695.335227068	NA	1	0	3.69	1	692.661225398	692.840867955	"20"	7694.529889783	7689.593782628	1.5	0.1
0.01	1	0.187792176000585	1	21	695.335227068	NA	1	0	3.69	1	693.078594608	693.266386784	"20"	7694.529889783	7689.593782628	1.5	0.1
0.01	1	0.329759752999962	1	21	695.335227068	NA	1	0	3.69	1	693.495955154	693.825714907	"20"	7694.529889783	7689.593782628	1.5	0.1
0.01	1	1.15423198999997	1	21	695.335227068	NA	1	0	3.69	1	694.063598246	695.217830236	"20"	7694.529889783	7689.593782628	1.5	0.1
0.01	1	14.1972203610003	1	26	728.491181223	NA	1	0	3.69	1	697.385752388	711.582972749	"21"	7694.529889783	7689.593782628	1.5	0.1
0.01	1	0.220319355999891	1	26	728.491181223	NA	1	0	3.69	1	711.810127708	712.030447063999	"21"	7694.529889783	7689.593782628	1.5	0.1
0.01	1	0.305646671000432	1	26	728.491181223	NA	1	0	3.69	1	712.260827495	712.566474166	"21"	7694.529889783	7689.593782628	1.5	0.1
0.01	1	0.308881949999886	1	26	728.491181223	NA	1	0	3.69	1	712.795057368	713.103939318	"21"	7694.529889783	7689.593782628	1.5	0.1
0.01	1	0.310009793000063	1	26	728.491181223	NA	1	0	3.69	1	713.329221565	713.639231358	"21"	7694.529889783	7689.593782628	1.5	0.1
0.01	1	0.272271505999925	1	26	728.491181223	NA	1	0	3.69	1	713.863543933	714.135815439	"21"	7694.529889783	7689.593782628	1.5	0.1
0.01	1	0.314784993999638	1	26	728.491181223	NA	1	0	3.69	1	714.364315568	714.679100562	"21"	7694.529889783	7689.593782628	1.5	0.1
0.01	1	0.284700053000051	1	26	728.491181223	NA	1	0	3.69	1	714.915263503	715.199963556	"21"	7694.529889783	7689.593782628	1.5	0.1
0.01	1	0.294986742000219	1	26	728.491181223	NA	1	0	3.69	1	715.432780228	715.72776697	"21"	7694.529889783	7689.593782628	1.5	0.1
0.01	1	0.273902975000055	1	26	728.491181223	NA	1	0	3.69	1	715.950356493	716.224259468	"21"	7694.529889783	7689.593782628	1.5	0.1
0.01	1	2.96524981099992	1	26	728.491181223	NA	1	0	3.69	1	716.451238346	719.416488157	"21"	7694.529889783	7689.593782628	1.5	0.1
0.01	1	1.49454395400062	1	26	728.491181223	NA	1	0	3.69	1	719.656608292999	721.151152247	"21"	7694.529889783	7689.593782628	1.5	0.1
0.01	1	0.342426717000308	1	26	728.491181223	NA	1	0	3.69	1	721.376084349999	721.718511067	"21"	7694.529889783	7689.593782628	1.5	0.1
0.01	1	0.479844200000116	1	26	728.491181223	NA	1	0	3.69	1	721.943762348	722.423606548	"21"	7694.529889783	7689.593782628	1.5	0.1
0.01	1	0.354435010000088	1	26	728.491181223	NA	1	0	3.69	1	722.661646345	723.016081355	"21"	7694.529889783	7689.593782628	1.5	0.1
0.01	1	0.312938267999925	1	26	728.491181223	NA	1	0	3.69	1	723.246023528	723.558961795999	"21"	7694.529889783	7689.593782628	1.5	0.1
0.01	1	0.282933672999206	1	26	728.491181223	NA	1	0	3.69	1	723.796890163	724.079823835999	"21"	7694.529889783	7689.593782628	1.5	0.1
0.01	1	0.285791089000668	1	26	728.491181223	NA	1	0	3.69	1	724.314499435	724.600290524	"21"	7694.529889783	7689.593782628	1.5	0.1
0.01	1	0.262812650000342	1	26	728.491181223	NA	1	0	3.69	1	724.831965283	725.094777933	"21"	7694.529889783	7689.593782628	1.5	0.1
0.01	1	0.282832990000315	1	26	728.491181223	NA	1	0	3.69	1	725.332796133	725.615629123	"21"	7694.529889783	7689.593782628	1.5	0.1
0.01	1	0.333879591999903	1	26	728.491181223	NA	1	0	3.69	1	725.850449588	726.18432918	"21"	7694.529889783	7689.593782628	1.5	0.1
0.01	1	0.237607435999962	1	26	728.491181223	NA	1	0	3.69	1	726.418028765	726.655636201	"21"	7694.529889783	7689.593782628	1.5	0.1
0.01	1	0.234650774999864	1	26	728.491181223	NA	1	0	3.69	1	726.885427778	727.120078553	"21"	7694.529889783	7689.593782628	1.5	0.1
0.01	1	0.19141129900072	1	26	728.491181223	NA	1	0	3.69	1	727.352799972999	727.544211272	"21"	7694.529889783	7689.593782628	1.5	0.1
0.01	1	0.188918900999852	1	26	728.491181223	NA	1	0	3.69	1	727.770288805	727.959207706	"21"	7694.529889783	7689.593782628	1.5	0.1
0.01	1	0.188411407999411	1	26	728.491181223	NA	1	0	3.69	1	728.187589055	728.376000462999	"21"	7694.529889783	7689.593782628	1.5	0.1
0.01	1	36.4503413500006	1	97	NA	771.681556953	0	0.15	3.84	1	730.541544225	766.991885575	"22"	7694.529889783	7689.593782628	1.5	0.1
0.01	1	0.0755556699996305	1	97	NA	771.681556953	0	0.15	3.84	1	767.219874458	767.295430128	"22"	7694.529889783	7689.593782628	1.5	0.1
0.01	1	0.167550454000775	1	97	NA	771.681556953	0	0.15	3.84	1	767.520431432999	767.687981887	"22"	7694.529889783	7689.593782628	1.5	0.1
0.01	1	0.0942916190006144	1	97	NA	771.681556953	0	0.15	3.84	1	767.921086793	768.015378412	"22"	7694.529889783	7689.593782628	1.5	0.1
0.01	1	0.0899695359994439	1	97	NA	771.681556953	0	0.15	3.84	1	768.238270156	768.328239691999	"22"	7694.529889783	7689.593782628	1.5	0.1
0.01	1	0.083588683999551	1	97	NA	771.681556953	0	0.15	3.84	1	768.555535663	768.639124347	"22"	7694.529889783	7689.593782628	1.5	0.1
0.01	1	0.0627183209999203	1	97	NA	771.681556953	0	0.15	3.84	1	768.872690875	768.935409195999	"22"	7694.529889783	7689.593782628	1.5	0.1
0.01	1	0.0504962739996699	1	97	NA	771.681556953	0	0.15	3.84	1	769.173234123	769.223730397	"22"	7694.529889783	7689.593782628	1.5	0.1
0.01	1	0.095801926000604	1	97	NA	771.681556953	0	0.15	3.84	1	769.456959497999	769.552761424	"22"	7694.529889783	7689.593782628	1.5	0.1
0.01	1	0.0653036210005666	1	97	NA	771.681556953	0	0.15	3.84	1	769.790920168	769.856223789	"22"	7694.529889783	7689.593782628	1.5	0.1
0.01	1	0.0447066460001224	1	97	NA	771.681556953	0	0.15	3.84	1	770.091328867999	770.136035514	"22"	7694.529889783	7689.593782628	1.5	0.1
0.01	1	0.0402406530001826	1	97	NA	771.681556953	0	0.15	3.84	1	770.358548308	770.398788961	"22"	7694.529889783	7689.593782628	1.5	0.1
0.01	1	0.0545456389991159	1	97	NA	771.681556953	0	0.15	3.84	1	770.625586113	770.680131751999	"22"	7694.529889783	7689.593782628	1.5	0.1
0.01	1	0.0354367609998008	1	97	NA	771.681556953	0	0.15	3.84	1	770.90942758	770.944864341	"22"	7694.529889783	7689.593782628	1.5	0.1
0.01	1	0.0719983150002008	1	97	NA	771.681556953	0	0.15	3.84	1	771.176603418	771.248601733	"22"	7694.529889783	7689.593782628	1.5	0.1
0.01	1	0.202923958000611	2	97	NA	771.681556953	0	0.15	3.84	1	771.477103578	771.680027536	"22"	7694.529889783	7689.593782628	1.5	0.1
0.01	1	0.445409798999208	1	118	NA	785.697350806	0	0.3	4.14	1	773.714134517	774.159544315999	"23"	7694.529889783	7689.593782628	1.5	0.1
0.01	1	0.170071222999468	1	118	NA	785.697350806	0	0.3	4.14	1	774.381984163	774.552055386	"23"	7694.529889783	7689.593782628	1.5	0.1
0.01	1	0.112373519999892	1	118	NA	785.697350806	0	0.3	4.14	1	774.782693438	774.895066958	"23"	7694.529889783	7689.593782628	1.5	0.1
0.01	1	0.0989174390006156	1	118	NA	785.697350806	0	0.3	4.14	1	775.133245907999	775.232163347	"23"	7694.529889783	7689.593782628	1.5	0.1
0.01	1	0.0770425959999557	1	118	NA	785.697350806	0	0.3	4.14	1	775.467147848	775.544190443999	"23"	7694.529889783	7689.593782628	1.5	0.1
0.01	1	0.0650347049995617	1	118	NA	785.697350806	0	0.3	4.14	1	775.767585433	775.832620138	"23"	7694.529889783	7689.593782628	1.5	0.1
0.01	1	0.0427858129996821	1	118	NA	785.697350806	0	0.3	4.14	1	776.06814238	776.110928192999	"23"	7694.529889783	7689.593782628	1.5	0.1
0.01	1	0.081211350000558	1	118	NA	785.697350806	0	0.3	4.14	1	776.335218103	776.416429453	"23"	7694.529889783	7689.593782628	1.5	0.1
0.01	1	0.0911094860002777	1	118	NA	785.697350806	0	0.3	4.14	1	776.652543757999	776.743653244	"23"	7694.529889783	7689.593782628	1.5	0.1
0.01	1	0.0785519399996701	1	118	NA	785.697350806	0	0.3	4.14	1	776.969700243	777.048252183	"23"	7694.529889783	7689.593782628	1.5	0.1
0.01	1	0.0809128219998456	1	118	NA	785.697350806	0	0.3	4.14	1	777.270195723	777.351108545	"23"	7694.529889783	7689.593782628	1.5	0.1
0.01	1	0.0519592750006268	1	118	NA	785.697350806	0	0.3	4.14	1	777.587362542999	777.639321818	"23"	7694.529889783	7689.593782628	1.5	0.1
0.01	1	0.0886058739997679	1	118	NA	785.697350806	0	0.3	4.14	1	777.87113271	777.959738584	"23"	7694.529889783	7689.593782628	1.5	0.1
0.01	1	0.0670645110003534	1	118	NA	785.697350806	0	0.3	4.14	1	778.188420736	778.255485247	"23"	7694.529889783	7689.593782628	1.5	0.1
0.01	1	0.0549604309999268	1	118	NA	785.697350806	0	0.3	4.14	1	778.488863925	778.543824356	"23"	7694.529889783	7689.593782628	1.5	0.1
0.01	1	0.0663951320002525	1	118	NA	785.697350806	0	0.3	4.14	1	778.772717643	778.839112775	"23"	7694.529889783	7689.593782628	1.5	0.1
0.01	1	0.0536978540003474	1	118	NA	785.697350806	0	0.3	4.14	1	779.073097273	779.126795127	"23"	7694.529889783	7689.593782628	1.5	0.1
0.01	1	0.058830312000282	1	118	NA	785.697350806	0	0.3	4.14	1	779.356984735	779.415815047	"23"	7694.529889783	7689.593782628	1.5	0.1
0.01	1	0.110012363999886	1	118	NA	785.697350806	0	0.3	4.14	1	779.64073026	779.750742624	"23"	7694.529889783	7689.593782628	1.5	0.1
0.01	1	0.425810983999327	1	118	NA	785.697350806	0	0.3	4.14	1	779.974677338	780.400488322	"23"	7694.529889783	7689.593782628	1.5	0.1
0.01	1	0.566644859000007	1	118	NA	785.697350806	0	0.3	4.14	1	780.625777892999	781.192422751999	"23"	7694.529889783	7689.593782628	1.5	0.1
0.01	1	0.116419754999697	1	118	NA	785.697350806	0	0.3	4.14	1	781.427157438	781.543577193	"23"	7694.529889783	7689.593782628	1.5	0.1
0.01	1	0.126842128000135	1	118	NA	785.697350806	0	0.3	4.14	1	781.77775203	781.904594158	"23"	7694.529889783	7689.593782628	1.5	0.1
0.01	1	0.127789258000121	1	118	NA	785.697350806	0	0.3	4.14	1	782.128334507	782.256123765	"23"	7694.529889783	7689.593782628	1.5	0.1
0.01	1	0.121318842000619	1	118	NA	785.697350806	0	0.3	4.14	1	782.478947645	782.600266487	"23"	7694.529889783	7689.593782628	1.5	0.1
0.01	1	0.122794167999928	1	118	NA	785.697350806	0	0.3	4.14	1	782.829563028	782.952357196	"23"	7694.529889783	7689.593782628	1.5	0.1
0.01	1	0.163648763999845	1	118	NA	785.697350806	0	0.3	4.14	1	783.1800812	783.343729964	"23"	7694.529889783	7689.593782628	1.5	0.1
0.01	1	0.11472345600032	1	118	NA	785.697350806	0	0.3	4.14	1	783.580784887999	783.695508344	"23"	7694.529889783	7689.593782628	1.5	0.1
0.01	1	0.0843556849995366	1	118	NA	785.697350806	0	0.3	4.14	1	783.931366703	784.015722388	"23"	7694.529889783	7689.593782628	1.5	0.1
0.01	1	0.086585142000331	1	118	NA	785.697350806	0	0.3	4.14	1	784.248484688	784.33506983	"23"	7694.529889783	7689.593782628	1.5	0.1
0.01	1	1.13002894300007	2	118	NA	785.697350806	0	0.3	4.14	1	784.565797063	785.695826006	"23"	7694.529889783	7689.593782628	1.5	0.1
0.01	1	0.837960172999374	1	100	NA	796.417415762	0	0.2	4.34	1	787.737768873	788.575729046	"24"	7694.529889783	7689.593782628	1.5	0.1
0.01	1	0.21009648800009	1	100	NA	796.417415762	0	0.2	4.34	1	788.806302538	789.016399026	"24"	7694.529889783	7689.593782628	1.5	0.1
0.01	1	0.239321645000018	1	100	NA	796.417415762	0	0.2	4.34	1	789.240202575	789.47952422	"24"	7694.529889783	7689.593782628	1.5	0.1
0.01	1	0.17935702000068	1	100	NA	796.417415762	0	0.2	4.34	1	789.707759288	789.887116308	"24"	7694.529889783	7689.593782628	1.5	0.1
0.01	1	0.130051602000094	1	100	NA	796.417415762	0	0.2	4.34	1	790.125101215	790.255152817	"24"	7694.529889783	7689.593782628	1.5	0.1
0.01	1	0.146844910999789	1	100	NA	796.417415762	0	0.2	4.34	1	790.492378755	790.639223665999	"24"	7694.529889783	7689.593782628	1.5	0.1
0.01	1	0.140536654999778	1	100	NA	796.417415762	0	0.2	4.34	1	790.876308583	791.016845237999	"24"	7694.529889783	7689.593782628	1.5	0.1
0.01	1	0.179623070000162	1	100	NA	796.417415762	0	0.2	4.34	1	791.243598358	791.423221428	"24"	7694.529889783	7689.593782628	1.5	0.1
0.01	1	0.131531428000017	1	100	NA	796.417415762	0	0.2	4.34	1	791.661042228	791.792573656	"24"	7694.529889783	7689.593782628	1.5	0.1
0.01	1	0.131018252000104	1	100	NA	796.417415762	0	0.2	4.34	1	792.028286113	792.159304365	"24"	7694.529889783	7689.593782628	1.5	0.1
0.01	1	0.139615830999901	1	100	NA	796.417415762	0	0.2	4.34	1	792.395548813	792.535164643999	"24"	7694.529889783	7689.593782628	1.5	0.1
0.01	1	0.164256000999558	1	100	NA	796.417415762	0	0.2	4.34	1	792.762817947	792.927073948	"24"	7694.529889783	7689.593782628	1.5	0.1
0.01	1	0.116349338999498	1	100	NA	796.417415762	0	0.2	4.34	1	793.163494913	793.279844252	"24"	7694.529889783	7689.593782628	1.5	0.1
0.01	1	0.181681809000111	1	100	NA	796.417415762	0	0.2	4.34	1	793.514133953	793.695815762	"24"	7694.529889783	7689.593782628	1.5	0.1
0.01	1	0.107559457000207	1	100	NA	796.417415762	0	0.2	4.34	1	793.931418823	794.03897828	"24"	7694.529889783	7689.593782628	1.5	0.1
0.01	1	0.151262303000294	1	100	NA	796.417415762	0	0.2	4.34	1	794.265424978	794.416687281	"24"	7694.529889783	7689.593782628	1.5	0.1
0.01	1	0.141635197999676	1	100	NA	796.417415762	0	0.2	4.34	1	794.649612118	794.791247315999	"24"	7694.529889783	7689.593782628	1.5	0.1
0.01	1	0.159508773000198	1	100	NA	796.417415762	0	0.2	4.34	1	795.016695419999	795.176204193	"24"	7694.529889783	7689.593782628	1.5	0.1
0.01	1	0.134332897000604	1	100	NA	796.417415762	0	0.2	4.34	1	795.40067795	795.535010847	"24"	7694.529889783	7689.593782628	1.5	0.1
0.01	1	0.0955736249998154	1	100	NA	796.417415762	0	0.2	4.34	1	795.767957008	795.863530633	"24"	7694.529889783	7689.593782628	1.5	0.1
0.01	1	0.31407650500023	2	100	NA	796.417415762	0	0.2	4.34	1	796.10177178	796.415848285	"24"	7694.529889783	7689.593782628	1.5	0.1
0.01	1	0.224421488000189	1	46	NA	806.066184935	0	0.2	4.54	1	798.455798513	798.680220001	"25"	7694.529889783	7689.593782628	1.5	0.1
0.01	1	0.236963776999801	1	46	NA	806.066184935	0	0.2	4.54	1	798.906492923	799.1434567	"25"	7694.529889783	7689.593782628	1.5	0.1
0.01	1	0.178407480000715	1	46	NA	806.066184935	0	0.2	4.54	1	799.374058943999	799.552466424	"25"	7694.529889783	7689.593782628	1.5	0.1
0.01	1	0.168278489999466	1	46	NA	806.066184935	0	0.2	4.54	1	799.774677837	799.942956327	"25"	7694.529889783	7689.593782628	1.5	0.1
0.01	1	0.105148728999666	1	46	NA	806.066184935	0	0.2	4.54	1	800.175208928	800.280357657	"25"	7694.529889783	7689.593782628	1.5	0.1
0.01	1	0.081720041999688	1	46	NA	806.066184935	0	0.2	4.54	1	800.509174768	800.59089481	"25"	7694.529889783	7689.593782628	1.5	0.1
0.01	1	0.0930928289999429	1	46	NA	806.066184935	0	0.2	4.54	1	800.826472143	800.919564972	"25"	7694.529889783	7689.593782628	1.5	0.1
0.01	1	0.0962559520003197	1	46	NA	806.066184935	0	0.2	4.54	1	801.143582158	801.23983811	"25"	7694.529889783	7689.593782628	1.5	0.1
0.01	1	0.0828037250003035	1	46	NA	806.066184935	0	0.2	4.54	1	801.47755669	801.560360415	"25"	7694.529889783	7689.593782628	1.5	0.1
0.01	1	0.0853510999995706	1	46	NA	806.066184935	0	0.2	4.54	1	801.794750903	801.880102003	"25"	7694.529889783	7689.593782628	1.5	0.1
0.01	1	0.104249066999728	1	46	NA	806.066184935	0	0.2	4.54	1	802.111894703	802.21614377	"25"	7694.529889783	7689.593782628	1.5	0.1
0.01	1	0.0735058550008034	1	46	NA	806.066184935	0	0.2	4.54	1	802.445980177999	802.519486033	"25"	7694.529889783	7689.593782628	1.5	0.1
0.01	1	0.101151120000395	1	46	NA	806.066184935	0	0.2	4.54	1	802.746269695	802.847420815	"25"	7694.529889783	7689.593782628	1.5	0.1
0.01	1	0.0877142279996406	1	46	NA	806.066184935	0	0.2	4.54	1	803.08017636	803.167890588	"25"	7694.529889783	7689.593782628	1.5	0.1
0.01	1	0.0985364569996818	1	46	NA	806.066184935	0	0.2	4.54	1	803.397358125	803.495894582	"25"	7694.529889783	7689.593782628	1.5	0.1
0.01	1	0.0837930500001676	1	46	NA	806.066184935	0	0.2	4.54	1	803.731330343	803.815123393	"25"	7694.529889783	7689.593782628	1.5	0.1
0.01	1	0.0962455720000435	1	46	NA	806.066184935	0	0.2	4.54	1	804.048475283	804.144720855	"25"	7694.529889783	7689.593782628	1.5	0.1
0.01	1	0.0582343329997457	1	46	NA	806.066184935	0	0.2	4.54	1	804.382408793	804.440643125999	"25"	7694.529889783	7689.593782628	1.5	0.1
0.01	1	0.0936544769992906	1	46	NA	806.066184935	0	0.2	4.54	1	804.666191215	804.759845692	"25"	7694.529889783	7689.593782628	1.5	0.1
0.01	1	0.0959240050005974	1	46	NA	806.066184935	0	0.2	4.54	1	804.983453592999	805.079377598	"25"	7694.529889783	7689.593782628	1.5	0.1
0.01	1	0.747292944000037	2	46	NA	806.066184935	0	0.2	4.54	1	805.317335005	806.064627949	"25"	7694.529889783	7689.593782628	1.5	0.1
0.01	1	0.533173732999785	1	102	NA	822.616732232	0	0.4	4.94	1	808.12205708	808.655230812999	"26"	7694.529889783	7689.593782628	1.5	0.1
0.01	1	0.134354656000141	1	102	NA	822.616732232	0	0.4	4.94	1	808.890036168	809.024390824	"26"	7694.529889783	7689.593782628	1.5	0.1
