"payoff.level"	"balloon"	"rt"	"resp"	"explode.trial"	"explode.time"	"finish.time"	"exploded"	"trial.total"	"cumulative.total"	"finished"	"trial.start"	"trial.end"	"trial.num"	"secs"	"start.time"	"iti"	"isi"
0.01	1	0.876409155999909	1	64	NA	25.3306020560001	0	0.57	0.57	1	0.011940887000037	0.888350042999946	"1"	2140.457783063	2137.943401199	1.5	0.1
0.01	1	0.704494574000137	1	64	NA	25.3306020560001	0	0.57	0.57	1	1.24736480499996	1.9518593790001	"1"	2140.457783063	2137.943401199	1.5	0.1
0.01	1	0.441059578000022	1	64	NA	25.3306020560001	0	0.57	0.57	1	2.18236053400005	2.62342011200008	"1"	2140.457783063	2137.943401199	1.5	0.1
0.01	1	0.518915470000138	1	64	NA	25.3306020560001	0	0.57	0.57	1	2.85014763899994	3.36906310900008	"1"	2140.457783063	2137.943401199	1.5	0.1
0.01	1	0.398404707000054	1	64	NA	25.3306020560001	0	0.57	0.57	1	3.60138903200004	3.9997937390001	"1"	2140.457783063	2137.943401199	1.5	0.1
0.01	1	0.444294917999969	1	64	NA	25.3306020560001	0	0.57	0.57	1	4.23589094199997	4.68018585999994	"1"	2140.457783063	2137.943401199	1.5	0.1
0.01	1	0.361208505999912	1	64	NA	25.3306020560001	0	0.57	0.57	1	4.9034882630001	5.26469676900001	"1"	2140.457783063	2137.943401199	1.5	0.1
0.01	1	0.327522095999939	1	64	NA	25.3306020560001	0	0.57	0.57	1	5.48798125899998	5.81550335499992	"1"	2140.457783063	2137.943401199	1.5	0.1
0.01	1	0.537686930000064	1	64	NA	25.3306020560001	0	0.57	0.57	1	6.03879932399991	6.57648625399997	"1"	2140.457783063	2137.943401199	1.5	0.1
0.01	1	0.360625501000186	1	64	NA	25.3306020560001	0	0.57	0.57	1	6.80677984699992	7.1674053480001	"1"	2140.457783063	2137.943401199	1.5	0.1
0.01	1	0.145736980000038	1	64	NA	25.3306020560001	0	0.57	0.57	1	7.39109196200002	7.53682894200006	"1"	2140.457783063	2137.943401199	1.5	0.1
0.01	1	0.0658462740000232	1	64	NA	25.3306020560001	0	0.57	0.57	1	7.77507303700008	7.84091931100011	"1"	2140.457783063	2137.943401199	1.5	0.1
0.01	1	0.117635430000064	1	64	NA	25.3306020560001	0	0.57	0.57	1	8.07553370400001	8.19316913400007	"1"	2140.457783063	2137.943401199	1.5	0.1
0.01	1	0.326893499000107	1	64	NA	25.3306020560001	0	0.57	0.57	1	8.42616483699999	8.75305833600009	"1"	2140.457783063	2137.943401199	1.5	0.1
0.01	1	0.0541397409999718	1	64	NA	25.3306020560001	0	0.57	0.57	1	8.97717978700007	9.03131952800004	"1"	2140.457783063	2137.943401199	1.5	0.1
0.01	1	0.00327074999995602	1	64	NA	25.3306020560001	0	0.57	0.57	1	9.26094396100007	9.26421471100002	"1"	2140.457783063	2137.943401199	1.5	0.1
0.01	1	0.0261099630001809	1	64	NA	25.3306020560001	0	0.57	0.57	1	9.49467420399992	9.5207841670001	"1"	2140.457783063	2137.943401199	1.5	0.1
0.01	1	0.00380652300009388	1	64	NA	25.3306020560001	0	0.57	0.57	1	9.74500694199992	9.74881346500001	"1"	2140.457783063	2137.943401199	1.5	0.1
0.01	1	0.0449623940000947	1	64	NA	25.3306020560001	0	0.57	0.57	1	9.9787652739999	10.023727668	"1"	2140.457783063	2137.943401199	1.5	0.1
0.01	1	0.01755781199995	1	64	NA	25.3306020560001	0	0.57	0.57	1	10.2458751490001	10.263432961	"1"	2140.457783063	2137.943401199	1.5	0.1
0.01	1	0.207591265000019	1	64	NA	25.3306020560001	0	0.57	0.57	1	10.496190927	10.7037821920001	"1"	2140.457783063	2137.943401199	1.5	0.1
0.01	1	0.317272635000108	1	64	NA	25.3306020560001	0	0.57	0.57	1	10.930380044	11.2476526790001	"1"	2140.457783063	2137.943401199	1.5	0.1
0.01	1	0.00364022899998417	1	64	NA	25.3306020560001	0	0.57	0.57	1	11.481226314	11.484866543	"1"	2140.457783063	2137.943401199	1.5	0.1
0.01	1	0.00346994699998504	1	64	NA	25.3306020560001	0	0.57	0.57	1	11.714959294	11.718429241	"1"	2140.457783063	2137.943401199	1.5	0.1
0.01	1	0.00395845499997449	1	64	NA	25.3306020560001	0	0.57	0.57	1	11.948780334	11.952738789	"1"	2140.457783063	2137.943401199	1.5	0.1
0.01	1	0.00386235799987844	1	64	NA	25.3306020560001	0	0.57	0.57	1	12.1824684590001	12.186330817	"1"	2140.457783063	2137.943401199	1.5	0.1
0.01	1	0.696254645999943	1	64	NA	25.3306020560001	0	0.57	0.57	1	12.4162436920001	13.112498338	"1"	2140.457783063	2137.943401199	1.5	0.1
0.01	1	0.114895264999859	1	64	NA	25.3306020560001	0	0.57	0.57	1	13.334360217	13.4492554819999	"1"	2140.457783063	2137.943401199	1.5	0.1
0.01	1	0.123993293000012	1	64	NA	25.3306020560001	0	0.57	0.57	1	13.6850073620001	13.8090006550001	"1"	2140.457783063	2137.943401199	1.5	0.1
0.01	1	0.205402317999869	1	64	NA	25.3306020560001	0	0.57	0.57	1	14.0355814540001	14.2409837719999	"1"	2140.457783063	2137.943401199	1.5	0.1
0.01	1	0.114680499999849	1	64	NA	25.3306020560001	0	0.57	0.57	1	14.4697024120001	14.5843829119999	"1"	2140.457783063	2137.943401199	1.5	0.1
0.01	1	0.0115911329999108	1	64	NA	25.3306020560001	0	0.57	0.57	1	14.8202099820001	14.831801115	"1"	2140.457783063	2137.943401199	1.5	0.1
0.01	1	0.0335276349999276	1	64	NA	25.3306020560001	0	0.57	0.57	1	15.053994394	15.087522029	"1"	2140.457783063	2137.943401199	1.5	0.1
0.01	1	0.0227703169998676	1	64	NA	25.3306020560001	0	0.57	0.57	1	15.3210774520001	15.3438477689999	"1"	2140.457783063	2137.943401199	1.5	0.1
0.01	1	0.956583424999963	1	64	NA	25.3306020560001	0	0.57	0.57	1	15.571461407	16.528044832	"1"	2140.457783063	2137.943401199	1.5	0.1
0.01	1	0.707101426000008	1	64	NA	25.3306020560001	0	0.57	0.57	1	16.756904999	17.464006425	"1"	2140.457783063	2137.943401199	1.5	0.1
0.01	1	0.33290719699994	1	64	NA	25.3306020560001	0	0.57	0.57	1	17.691671604	18.024578801	"1"	2140.457783063	2137.943401199	1.5	0.1
0.01	1	0.373013041999911	1	64	NA	25.3306020560001	0	0.57	0.57	1	18.2593276590001	18.632340701	"1"	2140.457783063	2137.943401199	1.5	0.1
0.01	1	0.348925330999919	1	64	NA	25.3306020560001	0	0.57	0.57	1	18.860315227	19.2092405579999	"1"	2140.457783063	2137.943401199	1.5	0.1
0.01	1	0.0285964250001598	1	64	NA	25.3306020560001	0	0.57	0.57	1	19.4446965039999	19.4732929290001	"1"	2140.457783063	2137.943401199	1.5	0.1
0.01	1	0.00392343499993331	1	64	NA	25.3306020560001	0	0.57	0.57	1	19.7116840220001	19.715607457	"1"	2140.457783063	2137.943401199	1.5	0.1
0.01	1	0.00246351100008724	1	64	NA	25.3306020560001	0	0.57	0.57	1	19.945530811	19.9479943220001	"1"	2140.457783063	2137.943401199	1.5	0.1
0.01	1	0.0216187260000424	1	64	NA	25.3306020560001	0	0.57	0.57	1	20.1792730449999	20.200891771	"1"	2140.457783063	2137.943401199	1.5	0.1
0.01	1	0.033752530999891	1	64	NA	25.3306020560001	0	0.57	0.57	1	20.4296621640001	20.463414695	"1"	2140.457783063	2137.943401199	1.5	0.1
0.01	1	0.0394795270001396	1	64	NA	25.3306020560001	0	0.57	0.57	1	20.6968187289999	20.7362982560001	"1"	2140.457783063	2137.943401199	1.5	0.1
0.01	1	0.548707685999943	1	64	NA	25.3306020560001	0	0.57	0.57	1	20.9639204570001	21.512628143	"1"	2140.457783063	2137.943401199	1.5	0.1
0.01	1	0.0435410280001634	1	64	NA	25.3306020560001	0	0.57	0.57	1	21.7485353039999	21.7920763320001	"1"	2140.457783063	2137.943401199	1.5	0.1
0.01	1	0.04865547899999	1	64	NA	25.3306020560001	0	0.57	0.57	1	22.0157560120001	22.0644114910001	"1"	2140.457783063	2137.943401199	1.5	0.1
0.01	1	0.0210220679998656	1	64	NA	25.3306020560001	0	0.57	0.57	1	22.2995881270001	22.320610195	"1"	2140.457783063	2137.943401199	1.5	0.1
0.01	1	0.0351200969998899	1	64	NA	25.3306020560001	0	0.57	0.57	1	22.549893267	22.5850133639999	"1"	2140.457783063	2137.943401199	1.5	0.1
0.01	1	0.0225231930000973	1	64	NA	25.3306020560001	0	0.57	0.57	1	22.817077272	22.8396004650001	"1"	2140.457783063	2137.943401199	1.5	0.1
0.01	1	0.0372677230000136	1	64	NA	25.3306020560001	0	0.57	0.57	1	23.0674405320001	23.1047082550001	"1"	2140.457783063	2137.943401199	1.5	0.1
0.01	1	0.072965417999967	1	64	NA	25.3306020560001	0	0.57	0.57	1	23.334587654	23.4075530719999	"1"	2140.457783063	2137.943401199	1.5	0.1
0.01	1	0.164866829000175	1	64	NA	25.3306020560001	0	0.57	0.57	1	23.6351517569999	23.8000185860001	"1"	2140.457783063	2137.943401199	1.5	0.1
0.01	1	0.00450739000007161	1	64	NA	25.3306020560001	0	0.57	0.57	1	24.035729532	24.0402369220001	"1"	2140.457783063	2137.943401199	1.5	0.1
0.01	1	0.0994075339999654	1	64	NA	25.3306020560001	0	0.57	0.57	1	24.2695435969999	24.3689511309999	"1"	2140.457783063	2137.943401199	1.5	0.1
0.01	1	0.00386325500016937	1	64	NA	25.3306020560001	0	0.57	0.57	1	24.6033207519999	24.6071840070001	"1"	2140.457783063	2137.943401199	1.5	0.1
0.01	1	0.491735184000163	2	64	NA	25.3306020560001	0	0.57	0.57	1	24.8371615589999	25.3288967430001	"1"	2140.457783063	2137.943401199	1.5	0.1
0.01	1	0.8013571460001	1	102	NA	58.0106349130001	0	0.870000000000001	1.44	1	27.357977077	28.1593342230001	"2"	2140.457783063	2137.943401199	1.5	0.1
0.01	1	0.0045718769999894	1	102	NA	58.0106349130001	0	0.870000000000001	1.44	1	28.393079987	28.397651864	"2"	2140.457783063	2137.943401199	1.5	0.1
0.01	1	0.125945761000139	1	102	NA	58.0106349130001	0	0.870000000000001	1.44	1	28.6267476139999	28.752693375	"2"	2140.457783063	2137.943401199	1.5	0.1
0.01	1	0.00396606500021335	1	102	NA	58.0106349130001	0	0.870000000000001	1.44	1	28.9773397219999	28.9813057870001	"2"	2140.457783063	2137.943401199	1.5	0.1
0.01	1	0.00347000300007494	1	102	NA	58.0106349130001	0	0.870000000000001	1.44	1	29.2110466839999	29.214516687	"2"	2140.457783063	2137.943401199	1.5	0.1
0.01	1	0.00383993099990221	1	102	NA	58.0106349130001	0	0.870000000000001	1.44	1	29.4449533920001	29.448793323	"2"	2140.457783063	2137.943401199	1.5	0.1
0.01	1	0.00323777800008429	1	102	NA	58.0106349130001	0	0.870000000000001	1.44	1	29.678540203	29.6817779810001	"2"	2140.457783063	2137.943401199	1.5	0.1
0.01	1	0.00376746999995703	1	102	NA	58.0106349130001	0	0.870000000000001	1.44	1	29.9123106090001	29.916078079	"2"	2140.457783063	2137.943401199	1.5	0.1
0.01	1	0.00781838199986851	1	102	NA	58.0106349130001	0	0.870000000000001	1.44	1	30.1460576530001	30.1538760349999	"2"	2140.457783063	2137.943401199	1.5	0.1
0.01	1	0.00400720399989041	1	102	NA	58.0106349130001	0	0.870000000000001	1.44	1	30.379770559	30.3837777629999	"2"	2140.457783063	2137.943401199	1.5	0.1
0.01	1	0.00378988799980107	1	102	NA	58.0106349130001	0	0.870000000000001	1.44	1	30.6135056390001	30.6172955269999	"2"	2140.457783063	2137.943401199	1.5	0.1
0.01	1	0.0959984689998237	1	102	NA	58.0106349130001	0	0.870000000000001	1.44	1	30.8473130340001	30.9433115029999	"2"	2140.457783063	2137.943401199	1.5	0.1
0.01	1	0.00215607299992371	1	102	NA	58.0106349130001	0	0.870000000000001	1.44	1	31.164422932	31.1665790049999	"2"	2140.457783063	2137.943401199	1.5	0.1
0.01	1	0.00202541700014081	1	102	NA	58.0106349130001	0	0.870000000000001	1.44	1	31.398153914	31.4001793310001	"2"	2140.457783063	2137.943401199	1.5	0.1
0.01	1	0.00391474799994285	1	102	NA	58.0106349130001	0	0.870000000000001	1.44	1	31.631850707	31.635765455	"2"	2140.457783063	2137.943401199	1.5	0.1
0.01	1	0.00387431300009666	1	102	NA	58.0106349130001	0	0.870000000000001	1.44	1	31.8655963619999	31.869470675	"2"	2140.457783063	2137.943401199	1.5	0.1
0.01	1	0.108629367000049	1	102	NA	58.0106349130001	0	0.870000000000001	1.44	1	32.099376272	32.208005639	"2"	2140.457783063	2137.943401199	1.5	0.1
0.01	1	0.00425408200021593	1	102	NA	58.0106349130001	0	0.870000000000001	1.44	1	32.4332770389999	32.4375311210001	"2"	2140.457783063	2137.943401199	1.5	0.1
0.01	1	0.00219920499989712	1	102	NA	58.0106349130001	0	0.870000000000001	1.44	1	32.666951315	32.6691505199999	"2"	2140.457783063	2137.943401199	1.5	0.1
0.01	1	0.00219749600000796	1	102	NA	58.0106349130001	0	0.870000000000001	1.44	1	32.9007093610001	32.9029068570001	"2"	2140.457783063	2137.943401199	1.5	0.1
0.01	1	0.00201552699991225	1	102	NA	58.0106349130001	0	0.870000000000001	1.44	1	33.134472277	33.1364878039999	"2"	2140.457783063	2137.943401199	1.5	0.1
0.01	1	0.00459416699982285	1	102	NA	58.0106349130001	0	0.870000000000001	1.44	1	33.3681178470001	33.3727120139999	"2"	2140.457783063	2137.943401199	1.5	0.1
0.01	1	0.00440324500004863	1	102	NA	58.0106349130001	0	0.870000000000001	1.44	1	33.601828072	33.606231317	"2"	2140.457783063	2137.943401199	1.5	0.1
0.01	1	0.00400835699997515	1	102	NA	58.0106349130001	0	0.870000000000001	1.44	1	33.835616584	33.839624941	"2"	2140.457783063	2137.943401199	1.5	0.1
0.01	1	0.00303324200012867	1	102	NA	58.0106349130001	0	0.870000000000001	1.44	1	34.0692538369999	34.072287079	"2"	2140.457783063	2137.943401199	1.5	0.1
0.01	1	0.0723775360002037	1	102	NA	58.0106349130001	0	0.870000000000001	1.44	1	34.3030595529999	34.3754370890001	"2"	2140.457783063	2137.943401199	1.5	0.1
0.01	1	0.0772142030000396	1	102	NA	58.0106349130001	0	0.870000000000001	1.44	1	34.6035251220001	34.6807393250001	"2"	2140.457783063	2137.943401199	1.5	0.1
0.01	1	0.233180233999974	1	102	NA	58.0106349130001	0	0.870000000000001	1.44	1	34.904077937	35.137258171	"2"	2140.457783063	2137.943401199	1.5	0.1
0.01	1	0.00392047199989065	1	102	NA	58.0106349130001	0	0.870000000000001	1.44	1	35.3714843790001	35.375404851	"2"	2140.457783063	2137.943401199	1.5	0.1
0.01	1	0.122563679999985	1	102	NA	58.0106349130001	0	0.870000000000001	1.44	1	35.6052830220001	35.7278467020001	"2"	2140.457783063	2137.943401199	1.5	0.1
0.01	1	0.00684215299997959	1	102	NA	58.0106349130001	0	0.870000000000001	1.44	1	35.955835024	35.9626771769999	"2"	2140.457783063	2137.943401199	1.5	0.1
0.01	1	0.0020291719999932	1	102	NA	58.0106349130001	0	0.870000000000001	1.44	1	36.1895397549999	36.1915689269999	"2"	2140.457783063	2137.943401199	1.5	0.1
0.01	1	0.00461897199988925	1	102	NA	58.0106349130001	0	0.870000000000001	1.44	1	36.4233212920001	36.427940264	"2"	2140.457783063	2137.943401199	1.5	0.1
0.01	1	0.00394169800006239	1	102	NA	58.0106349130001	0	0.870000000000001	1.44	1	36.6569546369999	36.660896335	"2"	2140.457783063	2137.943401199	1.5	0.1
0.01	1	0.00457032200006324	1	102	NA	58.0106349130001	0	0.870000000000001	1.44	1	36.890751702	36.8953220240001	"2"	2140.457783063	2137.943401199	1.5	0.1
0.01	1	0.131479427999921	1	102	NA	58.0106349130001	0	0.870000000000001	1.44	1	37.124478964	37.2559583919999	"2"	2140.457783063	2137.943401199	1.5	0.1
0.01	1	0.0852158870000039	1	102	NA	58.0106349130001	0	0.870000000000001	1.44	1	37.4918689819999	37.5770848689999	"2"	2140.457783063	2137.943401199	1.5	0.1
0.01	1	0.0954385479999473	1	102	NA	58.0106349130001	0	0.870000000000001	1.44	1	37.808912084	37.9043506319999	"2"	2140.457783063	2137.943401199	1.5	0.1
0.01	1	0.00466493199996876	1	102	NA	58.0106349130001	0	0.870000000000001	1.44	1	38.1261400870001	38.130805019	"2"	2140.457783063	2137.943401199	1.5	0.1
0.01	1	0.00234616499983531	1	102	NA	58.0106349130001	0	0.870000000000001	1.44	1	38.3598049320001	38.3621510969999	"2"	2140.457783063	2137.943401199	1.5	0.1
0.01	1	0.00449944500019228	1	102	NA	58.0106349130001	0	0.870000000000001	1.44	1	38.5936778519999	38.5981772970001	"2"	2140.457783063	2137.943401199	1.5	0.1
0.01	1	0.00389998100013145	1	102	NA	58.0106349130001	0	0.870000000000001	1.44	1	38.827235192	38.8311351730001	"2"	2140.457783063	2137.943401199	1.5	0.1
0.01	1	0.0039278879999074	1	102	NA	58.0106349130001	0	0.870000000000001	1.44	1	39.061010997	39.0649388849999	"2"	2140.457783063	2137.943401199	1.5	0.1
0.01	1	0.00203916899999967	1	102	NA	58.0106349130001	0	0.870000000000001	1.44	1	39.294703437	39.296742606	"2"	2140.457783063	2137.943401199	1.5	0.1
0.01	1	0.00391337199994268	1	102	NA	58.0106349130001	0	0.870000000000001	1.44	1	39.5284224490001	39.5323358210001	"2"	2140.457783063	2137.943401199	1.5	0.1
0.01	1	0.0293892790000427	1	102	NA	58.0106349130001	0	0.870000000000001	1.44	1	39.7621978469999	39.791587126	"2"	2140.457783063	2137.943401199	1.5	0.1
0.01	1	0.00205415899995387	1	102	NA	58.0106349130001	0	0.870000000000001	1.44	1	40.029417402	40.031471561	"2"	2140.457783063	2137.943401199	1.5	0.1
0.01	1	0.00959675100011737	1	102	NA	58.0106349130001	0	0.870000000000001	1.44	1	40.2630628639999	40.2726596150001	"2"	2140.457783063	2137.943401199	1.5	0.1
0.01	1	0.0322285100000954	1	102	NA	58.0106349130001	0	0.870000000000001	1.44	1	40.496763183	40.5289916930001	"2"	2140.457783063	2137.943401199	1.5	0.1
0.01	1	0.0360487749999265	1	102	NA	58.0106349130001	0	0.870000000000001	1.44	1	40.7638919440001	40.799940719	"2"	2140.457783063	2137.943401199	1.5	0.1
0.01	1	0.00948994999998831	1	102	NA	58.0106349130001	0	0.870000000000001	1.44	1	41.0310237369999	41.0405136869999	"2"	2140.457783063	2137.943401199	1.5	0.1
0.01	1	0.463598447999857	1	102	NA	58.0106349130001	0	0.870000000000001	1.44	1	41.2647699920001	41.7283684399999	"2"	2140.457783063	2137.943401199	1.5	0.1
0.01	1	0.00460797699997784	1	102	NA	58.0106349130001	0	0.870000000000001	1.44	1	41.9658978269999	41.9705058039999	"2"	2140.457783063	2137.943401199	1.5	0.1
0.01	1	0.00258449300008579	1	102	NA	58.0106349130001	0	0.870000000000001	1.44	1	42.199593133	42.2021776260001	"2"	2140.457783063	2137.943401199	1.5	0.1
0.01	1	0.0023936089999097	1	102	NA	58.0106349130001	0	0.870000000000001	1.44	1	42.433409597	42.4358032059999	"2"	2140.457783063	2137.943401199	1.5	0.1
0.01	1	0.0020149270001184	1	102	NA	58.0106349130001	0	0.870000000000001	1.44	1	42.667094595	42.6691095220001	"2"	2140.457783063	2137.943401199	1.5	0.1
0.01	1	0.00213279200011129	1	102	NA	58.0106349130001	0	0.870000000000001	1.44	1	42.900886574	42.9030193660001	"2"	2140.457783063	2137.943401199	1.5	0.1
0.01	1	0.00220052600002418	1	102	NA	58.0106349130001	0	0.870000000000001	1.44	1	43.134543034	43.13674356	"2"	2140.457783063	2137.943401199	1.5	0.1
0.01	1	0.0022175189999416	1	102	NA	58.0106349130001	0	0.870000000000001	1.44	1	43.3682731260001	43.370490645	"2"	2140.457783063	2137.943401199	1.5	0.1
0.01	1	0.974202036999941	1	102	NA	58.0106349130001	0	0.870000000000001	1.44	1	43.602058492	44.5762605289999	"2"	2140.457783063	2137.943401199	1.5	0.1
0.01	1	0.00702634300000682	1	102	NA	58.0106349130001	0	0.870000000000001	1.44	1	44.803945762	44.810972105	"2"	2140.457783063	2137.943401199	1.5	0.1
0.01	1	0.026648767000097	1	102	NA	58.0106349130001	0	0.870000000000001	1.44	1	45.037781687	45.0644304540001	"2"	2140.457783063	2137.943401199	1.5	0.1
0.01	1	0.0322150870001678	1	102	NA	58.0106349130001	0	0.870000000000001	1.44	1	45.2881663339999	45.3203814210001	"2"	2140.457783063	2137.943401199	1.5	0.1
0.01	1	0.00816662200008977	1	102	NA	58.0106349130001	0	0.870000000000001	1.44	1	45.5553159369999	45.563482559	"2"	2140.457783063	2137.943401199	1.5	0.1
0.01	1	0.0502222229999916	1	102	NA	58.0106349130001	0	0.870000000000001	1.44	1	45.789116612	45.839338835	"2"	2140.457783063	2137.943401199	1.5	0.1
0.01	1	0.927685868000026	1	102	NA	58.0106349130001	0	0.870000000000001	1.44	1	46.0728466969999	47.000532565	"2"	2140.457783063	2137.943401199	1.5	0.1
0.01	1	0.486523544999955	1	102	NA	58.0106349130001	0	0.870000000000001	1.44	1	47.2247365210001	47.711260066	"2"	2140.457783063	2137.943401199	1.5	0.1
0.01	1	0.00348130699990179	1	102	NA	58.0106349130001	0	0.870000000000001	1.44	1	47.942654572	47.9461358789999	"2"	2140.457783063	2137.943401199	1.5	0.1
0.01	1	0.00374949100000777	1	102	NA	58.0106349130001	0	0.870000000000001	1.44	1	48.1763287220001	48.1800782130001	"2"	2140.457783063	2137.943401199	1.5	0.1
0.01	1	0.621475300999919	1	102	NA	58.0106349130001	0	0.870000000000001	1.44	1	48.410273702	49.031749003	"2"	2140.457783063	2137.943401199	1.5	0.1
0.01	1	0.00397270500002378	1	102	NA	58.0106349130001	0	0.870000000000001	1.44	1	49.261564962	49.265537667	"2"	2140.457783063	2137.943401199	1.5	0.1
0.01	1	0.513373220999938	1	102	NA	58.0106349130001	0	0.870000000000001	1.44	1	49.495248104	50.0086213249999	"2"	2140.457783063	2137.943401199	1.5	0.1
0.01	1	0.00202396100007718	1	102	NA	58.0106349130001	0	0.870000000000001	1.44	1	50.2465975749999	50.248621536	"2"	2140.457783063	2137.943401199	1.5	0.1
0.01	1	0.424633933999985	1	102	NA	58.0106349130001	0	0.870000000000001	1.44	1	50.4802992719999	50.9049332059999	"2"	2140.457783063	2137.943401199	1.5	0.1
0.01	1	0.0046682970000802	1	102	NA	58.0106349130001	0	0.870000000000001	1.44	1	51.1312959869999	51.135964284	"2"	2140.457783063	2137.943401199	1.5	0.1
0.01	1	0.371052249000059	1	102	NA	58.0106349130001	0	0.870000000000001	1.44	1	51.365147232	51.7361994810001	"2"	2140.457783063	2137.943401199	1.5	0.1
0.01	1	0.00203450300000441	1	102	NA	58.0106349130001	0	0.870000000000001	1.44	1	51.966078141	51.968112644	"2"	2140.457783063	2137.943401199	1.5	0.1
0.01	1	0.400598806999824	1	102	NA	58.0106349130001	0	0.870000000000001	1.44	1	52.1998214590001	52.6004202659999	"2"	2140.457783063	2137.943401199	1.5	0.1
0.01	1	0.38189893699996	1	102	NA	58.0106349130001	0	0.870000000000001	1.44	1	52.834272392	53.216171329	"2"	2140.457783063	2137.943401199	1.5	0.1
0.01	1	0.349258614999826	1	102	NA	58.0106349130001	0	0.870000000000001	1.44	1	53.4520104620001	53.8012690769999	"2"	2140.457783063	2137.943401199	1.5	0.1
0.01	1	0.0194813399998566	1	102	NA	58.0106349130001	0	0.870000000000001	1.44	1	54.0363387570001	54.0558200969999	"2"	2140.457783063	2137.943401199	1.5	0.1
0.01	1	0.049776958999928	1	102	NA	58.0106349130001	0	0.870000000000001	1.44	1	54.286704997	54.3364819559999	"2"	2140.457783063	2137.943401199	1.5	0.1
0.01	1	0.0460960670000077	1	102	NA	58.0106349130001	0	0.870000000000001	1.44	1	54.5704928570001	54.6165889240001	"2"	2140.457783063	2137.943401199	1.5	0.1
0.01	1	0.370096173000093	1	102	NA	58.0106349130001	0	0.870000000000001	1.44	1	54.854336207	55.2244323800001	"2"	2140.457783063	2137.943401199	1.5	0.1
0.01	1	0.433246673999975	1	102	NA	58.0106349130001	0	0.870000000000001	1.44	1	55.4553004649999	55.8885471389999	"2"	2140.457783063	2137.943401199	1.5	0.1
0.01	1	0.468291454000109	1	102	NA	58.0106349130001	0	0.870000000000001	1.44	1	56.1230632859999	56.59135474	"2"	2140.457783063	2137.943401199	1.5	0.1
0.01	1	0.495456040999898	1	102	NA	58.0106349130001	0	0.870000000000001	1.44	1	56.8243448190001	57.31980086	"2"	2140.457783063	2137.943401199	1.5	0.1
0.01	1	0.466909806999865	2	102	NA	58.0106349130001	0	0.870000000000001	1.44	1	57.5421615770001	58.009071384	"2"	2140.457783063	2137.943401199	1.5	0.1
0.01	1	0.817325738000136	1	97	87.3454393869999	NA	1	0	1.44	1	60.0463864569999	60.8637121950001	"3"	2140.457783063	2137.943401199	1.5	0.1
0.01	1	0.00206490999994458	1	97	87.3454393869999	NA	1	0	1.44	1	61.098043747	61.100108657	"3"	2140.457783063	2137.943401199	1.5	0.1
0.01	1	0.00443897499985724	1	97	87.3454393869999	NA	1	0	1.44	1	61.3320165820001	61.3364555569999	"3"	2140.457783063	2137.943401199	1.5	0.1
0.01	1	0.0978712220000943	1	97	87.3454393869999	NA	1	0	1.44	1	61.5655953739999	61.663466596	"3"	2140.457783063	2137.943401199	1.5	0.1
0.01	1	0.00200327800007472	1	97	87.3454393869999	NA	1	0	1.44	1	61.899444855	61.901448133	"3"	2140.457783063	2137.943401199	1.5	0.1
0.01	1	0.106776337000156	1	97	87.3454393869999	NA	1	0	1.44	1	62.1332525739999	62.2400289110001	"3"	2140.457783063	2137.943401199	1.5	0.1
0.01	1	0.002020401999971	1	97	87.3454393869999	NA	1	0	1.44	1	62.4670776309999	62.4690980329999	"3"	2140.457783063	2137.943401199	1.5	0.1
0.01	1	0.138989377999906	1	97	87.3454393869999	NA	1	0	1.44	1	62.7008712070001	62.839860585	"3"	2140.457783063	2137.943401199	1.5	0.1
0.01	1	0.00222523200000069	1	97	87.3454393869999	NA	1	0	1.44	1	63.0680957070001	63.0703209390001	"3"	2140.457783063	2137.943401199	1.5	0.1
0.01	1	0.0038572580001528	1	97	87.3454393869999	NA	1	0	1.44	1	63.3017782669999	63.3056355250001	"3"	2140.457783063	2137.943401199	1.5	0.1
0.01	1	0.0490254609999283	1	97	87.3454393869999	NA	1	0	1.44	1	63.535607063	63.584632524	"3"	2140.457783063	2137.943401199	1.5	0.1
0.01	1	0.00208210799996777	1	97	87.3454393869999	NA	1	0	1.44	1	63.8193436940001	63.821425802	"3"	2140.457783063	2137.943401199	1.5	0.1
0.01	1	0.00220102799994493	1	97	87.3454393869999	NA	1	0	1.44	1	64.0531557320001	64.05535676	"3"	2140.457783063	2137.943401199	1.5	0.1
0.01	1	0.0045689549999679	1	97	87.3454393869999	NA	1	0	1.44	1	64.286757287	64.291326242	"3"	2140.457783063	2137.943401199	1.5	0.1
0.01	1	0.00373479000018051	1	97	87.3454393869999	NA	1	0	1.44	1	64.5205756089999	64.5243103990001	"3"	2140.457783063	2137.943401199	1.5	0.1
0.01	1	0.00448538000000553	1	97	87.3454393869999	NA	1	0	1.44	1	64.754290657	64.758776037	"3"	2140.457783063	2137.943401199	1.5	0.1
0.01	1	0.00360369700001684	1	97	87.3454393869999	NA	1	0	1.44	1	64.988046014	64.991649711	"3"	2140.457783063	2137.943401199	1.5	0.1
0.01	1	0.00320483599989529	1	97	87.3454393869999	NA	1	0	1.44	1	65.2217664970001	65.224971333	"3"	2140.457783063	2137.943401199	1.5	0.1
0.01	1	0.00446071000010306	1	97	87.3454393869999	NA	1	0	1.44	1	65.455483129	65.4599438390001	"3"	2140.457783063	2137.943401199	1.5	0.1
0.01	1	0.00455278499998713	1	97	87.3454393869999	NA	1	0	1.44	1	65.689175102	65.693727887	"3"	2140.457783063	2137.943401199	1.5	0.1
0.01	1	0.0926762080000572	1	97	87.3454393869999	NA	1	0	1.44	1	65.9228453870001	66.0155215950001	"3"	2140.457783063	2137.943401199	1.5	0.1
0.01	1	0.00218897300010212	1	97	87.3454393869999	NA	1	0	1.44	1	66.2400877939999	66.242276767	"3"	2140.457783063	2137.943401199	1.5	0.1
0.01	1	0.00206889800006138	1	97	87.3454393869999	NA	1	0	1.44	1	66.4738762120001	66.4759451100001	"3"	2140.457783063	2137.943401199	1.5	0.1
0.01	1	0.00204676799990011	1	97	87.3454393869999	NA	1	0	1.44	1	66.707535966	66.7095827339999	"3"	2140.457783063	2137.943401199	1.5	0.1
0.01	1	0.00454731500008165	1	97	87.3454393869999	NA	1	0	1.44	1	66.941324272	66.9458715870001	"3"	2140.457783063	2137.943401199	1.5	0.1
0.01	1	0.00425668799994128	1	97	87.3454393869999	NA	1	0	1.44	1	67.174934249	67.1791909369999	"3"	2140.457783063	2137.943401199	1.5	0.1
0.01	1	0.00202442999989216	1	97	87.3454393869999	NA	1	0	1.44	1	67.4087364720001	67.410760902	"3"	2140.457783063	2137.943401199	1.5	0.1
0.01	1	0.00205695499994363	1	97	87.3454393869999	NA	1	0	1.44	1	67.642528292	67.6445852469999	"3"	2140.457783063	2137.943401199	1.5	0.1
0.01	1	0.00444336900000053	1	97	87.3454393869999	NA	1	0	1.44	1	67.87619965	67.880643019	"3"	2140.457783063	2137.943401199	1.5	0.1
0.01	1	0.161626469000112	1	97	87.3454393869999	NA	1	0	1.44	1	68.109882775	68.2715092440001	"3"	2140.457783063	2137.943401199	1.5	0.1
0.01	1	0.0255249230001482	1	97	87.3454393869999	NA	1	0	1.44	1	68.493912834	68.5194377570001	"3"	2140.457783063	2137.943401199	1.5	0.1
0.01	1	0.00372622899999442	1	97	87.3454393869999	NA	1	0	1.44	1	68.7442719539999	68.7479981829999	"3"	2140.457783063	2137.943401199	1.5	0.1
0.01	1	0.00219012000002294	1	97	87.3454393869999	NA	1	0	1.44	1	68.978018495	68.980208615	"3"	2140.457783063	2137.943401199	1.5	0.1
0.01	1	0.00219732799996564	1	97	87.3454393869999	NA	1	0	1.44	1	69.2117492960001	69.2139466240001	"3"	2140.457783063	2137.943401199	1.5	0.1
0.01	1	0.0111971549999907	1	97	87.3454393869999	NA	1	0	1.44	1	69.4454185019999	69.4566156569999	"3"	2140.457783063	2137.943401199	1.5	0.1
0.01	1	0.00256002900005114	1	97	87.3454393869999	NA	1	0	1.44	1	69.6792701469999	69.6818301759999	"3"	2140.457783063	2137.943401199	1.5	0.1
0.01	1	0.00204070699987824	1	97	87.3454393869999	NA	1	0	1.44	1	69.9130042930001	69.915045	"3"	2140.457783063	2137.943401199	1.5	0.1
0.01	1	0.00388826699986566	1	97	87.3454393869999	NA	1	0	1.44	1	70.1468049340001	70.150693201	"3"	2140.457783063	2137.943401199	1.5	0.1
0.01	1	0.00391929499983235	1	97	87.3454393869999	NA	1	0	1.44	1	70.3803590540001	70.3842783489999	"3"	2140.457783063	2137.943401199	1.5	0.1
0.01	1	0.113272361000099	1	97	87.3454393869999	NA	1	0	1.44	1	70.614063814	70.7273361750001	"3"	2140.457783063	2137.943401199	1.5	0.1
0.01	1	0.00316745600002832	1	97	87.3454393869999	NA	1	0	1.44	1	70.9646186729999	70.9677861289999	"3"	2140.457783063	2137.943401199	1.5	0.1
0.01	1	0.00207001900002979	1	97	87.3454393869999	NA	1	0	1.44	1	71.1985167739999	71.200586793	"3"	2140.457783063	2137.943401199	1.5	0.1
0.01	1	0.696301296000001	1	97	87.3454393869999	NA	1	0	1.44	1	71.432186987	72.128488283	"3"	2140.457783063	2137.943401199	1.5	0.1
0.01	1	0.00281560500002342	1	97	87.3454393869999	NA	1	0	1.44	1	72.3502833089999	72.3530989139999	"3"	2140.457783063	2137.943401199	1.5	0.1
0.01	1	0.00261172300020007	1	97	87.3454393869999	NA	1	0	1.44	1	72.5841003989999	72.5867121220001	"3"	2140.457783063	2137.943401199	1.5	0.1
0.01	1	0.00464561500007221	1	97	87.3454393869999	NA	1	0	1.44	1	72.817782157	72.8224277720001	"3"	2140.457783063	2137.943401199	1.5	0.1
0.01	1	0.00394366899990928	1	97	87.3454393869999	NA	1	0	1.44	1	73.051470934	73.0554146029999	"3"	2140.457783063	2137.943401199	1.5	0.1
0.01	1	0.146701239000095	1	97	87.3454393869999	NA	1	0	1.44	1	73.2852868729999	73.431988112	"3"	2140.457783063	2137.943401199	1.5	0.1
0.01	1	0.03430301100002	1	97	87.3454393869999	NA	1	0	1.44	1	73.669267622	73.703570633	"3"	2140.457783063	2137.943401199	1.5	0.1
0.01	1	0.00219043099991723	1	97	87.3454393869999	NA	1	0	1.44	1	73.936451326	73.9386417569999	"3"	2140.457783063	2137.943401199	1.5	0.1
0.01	1	0.00251778300003025	1	97	87.3454393869999	NA	1	0	1.44	1	74.1700179889999	74.1725357719999	"3"	2140.457783063	2137.943401199	1.5	0.1
0.01	1	0.244190027000059	1	97	87.3454393869999	NA	1	0	1.44	1	74.403905227	74.6480952540001	"3"	2140.457783063	2137.943401199	1.5	0.1
0.01	1	0.00396988200009218	1	97	87.3454393869999	NA	1	0	1.44	1	74.8713188669999	74.875288749	"3"	2140.457783063	2137.943401199	1.5	0.1
0.01	1	0.00449338199996419	1	97	87.3454393869999	NA	1	0	1.44	1	75.1052435920001	75.109736974	"3"	2140.457783063	2137.943401199	1.5	0.1
0.01	1	0.333681917999911	1	97	87.3454393869999	NA	1	0	1.44	1	75.3386869190001	75.672368837	"3"	2140.457783063	2137.943401199	1.5	0.1
0.01	1	0.397236885999973	1	97	87.3454393869999	NA	1	0	1.44	1	75.906419357	76.303656243	"3"	2140.457783063	2137.943401199	1.5	0.1
0.01	1	0.00202050300003975	1	97	87.3454393869999	NA	1	0	1.44	1	76.5407836229999	76.542804126	"3"	2140.457783063	2137.943401199	1.5	0.1
0.01	1	0.00222241300002679	1	97	87.3454393869999	NA	1	0	1.44	1	76.774491482	76.7767138950001	"3"	2140.457783063	2137.943401199	1.5	0.1
0.01	1	0.00267742000005455	1	97	87.3454393869999	NA	1	0	1.44	1	77.0082479929999	77.010925413	"3"	2140.457783063	2137.943401199	1.5	0.1
0.01	1	0.00226278900004218	1	97	87.3454393869999	NA	1	0	1.44	1	77.2418308250001	77.2440936140001	"3"	2140.457783063	2137.943401199	1.5	0.1
0.01	1	0.748884987999872	1	97	87.3454393869999	NA	1	0	1.44	1	77.475725362	78.2246103499999	"3"	2140.457783063	2137.943401199	1.5	0.1
0.01	1	0.00456824699995195	1	97	87.3454393869999	NA	1	0	1.44	1	78.460669327	78.465237574	"3"	2140.457783063	2137.943401199	1.5	0.1
0.01	1	0.105773196999962	1	97	87.3454393869999	NA	1	0	1.44	1	78.694355479	78.800128676	"3"	2140.457783063	2137.943401199	1.5	0.1
0.01	1	0.00264455000001362	1	97	87.3454393869999	NA	1	0	1.44	1	79.028324315	79.030968865	"3"	2140.457783063	2137.943401199	1.5	0.1
0.01	1	0.0020551830000386	1	97	87.3454393869999	NA	1	0	1.44	1	79.262020403	79.264075586	"3"	2140.457783063	2137.943401199	1.5	0.1
0.01	1	0.00204737099988961	1	97	87.3454393869999	NA	1	0	1.44	1	79.495771223	79.4978185939999	"3"	2140.457783063	2137.943401199	1.5	0.1
0.01	1	0.00206828199998199	1	97	87.3454393869999	NA	1	0	1.44	1	79.7294992720001	79.7315675540001	"3"	2140.457783063	2137.943401199	1.5	0.1
0.01	1	0.00210188999994898	1	97	87.3454393869999	NA	1	0	1.44	1	79.9632039430001	79.965305833	"3"	2140.457783063	2137.943401199	1.5	0.1
0.01	1	0.210731080999949	1	97	87.3454393869999	NA	1	0	1.44	1	80.1970082190001	80.4077393	"3"	2140.457783063	2137.943401199	1.5	0.1
0.01	1	0.00214517900008104	1	97	87.3454393869999	NA	1	0	1.44	1	80.631046195	80.633191374	"3"	2140.457783063	2137.943401199	1.5	0.1
0.01	1	0.00401431600016622	1	97	87.3454393869999	NA	1	0	1.44	1	80.8647627769999	80.8687770930001	"3"	2140.457783063	2137.943401199	1.5	0.1
0.01	1	0.00379315800000768	1	97	87.3454393869999	NA	1	0	1.44	1	81.0984572990001	81.1022504570001	"3"	2140.457783063	2137.943401199	1.5	0.1
0.01	1	0.115869216000192	1	97	87.3454393869999	NA	1	0	1.44	1	81.3321198389999	81.4479890550001	"3"	2140.457783063	2137.943401199	1.5	0.1
0.01	1	0.00457835999986855	1	97	87.3454393869999	NA	1	0	1.44	1	81.6827207270001	81.6872990869999	"3"	2140.457783063	2137.943401199	1.5	0.1
0.01	1	0.00368822700011151	1	97	87.3454393869999	NA	1	0	1.44	1	81.9164875819999	81.9201758090001	"3"	2140.457783063	2137.943401199	1.5	0.1
0.01	1	0.00400050599978385	1	97	87.3454393869999	NA	1	0	1.44	1	82.1502379190001	82.1542384249999	"3"	2140.457783063	2137.943401199	1.5	0.1
0.01	1	0.00395471499996347	1	97	87.3454393869999	NA	1	0	1.44	1	82.3840356119999	82.3879903269999	"3"	2140.457783063	2137.943401199	1.5	0.1
0.01	1	0.00427043600006982	1	97	87.3454393869999	NA	1	0	1.44	1	82.617641716	82.621912152	"3"	2140.457783063	2137.943401199	1.5	0.1
0.01	1	0.00338829900010751	1	97	87.3454393869999	NA	1	0	1.44	1	82.851358982	82.8547472810001	"3"	2140.457783063	2137.943401199	1.5	0.1
0.01	1	0.00387568299993291	1	97	87.3454393869999	NA	1	0	1.44	1	83.0851623620001	83.0890380450001	"3"	2140.457783063	2137.943401199	1.5	0.1
0.01	1	0.00391747699995904	1	97	87.3454393869999	NA	1	0	1.44	1	83.3187426439999	83.3226601209999	"3"	2140.457783063	2137.943401199	1.5	0.1
0.01	1	0.00458824700012883	1	97	87.3454393869999	NA	1	0	1.44	1	83.5526571519999	83.5572453990001	"3"	2140.457783063	2137.943401199	1.5	0.1
0.01	1	0.00236020600004849	1	97	87.3454393869999	NA	1	0	1.44	1	83.786331023	83.7886912290001	"3"	2140.457783063	2137.943401199	1.5	0.1
0.01	1	0.0038911530000405	1	97	87.3454393869999	NA	1	0	1.44	1	84.0200152719999	84.023906425	"3"	2140.457783063	2137.943401199	1.5	0.1
0.01	1	0.00202366000007714	1	97	87.3454393869999	NA	1	0	1.44	1	84.2537445309999	84.255768191	"3"	2140.457783063	2137.943401199	1.5	0.1
0.01	1	0.00388505699993402	1	97	87.3454393869999	NA	1	0	1.44	1	84.487435992	84.4913210489999	"3"	2140.457783063	2137.943401199	1.5	0.1
0.01	1	0.00412686599997869	1	97	87.3454393869999	NA	1	0	1.44	1	84.721152176	84.725279042	"3"	2140.457783063	2137.943401199	1.5	0.1
0.01	1	0.00461639199988895	1	97	87.3454393869999	NA	1	0	1.44	1	84.954980187	84.9595965789999	"3"	2140.457783063	2137.943401199	1.5	0.1
0.01	1	0.00375416599990785	1	97	87.3454393869999	NA	1	0	1.44	1	85.1885862070001	85.192340373	"3"	2140.457783063	2137.943401199	1.5	0.1
0.01	1	0.00460883699997794	1	97	87.3454393869999	NA	1	0	1.44	1	85.422411427	85.427020264	"3"	2140.457783063	2137.943401199	1.5	0.1
0.01	1	0.0019762660001561	1	97	87.3454393869999	NA	1	0	1.44	1	85.656182256	85.6581585220001	"3"	2140.457783063	2137.943401199	1.5	0.1
0.01	1	0.00396364299990637	1	97	87.3454393869999	NA	1	0	1.44	1	85.889843142	85.8938067849999	"3"	2140.457783063	2137.943401199	1.5	0.1
0.01	1	0.0045996199999081	1	97	87.3454393869999	NA	1	0	1.44	1	86.1236120420001	86.128211662	"3"	2140.457783063	2137.943401199	1.5	0.1
0.01	1	0.146663182000111	1	97	87.3454393869999	NA	1	0	1.44	1	86.357375932	86.5040391140001	"3"	2140.457783063	2137.943401199	1.5	0.1
0.01	1	0.00381239900002583	1	97	87.3454393869999	NA	1	0	1.44	1	86.741269892	86.745082291	"3"	2140.457783063	2137.943401199	1.5	0.1
0.01	1	0.0170856959998673	1	97	87.3454393869999	NA	1	0	1.44	1	86.9749183470001	86.992004043	"3"	2140.457783063	2137.943401199	1.5	0.1
0.01	1	0.00259373700009746	1	97	87.3454393869999	NA	1	0	1.44	1	87.225394157	87.2279878940001	"3"	2140.457783063	2137.943401199	1.5	0.1
0.01	1	0.517537118999826	1	51	NA	98.248863888	0	0.33	1.77	1	89.3958019920001	89.9133391109999	"4"	2140.457783063	2137.943401199	1.5	0.1
0.01	1	0.00202639500002988	1	51	NA	98.248863888	0	0.33	1.77	1	90.147031087	90.149057482	"4"	2140.457783063	2137.943401199	1.5	0.1
0.01	1	0.00384937299986632	1	51	NA	98.248863888	0	0.33	1.77	1	90.3807156840001	90.3845650569999	"4"	2140.457783063	2137.943401199	1.5	0.1
0.01	1	0.00389113200003521	1	51	NA	98.248863888	0	0.33	1.77	1	90.614366667	90.618257799	"4"	2140.457783063	2137.943401199	1.5	0.1
0.01	1	0.0045520750002197	1	51	NA	98.248863888	0	0.33	1.77	1	90.8481110969999	90.8526631720001	"4"	2140.457783063	2137.943401199	1.5	0.1
0.01	1	0.00374442099996486	1	51	NA	98.248863888	0	0.33	1.77	1	91.081879354	91.0856237749999	"4"	2140.457783063	2137.943401199	1.5	0.1
0.01	1	0.00389713999993546	1	51	NA	98.248863888	0	0.33	1.77	1	91.315532827	91.3194299669999	"4"	2140.457783063	2137.943401199	1.5	0.1
0.01	1	0.0913666769999963	1	51	NA	98.248863888	0	0.33	1.77	1	91.549346987	91.640713664	"4"	2140.457783063	2137.943401199	1.5	0.1
0.01	1	0.00323654800013173	1	51	NA	98.248863888	0	0.33	1.77	1	91.866499087	91.8697356350001	"4"	2140.457783063	2137.943401199	1.5	0.1
0.01	1	0.00253984400001173	1	51	NA	98.248863888	0	0.33	1.77	1	92.1003656790001	92.1029055230001	"4"	2140.457783063	2137.943401199	1.5	0.1
0.01	1	0.00208143200006816	1	51	NA	98.248863888	0	0.33	1.77	1	92.3340093849999	92.336090817	"4"	2140.457783063	2137.943401199	1.5	0.1
0.01	1	0.00399018400003115	1	51	NA	98.248863888	0	0.33	1.77	1	92.5678433569999	92.5718335409999	"4"	2140.457783063	2137.943401199	1.5	0.1
0.01	1	0.00373083799991036	1	51	NA	98.248863888	0	0.33	1.77	1	92.8014590570001	92.805189895	"4"	2140.457783063	2137.943401199	1.5	0.1
0.01	1	0.00449619700020776	1	51	NA	98.248863888	0	0.33	1.77	1	93.0352093869999	93.0397055840001	"4"	2140.457783063	2137.943401199	1.5	0.1
0.01	1	0.00387335899995378	1	51	NA	98.248863888	0	0.33	1.77	1	93.2689918420001	93.2728652010001	"4"	2140.457783063	2137.943401199	1.5	0.1
0.01	1	0.00198899899987737	1	51	NA	98.248863888	0	0.33	1.77	1	93.5027043120001	93.504693311	"4"	2140.457783063	2137.943401199	1.5	0.1
0.01	1	0.00237640499994995	1	51	NA	98.248863888	0	0.33	1.77	1	93.736352209	93.7387286139999	"4"	2140.457783063	2137.943401199	1.5	0.1
0.01	1	0.00350733899995248	1	51	NA	98.248863888	0	0.33	1.77	1	93.970086842	93.973594181	"4"	2140.457783063	2137.943401199	1.5	0.1
0.01	1	0.0195190229999298	1	51	NA	98.248863888	0	0.33	1.77	1	94.2038536110001	94.223372634	"4"	2140.457783063	2137.943401199	1.5	0.1
0.01	1	0.00468341000009787	1	51	NA	98.248863888	0	0.33	1.77	1	94.4542798519999	94.458963262	"4"	2140.457783063	2137.943401199	1.5	0.1
0.01	1	0.00256023799988725	1	51	NA	98.248863888	0	0.33	1.77	1	94.6879210730001	94.690481311	"4"	2140.457783063	2137.943401199	1.5	0.1
0.01	1	0.0227943700001561	1	51	NA	98.248863888	0	0.33	1.77	1	94.9216985119999	94.9444928820001	"4"	2140.457783063	2137.943401199	1.5	0.1
0.01	1	0.00224986800003535	1	51	NA	98.248863888	0	0.33	1.77	1	95.172071449	95.174321317	"4"	2140.457783063	2137.943401199	1.5	0.1
0.01	1	0.00427371800014953	1	51	NA	98.248863888	0	0.33	1.77	1	95.4057945259999	95.4100682440001	"4"	2140.457783063	2137.943401199	1.5	0.1
0.01	1	0.135495543999923	1	51	NA	98.248863888	0	0.33	1.77	1	95.6397280870001	95.775223631	"4"	2140.457783063	2137.943401199	1.5	0.1
0.01	1	0.00984741100000974	1	51	NA	98.248863888	0	0.33	1.77	1	96.006827054	96.0166744650001	"4"	2140.457783063	2137.943401199	1.5	0.1
0.01	1	0.00310440800012657	1	51	NA	98.248863888	0	0.33	1.77	1	96.240544605	96.2436490130001	"4"	2140.457783063	2137.943401199	1.5	0.1
0.01	1	0.00272029899997506	1	51	NA	98.248863888	0	0.33	1.77	1	96.474248367	96.4769686659999	"4"	2140.457783063	2137.943401199	1.5	0.1
0.01	1	0.00239631099998405	1	51	NA	98.248863888	0	0.33	1.77	1	96.708064055	96.710460366	"4"	2140.457783063	2137.943401199	1.5	0.1
0.01	1	0.00452309199999945	1	51	NA	98.248863888	0	0.33	1.77	1	96.941754147	96.946277239	"4"	2140.457783063	2137.943401199	1.5	0.1
0.01	1	0.00207212100008292	1	51	NA	98.248863888	0	0.33	1.77	1	97.175450601	97.177522722	"4"	2140.457783063	2137.943401199	1.5	0.1
0.01	1	0.00367220100019949	1	51	NA	98.248863888	0	0.33	1.77	1	97.4091840819999	97.4128562830001	"4"	2140.457783063	2137.943401199	1.5	0.1
0.01	1	0.00387709999995423	1	51	NA	98.248863888	0	0.33	1.77	1	97.642964467	97.6468415669999	"4"	2140.457783063	2137.943401199	1.5	0.1
0.01	1	0.370620156999848	2	51	NA	98.248863888	0	0.33	1.77	1	97.8767167220001	98.2473368789999	"4"	2140.457783063	2137.943401199	1.5	0.1
0.01	1	0.463314315999924	1	116	NA	127.361308052	0	0.960000000000001	2.73	1	100.297428347	100.760742663	"5"	2140.457783063	2137.943401199	1.5	0.1
0.01	1	0.00384059899988642	1	116	NA	127.361308052	0	0.960000000000001	2.73	1	100.998612862	101.002453461	"5"	2140.457783063	2137.943401199	1.5	0.1
0.01	1	0.112836458000174	1	116	NA	127.361308052	0	0.960000000000001	2.73	1	101.232316035	101.345152493	"5"	2140.457783063	2137.943401199	1.5	0.1
0.01	1	0.0019816249998712	1	116	NA	127.361308052	0	0.960000000000001	2.73	1	101.582853091	101.584834716	"5"	2140.457783063	2137.943401199	1.5	0.1
0.01	1	0.00347974600003909	1	116	NA	127.361308052	0	0.960000000000001	2.73	1	101.816530419	101.820010165	"5"	2140.457783063	2137.943401199	1.5	0.1
0.01	1	0.00373601400019652	1	116	NA	127.361308052	0	0.960000000000001	2.73	1	102.050435577	102.054171591	"5"	2140.457783063	2137.943401199	1.5	0.1
0.01	1	0.108584919999885	1	116	NA	127.361308052	0	0.960000000000001	2.73	1	102.284133864	102.392718784	"5"	2140.457783063	2137.943401199	1.5	0.1
0.01	1	0.00457710199998473	1	116	NA	127.361308052	0	0.960000000000001	2.73	1	102.618179432	102.622756534	"5"	2140.457783063	2137.943401199	1.5	0.1
0.01	1	0.00383430000010776	1	116	NA	127.361308052	0	0.960000000000001	2.73	1	102.851676779	102.855511079	"5"	2140.457783063	2137.943401199	1.5	0.1
0.01	1	0.0038025149999612	1	116	NA	127.361308052	0	0.960000000000001	2.73	1	103.085393642	103.089196157	"5"	2140.457783063	2137.943401199	1.5	0.1
0.01	1	0.105272067999977	1	116	NA	127.361308052	0	0.960000000000001	2.73	1	103.319124854	103.424396922	"5"	2140.457783063	2137.943401199	1.5	0.1
0.01	1	0.00213950199986357	1	116	NA	127.361308052	0	0.960000000000001	2.73	1	103.653087137	103.655226639	"5"	2140.457783063	2137.943401199	1.5	0.1
0.01	1	0.00445563199991739	1	116	NA	127.361308052	0	0.960000000000001	2.73	1	103.88676435	103.891219982	"5"	2140.457783063	2137.943401199	1.5	0.1
0.01	1	0.00208804099997906	1	116	NA	127.361308052	0	0.960000000000001	2.73	1	104.120495201	104.122583242	"5"	2140.457783063	2137.943401199	1.5	0.1
0.01	1	0.110127642999942	1	116	NA	127.361308052	0	0.960000000000001	2.73	1	104.35426379	104.464391433	"5"	2140.457783063	2137.943401199	1.5	0.1
0.01	1	0.00455626699999812	1	116	NA	127.361308052	0	0.960000000000001	2.73	1	104.688244167	104.692800434	"5"	2140.457783063	2137.943401199	1.5	0.1
0.01	1	0.0864660310001	1	116	NA	127.361308052	0	0.960000000000001	2.73	1	104.921866183	105.008332214	"5"	2140.457783063	2137.943401199	1.5	0.1
0.01	1	0.00206394800011367	1	116	NA	127.361308052	0	0.960000000000001	2.73	1	105.239059435	105.241123383	"5"	2140.457783063	2137.943401199	1.5	0.1
0.01	1	0.00461010899994108	1	116	NA	127.361308052	0	0.960000000000001	2.73	1	105.472884813	105.477494922	"5"	2140.457783063	2137.943401199	1.5	0.1
0.01	1	0.126644159999842	1	116	NA	127.361308052	0	0.960000000000001	2.73	1	105.706505089	105.833149249	"5"	2140.457783063	2137.943401199	1.5	0.1
0.01	1	0.00201282900002298	1	116	NA	127.361308052	0	0.960000000000001	2.73	1	106.057050203	106.059063032	"5"	2140.457783063	2137.943401199	1.5	0.1
0.01	1	0.00203671000008399	1	116	NA	127.361308052	0	0.960000000000001	2.73	1	106.290827582	106.292864292	"5"	2140.457783063	2137.943401199	1.5	0.1
0.01	1	0.00458963999994921	1	116	NA	127.361308052	0	0.960000000000001	2.73	1	106.524582757	106.529172397	"5"	2140.457783063	2137.943401199	1.5	0.1
0.01	1	0.00332099999991442	1	116	NA	127.361308052	0	0.960000000000001	2.73	1	106.758267635	106.761588635	"5"	2140.457783063	2137.943401199	1.5	0.1
0.01	1	0.00388463700005559	1	116	NA	127.361308052	0	0.960000000000001	2.73	1	106.991987072	106.995871709	"5"	2140.457783063	2137.943401199	1.5	0.1
0.01	1	0.00439407299995764	1	116	NA	127.361308052	0	0.960000000000001	2.73	1	107.225737272	107.230131345	"5"	2140.457783063	2137.943401199	1.5	0.1
0.01	1	0.0841095120001683	1	116	NA	127.361308052	0	0.960000000000001	2.73	1	107.459503527	107.543613039	"5"	2140.457783063	2137.943401199	1.5	0.1
0.01	1	0.00377440200009005	1	116	NA	127.361308052	0	0.960000000000001	2.73	1	107.776826387	107.780600789	"5"	2140.457783063	2137.943401199	1.5	0.1
0.01	1	0.00206230399999185	1	116	NA	127.361308052	0	0.960000000000001	2.73	1	108.010315019	108.012377323	"5"	2140.457783063	2137.943401199	1.5	0.1
0.01	1	0.00207093199992414	1	116	NA	127.361308052	0	0.960000000000001	2.73	1	108.244142153	108.246213085	"5"	2140.457783063	2137.943401199	1.5	0.1
0.01	1	0.00394455199989352	1	116	NA	127.361308052	0	0.960000000000001	2.73	1	108.477834579	108.481779131	"5"	2140.457783063	2137.943401199	1.5	0.1
0.01	1	0.00396443299996463	1	116	NA	127.361308052	0	0.960000000000001	2.73	1	108.711577324	108.715541757	"5"	2140.457783063	2137.943401199	1.5	0.1
0.01	1	0.00391106100005345	1	116	NA	127.361308052	0	0.960000000000001	2.73	1	108.945321142	108.949232203	"5"	2140.457783063	2137.943401199	1.5	0.1
0.01	1	0.00395294500003729	1	116	NA	127.361308052	0	0.960000000000001	2.73	1	109.179059212	109.183012157	"5"	2140.457783063	2137.943401199	1.5	0.1
0.01	1	0.00390782099998432	1	116	NA	127.361308052	0	0.960000000000001	2.73	1	109.412762244	109.416670065	"5"	2140.457783063	2137.943401199	1.5	0.1
0.01	1	0.089337285000056	1	116	NA	127.361308052	0	0.960000000000001	2.73	1	109.646511094	109.735848379	"5"	2140.457783063	2137.943401199	1.5	0.1
0.01	1	0.203709895999964	1	116	NA	127.361308052	0	0.960000000000001	2.73	1	109.963657779	110.167367675	"5"	2140.457783063	2137.943401199	1.5	0.1
0.01	1	0.00254220300007546	1	116	NA	127.361308052	0	0.960000000000001	2.73	1	110.397781893	110.400324096	"5"	2140.457783063	2137.943401199	1.5	0.1
0.01	1	0.00381523600003675	1	116	NA	127.361308052	0	0.960000000000001	2.73	1	110.631451379	110.635266615	"5"	2140.457783063	2137.943401199	1.5	0.1
0.01	1	0.00401840299991818	1	116	NA	127.361308052	0	0.960000000000001	2.73	1	110.865203534	110.869221937	"5"	2140.457783063	2137.943401199	1.5	0.1
0.01	1	0.0038656379999793	1	116	NA	127.361308052	0	0.960000000000001	2.73	1	111.098888139	111.102753777	"5"	2140.457783063	2137.943401199	1.5	0.1
0.01	1	0.0907403670000804	1	116	NA	127.361308052	0	0.960000000000001	2.73	1	111.332639562	111.423379929	"5"	2140.457783063	2137.943401199	1.5	0.1
0.01	1	0.00252398599991466	1	116	NA	127.361308052	0	0.960000000000001	2.73	1	111.649810721	111.652334707	"5"	2140.457783063	2137.943401199	1.5	0.1
0.01	1	0.00453567699992163	1	116	NA	127.361308052	0	0.960000000000001	2.73	1	111.88373047	111.888266147	"5"	2140.457783063	2137.943401199	1.5	0.1
0.01	1	0.00242718300000888	1	116	NA	127.361308052	0	0.960000000000001	2.73	1	112.117261417	112.1196886	"5"	2140.457783063	2137.943401199	1.5	0.1
0.01	1	0.00203047599984529	1	116	NA	127.361308052	0	0.960000000000001	2.73	1	112.351102277	112.353132753	"5"	2140.457783063	2137.943401199	1.5	0.1
0.01	1	0.00204811499997959	1	116	NA	127.361308052	0	0.960000000000001	2.73	1	112.584776634	112.586824749	"5"	2140.457783063	2137.943401199	1.5	0.1
0.01	1	0.00217939899994235	1	116	NA	127.361308052	0	0.960000000000001	2.73	1	112.818516681	112.82069608	"5"	2140.457783063	2137.943401199	1.5	0.1
0.01	1	0.00221766599997864	1	116	NA	127.361308052	0	0.960000000000001	2.73	1	113.052257275	113.054474941	"5"	2140.457783063	2137.943401199	1.5	0.1
0.01	1	0.00209375099984754	1	116	NA	127.361308052	0	0.960000000000001	2.73	1	113.285862889	113.28795664	"5"	2140.457783063	2137.943401199	1.5	0.1
0.01	1	0.00238291999994544	1	116	NA	127.361308052	0	0.960000000000001	2.73	1	113.519625201	113.522008121	"5"	2140.457783063	2137.943401199	1.5	0.1
0.01	1	0.00354768099987268	1	116	NA	127.361308052	0	0.960000000000001	2.73	1	113.753367494	113.756915175	"5"	2140.457783063	2137.943401199	1.5	0.1
0.01	1	0.00222572299981039	1	116	NA	127.361308052	0	0.960000000000001	2.73	1	113.987129794	113.989355517	"5"	2140.457783063	2137.943401199	1.5	0.1
0.01	1	0.00209463799978948	1	116	NA	127.361308052	0	0.960000000000001	2.73	1	114.220847789	114.222942427	"5"	2140.457783063	2137.943401199	1.5	0.1
0.01	1	0.00240822499995375	1	116	NA	127.361308052	0	0.960000000000001	2.73	1	114.454612131	114.457020356	"5"	2140.457783063	2137.943401199	1.5	0.1
0.01	1	0.00207171100009873	1	116	NA	127.361308052	0	0.960000000000001	2.73	1	114.688262233	114.690333944	"5"	2140.457783063	2137.943401199	1.5	0.1
0.01	1	0.00208988400004273	1	116	NA	127.361308052	0	0.960000000000001	2.73	1	114.922110949	114.924200833	"5"	2140.457783063	2137.943401199	1.5	0.1
0.01	1	0.00461242999995193	1	116	NA	127.361308052	0	0.960000000000001	2.73	1	115.155943432	115.160555862	"5"	2140.457783063	2137.943401199	1.5	0.1
0.01	1	0.00379236000003402	1	116	NA	127.361308052	0	0.960000000000001	2.73	1	115.389377607	115.393169967	"5"	2140.457783063	2137.943401199	1.5	0.1
0.01	1	0.00391881199993804	1	116	NA	127.361308052	0	0.960000000000001	2.73	1	115.623246477	115.627165289	"5"	2140.457783063	2137.943401199	1.5	0.1
0.01	1	0.00201502900017658	1	116	NA	127.361308052	0	0.960000000000001	2.73	1	115.856930215	115.858945244	"5"	2140.457783063	2137.943401199	1.5	0.1
0.01	1	0.00452719200006868	1	116	NA	127.361308052	0	0.960000000000001	2.73	1	116.090715112	116.095242304	"5"	2140.457783063	2137.943401199	1.5	0.1
0.01	1	0.00388197699999182	1	116	NA	127.361308052	0	0.960000000000001	2.73	1	116.324329244	116.328211221	"5"	2140.457783063	2137.943401199	1.5	0.1
0.01	1	0.00395718599997963	1	116	NA	127.361308052	0	0.960000000000001	2.73	1	116.558151967	116.562109153	"5"	2140.457783063	2137.943401199	1.5	0.1
0.01	1	0.00349658999994062	1	116	NA	127.361308052	0	0.960000000000001	2.73	1	116.791822119	116.795318709	"5"	2140.457783063	2137.943401199	1.5	0.1
0.01	1	0.00208081899995705	1	116	NA	127.361308052	0	0.960000000000001	2.73	1	117.025580602	117.027661421	"5"	2140.457783063	2137.943401199	1.5	0.1
0.01	1	0.00454023499992218	1	116	NA	127.361308052	0	0.960000000000001	2.73	1	117.259297437	117.263837672	"5"	2140.457783063	2137.943401199	1.5	0.1
0.01	1	0.00461580499995762	1	116	NA	127.361308052	0	0.960000000000001	2.73	1	117.493088422	117.497704227	"5"	2140.457783063	2137.943401199	1.5	0.1
0.01	1	0.00397133000001304	1	116	NA	127.361308052	0	0.960000000000001	2.73	1	117.726797309	117.730768639	"5"	2140.457783063	2137.943401199	1.5	0.1
0.01	1	0.00455037500000799	1	116	NA	127.361308052	0	0.960000000000001	2.73	1	117.960507402	117.965057777	"5"	2140.457783063	2137.943401199	1.5	0.1
0.01	1	0.00220792599998276	1	116	NA	127.361308052	0	0.960000000000001	2.73	1	118.194356084	118.19656401	"5"	2140.457783063	2137.943401199	1.5	0.1
0.01	1	0.0136999909998394	1	116	NA	127.361308052	0	0.960000000000001	2.73	1	118.427905877	118.441605868	"5"	2140.457783063	2137.943401199	1.5	0.1
0.01	1	0.0263089330001094	1	116	NA	127.361308052	0	0.960000000000001	2.73	1	118.678243162	118.704552095	"5"	2140.457783063	2137.943401199	1.5	0.1
0.01	1	0.0631848900000023	1	116	NA	127.361308052	0	0.960000000000001	2.73	1	118.928787367	118.991972257	"5"	2140.457783063	2137.943401199	1.5	0.1
0.01	1	0.107473860000027	1	116	NA	127.361308052	0	0.960000000000001	2.73	1	119.229335057	119.336808917	"5"	2140.457783063	2137.943401199	1.5	0.1
0.01	1	0.373363016999974	1	116	NA	127.361308052	0	0.960000000000001	2.73	1	119.563106842	119.936469859	"5"	2140.457783063	2137.943401199	1.5	0.1
0.01	1	0.00208428399992044	1	116	NA	127.361308052	0	0.960000000000001	2.73	1	120.164261653	120.166345937	"5"	2140.457783063	2137.943401199	1.5	0.1
0.01	1	0.0992670440000438	1	116	NA	127.361308052	0	0.960000000000001	2.73	1	120.397884572	120.497151616	"5"	2140.457783063	2137.943401199	1.5	0.1
0.01	1	0.00321472399991762	1	116	NA	127.361308052	0	0.960000000000001	2.73	1	120.731700863	120.734915587	"5"	2140.457783063	2137.943401199	1.5	0.1
0.01	1	0.00198783999985608	1	116	NA	127.361308052	0	0.960000000000001	2.73	1	120.965550133	120.967537973	"5"	2140.457783063	2137.943401199	1.5	0.1
0.01	1	0.177571277999959	1	116	NA	127.361308052	0	0.960000000000001	2.73	1	121.199239847	121.376811125	"5"	2140.457783063	2137.943401199	1.5	0.1
0.01	1	0.0154653439999493	1	116	NA	127.361308052	0	0.960000000000001	2.73	1	121.599847182	121.615312526	"5"	2140.457783063	2137.943401199	1.5	0.1
0.01	1	0.00219893799999227	1	116	NA	127.361308052	0	0.960000000000001	2.73	1	121.850370317	121.852569255	"5"	2140.457783063	2137.943401199	1.5	0.1
0.01	1	0.0037584550000247	1	116	NA	127.361308052	0	0.960000000000001	2.73	1	122.084047934	122.087806389	"5"	2140.457783063	2137.943401199	1.5	0.1
0.01	1	0.0746719710000434	1	116	NA	127.361308052	0	0.960000000000001	2.73	1	122.317792522	122.392464493	"5"	2140.457783063	2137.943401199	1.5	0.1
0.01	1	0.00212287699991975	1	116	NA	127.361308052	0	0.960000000000001	2.73	1	122.618290712	122.620413589	"5"	2140.457783063	2137.943401199	1.5	0.1
0.01	1	0.827909283000054	1	116	NA	127.361308052	0	0.960000000000001	2.73	1	122.852012497	123.67992178	"5"	2140.457783063	2137.943401199	1.5	0.1
0.01	1	0.728432874999953	1	116	NA	127.361308052	0	0.960000000000001	2.73	1	123.903826707	124.632259582	"5"	2140.457783063	2137.943401199	1.5	0.1
0.01	1	0.00211380399991867	1	116	NA	127.361308052	0	0.960000000000001	2.73	1	124.872133947	124.874247751	"5"	2140.457783063	2137.943401199	1.5	0.1
0.01	1	0.0039439360000415	1	116	NA	127.361308052	0	0.960000000000001	2.73	1	125.105938107	125.109882043	"5"	2140.457783063	2137.943401199	1.5	0.1
0.01	1	0.0043797910000194	1	116	NA	127.361308052	0	0.960000000000001	2.73	1	125.339493596	125.343873387	"5"	2140.457783063	2137.943401199	1.5	0.1
0.01	1	0.0039682870001343	1	116	NA	127.361308052	0	0.960000000000001	2.73	1	125.573172104	125.577140391	"5"	2140.457783063	2137.943401199	1.5	0.1
0.01	1	0.120773812000152	1	116	NA	127.361308052	0	0.960000000000001	2.73	1	125.807008179	125.927781991	"5"	2140.457783063	2137.943401199	1.5	0.1
0.01	1	0.00250924700003452	1	116	NA	127.361308052	0	0.960000000000001	2.73	1	126.157593351	126.160102598	"5"	2140.457783063	2137.943401199	1.5	0.1
0.01	1	0.00268354600007115	1	116	NA	127.361308052	0	0.960000000000001	2.73	1	126.391299373	126.393982919	"5"	2140.457783063	2137.943401199	1.5	0.1
0.01	1	0.0042863200001193	1	116	NA	127.361308052	0	0.960000000000001	2.73	1	126.625011682	126.629298002	"5"	2140.457783063	2137.943401199	1.5	0.1
0.01	1	0.501062465999894	2	116	NA	127.361308052	0	0.960000000000001	2.73	1	126.858724397	127.359786863	"5"	2140.457783063	2137.943401199	1.5	0.1
0.01	1	1.61218358600013	1	118	NA	157.778487041	0	0.940000000000001	3.67	1	129.413100669	131.025284255	"6"	2140.457783063	2137.943401199	1.5	0.1
0.01	1	0.0951208710000628	1	118	NA	157.778487041	0	0.940000000000001	3.67	1	131.249545234	131.344666105	"6"	2140.457783063	2137.943401199	1.5	0.1
0.01	1	0.105625553999971	1	118	NA	157.778487041	0	0.940000000000001	3.67	1	131.583397357	131.689022911	"6"	2140.457783063	2137.943401199	1.5	0.1
0.01	1	0.13964984800009	1	118	NA	157.778487041	0	0.940000000000001	3.67	1	131.917257004	132.056906852	"6"	2140.457783063	2137.943401199	1.5	0.1
0.01	1	0.11493468599997	1	118	NA	157.778487041	0	0.940000000000001	3.67	1	132.284511262	132.399445948	"6"	2140.457783063	2137.943401199	1.5	0.1
0.01	1	0.00383980399988104	1	118	NA	157.778487041	0	0.940000000000001	3.67	1	132.635145939	132.638985743	"6"	2140.457783063	2137.943401199	1.5	0.1
0.01	1	0.0599469939998016	1	118	NA	157.778487041	0	0.940000000000001	3.67	1	132.868873217	132.928820211	"6"	2140.457783063	2137.943401199	1.5	0.1
0.01	1	0.00200102700000571	1	118	NA	157.778487041	0	0.940000000000001	3.67	1	133.152743177	133.154744204	"6"	2140.457783063	2137.943401199	1.5	0.1
0.01	1	0.0771876040000734	1	118	NA	157.778487041	0	0.940000000000001	3.67	1	133.386423962	133.463611566	"6"	2140.457783063	2137.943401199	1.5	0.1
0.01	1	0.00442174899990277	1	118	NA	157.778487041	0	0.940000000000001	3.67	1	133.686954255	133.691376004	"6"	2140.457783063	2137.943401199	1.5	0.1
0.01	1	0.080057067000098	1	118	NA	157.778487041	0	0.940000000000001	3.67	1	133.920557617	134.000614684	"6"	2140.457783063	2137.943401199	1.5	0.1
0.01	1	0.00394061600013629	1	118	NA	157.778487041	0	0.940000000000001	3.67	1	134.237919747	134.241860363	"6"	2140.457783063	2137.943401199	1.5	0.1
0.01	1	0.0722126180000942	1	118	NA	157.778487041	0	0.940000000000001	3.67	1	134.471553544	134.543766162	"6"	2140.457783063	2137.943401199	1.5	0.1
0.01	1	0.00218373000006977	1	118	NA	157.778487041	0	0.940000000000001	3.67	1	134.772155959	134.774339689	"6"	2140.457783063	2137.943401199	1.5	0.1
0.01	1	0.0585445589999836	1	118	NA	157.778487041	0	0.940000000000001	3.67	1	135.005795272	135.064339831	"6"	2140.457783063	2137.943401199	1.5	0.1
0.01	1	0.00454447499987509	1	118	NA	157.778487041	0	0.940000000000001	3.67	1	135.289684067	135.294228542	"6"	2140.457783063	2137.943401199	1.5	0.1
0.01	1	0.0848677490000682	1	118	NA	157.778487041	0	0.940000000000001	3.67	1	135.523533022	135.608400771	"6"	2140.457783063	2137.943401199	1.5	0.1
0.01	1	0.00384775899988199	1	118	NA	157.778487041	0	0.940000000000001	3.67	1	135.840548032	135.844395791	"6"	2140.457783063	2137.943401199	1.5	0.1
0.01	1	0.0790321119998225	1	118	NA	157.778487041	0	0.940000000000001	3.67	1	136.074303407	136.153335519	"6"	2140.457783063	2137.943401199	1.5	0.1
0.01	1	0.113390383000024	1	118	NA	157.778487041	0	0.940000000000001	3.67	1	136.391487582	136.504877965	"6"	2140.457783063	2137.943401199	1.5	0.1
0.01	1	0.00389670200002001	1	118	NA	157.778487041	0	0.940000000000001	3.67	1	136.742121259	136.746017961	"6"	2140.457783063	2137.943401199	1.5	0.1
0.01	1	0.089040094999973	1	118	NA	157.778487041	0	0.940000000000001	3.67	1	136.975753207	137.064793302	"6"	2140.457783063	2137.943401199	1.5	0.1
0.01	1	0.00206952200005617	1	118	NA	157.778487041	0	0.940000000000001	3.67	1	137.293001476	137.295070998	"6"	2140.457783063	2137.943401199	1.5	0.1
0.01	1	0.0987541060001149	1	118	NA	157.778487041	0	0.940000000000001	3.67	1	137.526639122	137.625393228	"6"	2140.457783063	2137.943401199	1.5	0.1
0.01	1	0.131718852999938	1	118	NA	157.778487041	0	0.940000000000001	3.67	1	137.860661327	137.99238018	"6"	2140.457783063	2137.943401199	1.5	0.1
0.01	1	0.0020561420001286	1	118	NA	157.778487041	0	0.940000000000001	3.67	1	138.227878471	138.229934613	"6"	2140.457783063	2137.943401199	1.5	0.1
0.01	1	0.0904608480000206	1	118	NA	157.778487041	0	0.940000000000001	3.67	1	138.461657183	138.552118031	"6"	2140.457783063	2137.943401199	1.5	0.1
0.01	1	0.00383542300005502	1	118	NA	157.778487041	0	0.940000000000001	3.67	1	138.778827204	138.782662627	"6"	2140.457783063	2137.943401199	1.5	0.1
0.01	1	0.0916786880000018	1	118	NA	157.778487041	0	0.940000000000001	3.67	1	139.012541019	139.104219707	"6"	2140.457783063	2137.943401199	1.5	0.1
0.01	1	0.00382348300013291	1	118	NA	157.778487041	0	0.940000000000001	3.67	1	139.329819292	139.333642775	"6"	2140.457783063	2137.943401199	1.5	0.1
0.01	1	0.0853946510001151	1	118	NA	157.778487041	0	0.940000000000001	3.67	1	139.563509657	139.648904308	"6"	2140.457783063	2137.943401199	1.5	0.1
0.01	1	0.00373309899987362	1	118	NA	157.778487041	0	0.940000000000001	3.67	1	139.880701172	139.884434271	"6"	2140.457783063	2137.943401199	1.5	0.1
0.01	1	0.117071226000007	1	118	NA	157.778487041	0	0.940000000000001	3.67	1	140.114344277	140.231415503	"6"	2140.457783063	2137.943401199	1.5	0.1
0.01	1	0.00971312299998317	1	118	NA	157.778487041	0	0.940000000000001	3.67	1	140.464980379	140.474693502	"6"	2140.457783063	2137.943401199	1.5	0.1
0.01	1	0.0934056969999801	1	118	NA	157.778487041	0	0.940000000000001	3.67	1	140.698725714	140.792131411	"6"	2140.457783063	2137.943401199	1.5	0.1
0.01	1	0.00200917699999081	1	118	NA	157.778487041	0	0.940000000000001	3.67	1	141.015845227	141.017854404	"6"	2140.457783063	2137.943401199	1.5	0.1
0.01	1	0.101881821000006	1	118	NA	157.778487041	0	0.940000000000001	3.67	1	141.249689434	141.351571255	"6"	2140.457783063	2137.943401199	1.5	0.1
0.01	1	0.00459161000003405	1	118	NA	157.778487041	0	0.940000000000001	3.67	1	141.583468412	141.588060022	"6"	2140.457783063	2137.943401199	1.5	0.1
0.01	1	0.119860154999969	1	118	NA	157.778487041	0	0.940000000000001	3.67	1	141.817388119	141.937248274	"6"	2140.457783063	2137.943401199	1.5	0.1
0.01	1	0.00462257499998486	1	118	NA	157.778487041	0	0.940000000000001	3.67	1	142.167891427	142.172514002	"6"	2140.457783063	2137.943401199	1.5	0.1
0.01	1	0.00424732600004063	1	118	NA	157.778487041	0	0.940000000000001	3.67	1	142.401680376	142.405927702	"6"	2140.457783063	2137.943401199	1.5	0.1
0.01	1	0.0773565009999402	1	118	NA	157.778487041	0	0.940000000000001	3.67	1	142.635384179	142.71274068	"6"	2140.457783063	2137.943401199	1.5	0.1
0.01	1	0.00250550000009753	1	118	NA	157.778487041	0	0.940000000000001	3.67	1	142.935800835	142.938306335	"6"	2140.457783063	2137.943401199	1.5	0.1
0.01	1	0.00460729999986143	1	118	NA	157.778487041	0	0.940000000000001	3.67	1	143.169631142	143.174238442	"6"	2140.457783063	2137.943401199	1.5	0.1
0.01	1	0.0773999440000352	1	118	NA	157.778487041	0	0.940000000000001	3.67	1	143.403259227	143.480659171	"6"	2140.457783063	2137.943401199	1.5	0.1
0.01	1	0.00451318000000356	1	118	NA	157.778487041	0	0.940000000000001	3.67	1	143.703732087	143.708245267	"6"	2140.457783063	2137.943401199	1.5	0.1
0.01	1	0.00388759700012997	1	118	NA	157.778487041	0	0.940000000000001	3.67	1	143.937525314	143.941412911	"6"	2140.457783063	2137.943401199	1.5	0.1
0.01	1	0.0860436609998487	1	118	NA	157.778487041	0	0.940000000000001	3.67	1	144.171218522	144.257262183	"6"	2140.457783063	2137.943401199	1.5	0.1
0.01	1	0.00463533500010271	1	118	NA	157.778487041	0	0.940000000000001	3.67	1	144.488435197	144.493070532	"6"	2140.457783063	2137.943401199	1.5	0.1
0.01	1	0.00457824000000073	1	118	NA	157.778487041	0	0.940000000000001	3.67	1	144.722101622	144.726679862	"6"	2140.457783063	2137.943401199	1.5	0.1
0.01	1	0.0842891370000416	1	118	NA	157.778487041	0	0.940000000000001	3.67	1	144.955892902	145.040182039	"6"	2140.457783063	2137.943401199	1.5	0.1
0.01	1	0.00387208999995892	1	118	NA	157.778487041	0	0.940000000000001	3.67	1	145.273122817	145.276994907	"6"	2140.457783063	2137.943401199	1.5	0.1
0.01	1	0.00438282499999332	1	118	NA	157.778487041	0	0.940000000000001	3.67	1	145.506841072	145.511223897	"6"	2140.457783063	2137.943401199	1.5	0.1
0.01	1	0.0749332800000957	1	118	NA	157.778487041	0	0.940000000000001	3.67	1	145.740582042	145.815515322	"6"	2140.457783063	2137.943401199	1.5	0.1
0.01	1	0.00461708200009525	1	118	NA	157.778487041	0	0.940000000000001	3.67	1	146.041006582	146.045623664	"6"	2140.457783063	2137.943401199	1.5	0.1
0.01	1	0.00486176499998692	1	118	NA	157.778487041	0	0.940000000000001	3.67	1	146.274742732	146.279604497	"6"	2140.457783063	2137.943401199	1.5	0.1
0.01	1	0.0909137730000111	1	118	NA	157.778487041	0	0.940000000000001	3.67	1	146.508541707	146.59945548	"6"	2140.457783063	2137.943401199	1.5	0.1
0.01	1	0.00452939199999491	1	118	NA	157.778487041	0	0.940000000000001	3.67	1	146.825710502	146.830239894	"6"	2140.457783063	2137.943401199	1.5	0.1
0.01	1	0.00486776499997177	1	118	NA	157.778487041	0	0.940000000000001	3.67	1	147.059402832	147.064270597	"6"	2140.457783063	2137.943401199	1.5	0.1
0.01	1	0.0916109800000413	1	118	NA	157.778487041	0	0.940000000000001	3.67	1	147.293124267	147.384735247	"6"	2140.457783063	2137.943401199	1.5	0.1
0.01	1	0.00261244399985117	1	118	NA	157.778487041	0	0.940000000000001	3.67	1	147.610392301	147.613004745	"6"	2140.457783063	2137.943401199	1.5	0.1
0.01	1	0.00380975000007311	1	118	NA	157.778487041	0	0.940000000000001	3.67	1	147.843984957	147.847794707	"6"	2140.457783063	2137.943401199	1.5	0.1
0.01	1	0.106047934000117	1	118	NA	157.778487041	0	0.940000000000001	3.67	1	148.077797039	148.183844973	"6"	2140.457783063	2137.943401199	1.5	0.1
0.01	1	0.00267988800010244	1	118	NA	157.778487041	0	0.940000000000001	3.67	1	148.411765271	148.414445159	"6"	2140.457783063	2137.943401199	1.5	0.1
0.01	1	0.00365884300003927	1	118	NA	157.778487041	0	0.940000000000001	3.67	1	148.645321922	148.648980765	"6"	2140.457783063	2137.943401199	1.5	0.1
0.01	1	0.112774360000003	1	118	NA	157.778487041	0	0.940000000000001	3.67	1	148.879175546	148.991949906	"6"	2140.457783063	2137.943401199	1.5	0.1
0.01	1	0.818372270000054	1	118	NA	157.778487041	0	0.940000000000001	3.67	1	149.229738822	150.048111092	"6"	2140.457783063	2137.943401199	1.5	0.1
0.01	1	0.00383282400002827	1	118	NA	157.778487041	0	0.940000000000001	3.67	1	150.281517699	150.285350523	"6"	2140.457783063	2137.943401199	1.5	0.1
0.01	1	0.0760037160000593	1	118	NA	157.778487041	0	0.940000000000001	3.67	1	150.515286347	150.591290063	"6"	2140.457783063	2137.943401199	1.5	0.1
0.01	1	0.00454646999992292	1	118	NA	157.778487041	0	0.940000000000001	3.67	1	150.815713742	150.820260212	"6"	2140.457783063	2137.943401199	1.5	0.1
0.01	1	0.102474199999961	1	118	NA	157.778487041	0	0.940000000000001	3.67	1	151.049438059	151.151912259	"6"	2140.457783063	2137.943401199	1.5	0.1
0.01	1	0.00200476000009076	1	118	NA	157.778487041	0	0.940000000000001	3.67	1	151.383431005	151.385435765	"6"	2140.457783063	2137.943401199	1.5	0.1
0.01	1	0.00387700400005997	1	118	NA	157.778487041	0	0.940000000000001	3.67	1	151.617070197	151.620947201	"6"	2140.457783063	2137.943401199	1.5	0.1
0.01	1	0.100331042000107	1	118	NA	157.778487041	0	0.940000000000001	3.67	1	151.850918117	151.951249159	"6"	2140.457783063	2137.943401199	1.5	0.1
0.01	1	0.00243329200020526	1	118	NA	157.778487041	0	0.940000000000001	3.67	1	152.184701903	152.187135195	"6"	2140.457783063	2137.943401199	1.5	0.1
0.01	1	0.00391879200014955	1	118	NA	157.778487041	0	0.940000000000001	3.67	1	152.418400179	152.422318971	"6"	2140.457783063	2137.943401199	1.5	0.1
0.01	1	0.101231307000035	1	118	NA	157.778487041	0	0.940000000000001	3.67	1	152.652152564	152.753383871	"6"	2140.457783063	2137.943401199	1.5	0.1
0.01	1	0.00456884999994145	1	118	NA	157.778487041	0	0.940000000000001	3.67	1	152.986095797	152.990664647	"6"	2140.457783063	2137.943401199	1.5	0.1
0.01	1	0.00317397799994978	1	118	NA	157.778487041	0	0.940000000000001	3.67	1	153.219823349	153.222997327	"6"	2140.457783063	2137.943401199	1.5	0.1
0.01	1	0.106283554000129	1	118	NA	157.778487041	0	0.940000000000001	3.67	1	153.453457912	153.559741466	"6"	2140.457783063	2137.943401199	1.5	0.1
0.01	1	0.00398236199998792	1	118	NA	157.778487041	0	0.940000000000001	3.67	1	153.787373359	153.791355721	"6"	2140.457783063	2137.943401199	1.5	0.1
0.01	1	0.00206356399985452	1	118	NA	157.778487041	0	0.940000000000001	3.67	1	154.021177756	154.02324132	"6"	2140.457783063	2137.943401199	1.5	0.1
0.01	1	0.00394929300000513	1	118	NA	157.778487041	0	0.940000000000001	3.67	1	154.254881942	154.258831235	"6"	2140.457783063	2137.943401199	1.5	0.1
0.01	1	0.0796439289999853	1	118	NA	157.778487041	0	0.940000000000001	3.67	1	154.488564657	154.568208586	"6"	2140.457783063	2137.943401199	1.5	0.1
0.01	1	0.00207175999980791	1	118	NA	157.778487041	0	0.940000000000001	3.67	1	154.805809352	154.807881112	"6"	2140.457783063	2137.943401199	1.5	0.1
0.01	1	0.112879183000132	1	118	NA	157.778487041	0	0.940000000000001	3.67	1	155.039707902	155.152587085	"6"	2140.457783063	2137.943401199	1.5	0.1
0.01	1	0.00396091100014928	1	118	NA	157.778487041	0	0.940000000000001	3.67	1	155.390134282	155.394095193	"6"	2140.457783063	2137.943401199	1.5	0.1
0.01	1	0.105124284999874	1	118	NA	157.778487041	0	0.940000000000001	3.67	1	155.623815654	155.728939939	"6"	2140.457783063	2137.943401199	1.5	0.1
0.01	1	0.00239067400002568	1	118	NA	157.778487041	0	0.940000000000001	3.67	1	155.957697175	155.960087849	"6"	2140.457783063	2137.943401199	1.5	0.1
0.01	1	0.00390488700008973	1	118	NA	157.778487041	0	0.940000000000001	3.67	1	156.191377724	156.195282611	"6"	2140.457783063	2137.943401199	1.5	0.1
0.01	1	0.00390549600001577	1	118	NA	157.778487041	0	0.940000000000001	3.67	1	156.425155859	156.429061355	"6"	2140.457783063	2137.943401199	1.5	0.1
0.01	1	0.0850880649998089	1	118	NA	157.778487041	0	0.940000000000001	3.67	1	156.658954377	156.744042442	"6"	2140.457783063	2137.943401199	1.5	0.1
0.01	1	0.00406831200007218	1	118	NA	157.778487041	0	0.940000000000001	3.67	1	156.976085193	156.980153505	"6"	2140.457783063	2137.943401199	1.5	0.1
0.01	1	0.00393419100009851	1	118	NA	157.778487041	0	0.940000000000001	3.67	1	157.209766042	157.213700233	"6"	2140.457783063	2137.943401199	1.5	0.1
0.01	1	0.33335473000011	2	118	NA	157.778487041	0	0.940000000000001	3.67	1	157.443544542	157.776899272	"6"	2140.457783063	2137.943401199	1.5	0.1
0.01	1	0.658385965999969	1	87	183.508150582	NA	1	0	3.67	1	159.814198567	160.472584533	"7"	2140.457783063	2137.943401199	1.5	0.1
0.01	1	0.00461446000008436	1	87	183.508150582	NA	1	0	3.67	1	160.698988052	160.703602512	"7"	2140.457783063	2137.943401199	1.5	0.1
0.01	1	0.0751304180000716	1	87	183.508150582	NA	1	0	3.67	1	160.932741164	161.007871582	"7"	2140.457783063	2137.943401199	1.5	0.1
0.01	1	0.00222559400003774	1	87	183.508150582	NA	1	0	3.67	1	161.233242738	161.235468332	"7"	2140.457783063	2137.943401199	1.5	0.1
0.01	1	0.0856046339999921	1	87	183.508150582	NA	1	0	3.67	1	161.466992512	161.552597146	"7"	2140.457783063	2137.943401199	1.5	0.1
0.01	1	0.00457401699986804	1	87	183.508150582	NA	1	0	3.67	1	161.784212362	161.788786379	"7"	2140.457783063	2137.943401199	1.5	0.1
0.01	1	0.0627220750000106	1	87	183.508150582	NA	1	0	3.67	1	162.017947532	162.080669607	"7"	2140.457783063	2137.943401199	1.5	0.1
0.01	1	0.00389575300005163	1	87	183.508150582	NA	1	0	3.67	1	162.318363512	162.322259265	"7"	2140.457783063	2137.943401199	1.5	0.1
0.01	1	0.0728028430000904	1	87	183.508150582	NA	1	0	3.67	1	162.552242822	162.625045665	"7"	2140.457783063	2137.943401199	1.5	0.1
0.01	1	0.00376761000006809	1	87	183.508150582	NA	1	0	3.67	1	162.852637357	162.856404967	"7"	2140.457783063	2137.943401199	1.5	0.1
0.01	1	0.0828789009999582	1	87	183.508150582	NA	1	0	3.67	1	163.086391987	163.169270888	"7"	2140.457783063	2137.943401199	1.5	0.1
0.01	1	0.00362884500009386	1	87	183.508150582	NA	1	0	3.67	1	163.403594552	163.407223397	"7"	2140.457783063	2137.943401199	1.5	0.1
0.01	1	0.0907514099999389	1	87	183.508150582	NA	1	0	3.67	1	163.637373864	163.728125274	"7"	2140.457783063	2137.943401199	1.5	0.1
0.01	1	0.00244411200014838	1	87	183.508150582	NA	1	0	3.67	1	163.954515859	163.956959971	"7"	2140.457783063	2137.943401199	1.5	0.1
0.01	1	0.00441331499996522	1	87	183.508150582	NA	1	0	3.67	1	164.188280852	164.192694167	"7"	2140.457783063	2137.943401199	1.5	0.1
0.01	1	0.0591120439999031	1	87	183.508150582	NA	1	0	3.67	1	164.422017627	164.481129671	"7"	2140.457783063	2137.943401199	1.5	0.1
0.01	1	0.00383476900015012	1	87	183.508150582	NA	1	0	3.67	1	164.705733502	164.709568271	"7"	2140.457783063	2137.943401199	1.5	0.1
0.01	1	0.00462222700002712	1	87	183.508150582	NA	1	0	3.67	1	164.939499467	164.944121694	"7"	2140.457783063	2137.943401199	1.5	0.1
0.01	1	0.0913486890001423	1	87	183.508150582	NA	1	0	3.67	1	165.173267126	165.264615815	"7"	2140.457783063	2137.943401199	1.5	0.1
0.01	1	0.00205245700021806	1	87	183.508150582	NA	1	0	3.67	1	165.490397679	165.492450136	"7"	2140.457783063	2137.943401199	1.5	0.1
0.01	1	0.108195328999955	1	87	183.508150582	NA	1	0	3.67	1	165.724251665	165.832446994	"7"	2140.457783063	2137.943401199	1.5	0.1
0.01	1	0.00388393399998677	1	87	183.508150582	NA	1	0	3.67	1	166.058000437	166.061884371	"7"	2140.457783063	2137.943401199	1.5	0.1
0.01	1	0.108123674999888	1	87	183.508150582	NA	1	0	3.67	1	166.291797459	166.399921134	"7"	2140.457783063	2137.943401199	1.5	0.1
0.01	1	0.00423055400005978	1	87	183.508150582	NA	1	0	3.67	1	166.6256027	166.629833254	"7"	2140.457783063	2137.943401199	1.5	0.1
0.01	1	0.100402234999819	1	87	183.508150582	NA	1	0	3.67	1	166.859376624	166.959778859	"7"	2140.457783063	2137.943401199	1.5	0.1
0.01	1	0.00204609399997935	1	87	183.508150582	NA	1	0	3.67	1	167.19329494	167.195341034	"7"	2140.457783063	2137.943401199	1.5	0.1
0.01	1	0.100402712999994	1	87	183.508150582	NA	1	0	3.67	1	167.426991982	167.527394695	"7"	2140.457783063	2137.943401199	1.5	0.1
0.01	1	0.00226750199999515	1	87	183.508150582	NA	1	0	3.67	1	167.760887113	167.763154615	"7"	2140.457783063	2137.943401199	1.5	0.1
0.01	1	0.00454325999999128	1	87	183.508150582	NA	1	0	3.67	1	167.994721922	167.999265182	"7"	2140.457783063	2137.943401199	1.5	0.1
0.01	1	0.0996838239998397	1	87	183.508150582	NA	1	0	3.67	1	168.228404677	168.328088501	"7"	2140.457783063	2137.943401199	1.5	0.1
0.01	1	0.00209636100021271	1	87	183.508150582	NA	1	0	3.67	1	168.562227472	168.564323833	"7"	2140.457783063	2137.943401199	1.5	0.1
0.01	1	0.00394518300004165	1	87	183.508150582	NA	1	0	3.67	1	168.795983854	168.799929037	"7"	2140.457783063	2137.943401199	1.5	0.1
0.01	1	0.106639917000166	1	87	183.508150582	NA	1	0	3.67	1	169.029688897	169.136328814	"7"	2140.457783063	2137.943401199	1.5	0.1
0.01	1	0.00253506499984724	1	87	183.508150582	NA	1	0	3.67	1	169.363673407	169.366208472	"7"	2140.457783063	2137.943401199	1.5	0.1
0.01	1	0.00448929999993197	1	87	183.508150582	NA	1	0	3.67	1	169.597431287	169.601920587	"7"	2140.457783063	2137.943401199	1.5	0.1
0.01	1	0.0902604969999175	1	87	183.508150582	NA	1	0	3.67	1	169.831137357	169.921397854	"7"	2140.457783063	2137.943401199	1.5	0.1
0.01	1	0.00267188800012264	1	87	183.508150582	NA	1	0	3.67	1	170.148273755	170.150945643	"7"	2140.457783063	2137.943401199	1.5	0.1
0.01	1	0.00358296200010955	1	87	183.508150582	NA	1	0	3.67	1	170.381980767	170.385563729	"7"	2140.457783063	2137.943401199	1.5	0.1
0.01	1	0.00383635000002869	1	87	183.508150582	NA	1	0	3.67	1	170.615684799	170.619521149	"7"	2140.457783063	2137.943401199	1.5	0.1
0.01	1	0.0714669290000529	1	87	183.508150582	NA	1	0	3.67	1	170.849419937	170.920886866	"7"	2140.457783063	2137.943401199	1.5	0.1
0.01	1	0.00208302400005778	1	87	183.508150582	NA	1	0	3.67	1	171.149902425	171.151985449	"7"	2140.457783063	2137.943401199	1.5	0.1
0.01	1	0.00378568900009668	1	87	183.508150582	NA	1	0	3.67	1	171.383654042	171.387439731	"7"	2140.457783063	2137.943401199	1.5	0.1
0.01	1	0.00374666099992282	1	87	183.508150582	NA	1	0	3.67	1	171.617333252	171.621079913	"7"	2140.457783063	2137.943401199	1.5	0.1
0.01	1	0.061125033000053	1	87	183.508150582	NA	1	0	3.67	1	171.851175484	171.912300517	"7"	2140.457783063	2137.943401199	1.5	0.1
0.01	1	0.00210508999998638	1	87	183.508150582	NA	1	0	3.67	1	172.134952277	172.137057367	"7"	2140.457783063	2137.943401199	1.5	0.1
0.01	1	0.00371120299996619	1	87	183.508150582	NA	1	0	3.67	1	172.368685164	172.372396367	"7"	2140.457783063	2137.943401199	1.5	0.1
0.01	1	0.0786712599999646	1	87	183.508150582	NA	1	0	3.67	1	172.602422214	172.681093474	"7"	2140.457783063	2137.943401199	1.5	0.1
0.01	1	0.00425725100012642	1	87	183.508150582	NA	1	0	3.67	1	172.902878293	172.907135544	"7"	2140.457783063	2137.943401199	1.5	0.1
0.01	1	0.00391873700004908	1	87	183.508150582	NA	1	0	3.67	1	173.136673222	173.140591959	"7"	2140.457783063	2137.943401199	1.5	0.1
0.01	1	0.0936837720000767	1	87	183.508150582	NA	1	0	3.67	1	173.370360599	173.464044371	"7"	2140.457783063	2137.943401199	1.5	0.1
0.01	1	0.00390008199997283	1	87	183.508150582	NA	1	0	3.67	1	173.687488987	173.691389069	"7"	2140.457783063	2137.943401199	1.5	0.1
0.01	1	0.110165351999967	1	87	183.508150582	NA	1	0	3.67	1	173.921338444	174.031503796	"7"	2140.457783063	2137.943401199	1.5	0.1
0.01	1	0.00443149399984577	1	87	183.508150582	NA	1	0	3.67	1	174.255135583	174.259567077	"7"	2140.457783063	2137.943401199	1.5	0.1
0.01	1	0.00462127000014334	1	87	183.508150582	NA	1	0	3.67	1	174.489012977	174.493634247	"7"	2140.457783063	2137.943401199	1.5	0.1
0.01	1	0.00392335200012894	1	87	183.508150582	NA	1	0	3.67	1	174.722565139	174.726488491	"7"	2140.457783063	2137.943401199	1.5	0.1
0.01	1	0.00461739699994723	1	87	183.508150582	NA	1	0	3.67	1	174.956329882	174.960947279	"7"	2140.457783063	2137.943401199	1.5	0.1
0.01	1	0.067139214000008	1	87	183.508150582	NA	1	0	3.67	1	175.190040514	175.257179728	"7"	2140.457783063	2137.943401199	1.5	0.1
0.01	1	0.00209079399996881	1	87	183.508150582	NA	1	0	3.67	1	175.490575432	175.492666226	"7"	2140.457783063	2137.943401199	1.5	0.1
0.01	1	0.131353799999943	1	87	183.508150582	NA	1	0	3.67	1	175.724352187	175.855705987	"7"	2140.457783063	2137.943401199	1.5	0.1
0.01	1	0.00254230500013364	1	87	183.508150582	NA	1	0	3.67	1	176.091634683	176.094176988	"7"	2140.457783063	2137.943401199	1.5	0.1
0.01	1	0.00425124999992477	1	87	183.508150582	NA	1	0	3.67	1	176.325326272	176.329577522	"7"	2140.457783063	2137.943401199	1.5	0.1
0.01	1	0.00396685300006538	1	87	183.508150582	NA	1	0	3.67	1	176.559011262	176.562978115	"7"	2140.457783063	2137.943401199	1.5	0.1
0.01	1	0.087817424999912	1	87	183.508150582	NA	1	0	3.67	1	176.792738454	176.880555879	"7"	2140.457783063	2137.943401199	1.5	0.1
0.01	1	0.0020877270001165	1	87	183.508150582	NA	1	0	3.67	1	177.1100557	177.112143427	"7"	2140.457783063	2137.943401199	1.5	0.1
0.01	1	0.0486425900000995	1	87	183.508150582	NA	1	0	3.67	1	177.343662502	177.392305092	"7"	2140.457783063	2137.943401199	1.5	0.1
0.01	1	0.0610039939999751	1	87	183.508150582	NA	1	0	3.67	1	177.62757885	177.688582844	"7"	2140.457783063	2137.943401199	1.5	0.1
0.01	1	0.00400602399986383	1	87	183.508150582	NA	1	0	3.67	1	177.911369547	177.915375571	"7"	2140.457783063	2137.943401199	1.5	0.1
0.01	1	0.0388633049999498	1	87	183.508150582	NA	1	0	3.67	1	178.145071247	178.183934552	"7"	2140.457783063	2137.943401199	1.5	0.1
0.01	1	0.00392121999993833	1	87	183.508150582	NA	1	0	3.67	1	178.412136617	178.416057837	"7"	2140.457783063	2137.943401199	1.5	0.1
0.01	1	0.0748936939999112	1	87	183.508150582	NA	1	0	3.67	1	178.646028387	178.720922081	"7"	2140.457783063	2137.943401199	1.5	0.1
0.01	1	0.00463483999988057	1	87	183.508150582	NA	1	0	3.67	1	178.946378927	178.951013767	"7"	2140.457783063	2137.943401199	1.5	0.1
0.01	1	0.0996032989999094	1	87	183.508150582	NA	1	0	3.67	1	179.180070092	179.279673391	"7"	2140.457783063	2137.943401199	1.5	0.1
0.01	1	0.00301718199989409	1	87	183.508150582	NA	1	0	3.67	1	179.513953915	179.516971097	"7"	2140.457783063	2137.943401199	1.5	0.1
0.01	1	0.0935548770000878	1	87	183.508150582	NA	1	0	3.67	1	179.747758842	179.841313719	"7"	2140.457783063	2137.943401199	1.5	0.1
0.01	1	0.00392253400013942	1	87	183.508150582	NA	1	0	3.67	1	180.065035547	180.068958081	"7"	2140.457783063	2137.943401199	1.5	0.1
0.01	1	0.101818755000068	1	87	183.508150582	NA	1	0	3.67	1	180.298641974	180.400460729	"7"	2140.457783063	2137.943401199	1.5	0.1
0.01	1	0.00393055700010336	1	87	183.508150582	NA	1	0	3.67	1	180.632492752	180.636423309	"7"	2140.457783063	2137.943401199	1.5	0.1
0.01	1	0.117437316000178	1	87	183.508150582	NA	1	0	3.67	1	180.866257147	180.983694463	"7"	2140.457783063	2137.943401199	1.5	0.1
0.01	1	0.00331414200013569	1	87	183.508150582	NA	1	0	3.67	1	181.216928997	181.220243139	"7"	2140.457783063	2137.943401199	1.5	0.1
0.01	1	0.085462896999843	1	87	183.508150582	NA	1	0	3.67	1	181.450641822	181.536104719	"7"	2140.457783063	2137.943401199	1.5	0.1
0.01	1	0.00207765699997253	1	87	183.508150582	NA	1	0	3.67	1	181.767735549	181.769813206	"7"	2140.457783063	2137.943401199	1.5	0.1
0.01	1	0.118753190999996	1	87	183.508150582	NA	1	0	3.67	1	182.001575659	182.12032885	"7"	2140.457783063	2137.943401199	1.5	0.1
0.01	1	0.00201928800015594	1	87	183.508150582	NA	1	0	3.67	1	182.352233016	182.354252304	"7"	2140.457783063	2137.943401199	1.5	0.1
0.01	1	0.00377192900009504	1	87	183.508150582	NA	1	0	3.67	1	182.585845374	182.589617303	"7"	2140.457783063	2137.943401199	1.5	0.1
0.01	1	0.108789763999994	1	87	183.508150582	NA	1	0	3.67	1	182.819559624	182.928349388	"7"	2140.457783063	2137.943401199	1.5	0.1
0.01	1	0.00198973900000965	1	87	183.508150582	NA	1	0	3.67	1	183.153398577	183.155388316	"7"	2140.457783063	2137.943401199	1.5	0.1
0.01	1	0.00390509600015321	1	87	183.508150582	NA	1	0	3.67	1	183.387284429	183.391189525	"7"	2140.457783063	2137.943401199	1.5	0.1
0.01	1	0.842578589000141	1	6	187.765031932	NA	1	0	3.67	1	185.540871362	186.383449951	"8"	2140.457783063	2137.943401199	1.5	0.1
0.01	1	0.00208511999994698	1	6	187.765031932	NA	1	0	3.67	1	186.609283535	186.611368655	"8"	2140.457783063	2137.943401199	1.5	0.1
0.01	1	0.00391857299996445	1	6	187.765031932	NA	1	0	3.67	1	186.843075462	186.846994035	"8"	2140.457783063	2137.943401199	1.5	0.1
0.01	1	0.10770222400015	1	6	187.765031932	NA	1	0	3.67	1	187.076713019	187.184415243	"8"	2140.457783063	2137.943401199	1.5	0.1
0.01	1	0.00269714999990356	1	6	187.765031932	NA	1	0	3.67	1	187.410656787	187.413353937	"8"	2140.457783063	2137.943401199	1.5	0.1
0.01	1	0.0039625449999221	1	6	187.765031932	NA	1	0	3.67	1	187.644377862	187.648340407	"8"	2140.457783063	2137.943401199	1.5	0.1
0.01	1	0.0672828469998876	1	106	NA	204.938497943	0	0.55	4.22	1	189.797989722	189.865272569	"9"	2140.457783063	2137.943401199	1.5	0.1
0.01	1	0.00365670000019236	1	106	NA	204.938497943	0	0.55	4.22	1	190.098431107	190.102087807	"9"	2140.457783063	2137.943401199	1.5	0.1
0.01	1	0.0845821579998756	1	106	NA	204.938497943	0	0.55	4.22	1	190.332216897	190.416799055	"9"	2140.457783063	2137.943401199	1.5	0.1
0.01	1	0.00202904999991915	1	106	NA	204.938497943	0	0.55	4.22	1	190.649411713	190.651440763	"9"	2140.457783063	2137.943401199	1.5	0.1
0.01	1	0.00374591900003907	1	106	NA	204.938497943	0	0.55	4.22	1	190.883130462	190.886876381	"9"	2140.457783063	2137.943401199	1.5	0.1
0.01	1	0.0754798370001026	1	106	NA	204.938497943	0	0.55	4.22	1	191.116842057	191.192321894	"9"	2140.457783063	2137.943401199	1.5	0.1
0.01	1	0.00233550100006141	1	106	NA	204.938497943	0	0.55	4.22	1	191.417390045	191.419725546	"9"	2140.457783063	2137.943401199	1.5	0.1
0.01	1	0.00388683899996067	1	106	NA	204.938497943	0	0.55	4.22	1	191.651084234	191.654971073	"9"	2140.457783063	2137.943401199	1.5	0.1
0.01	1	0.115863531000059	1	106	NA	204.938497943	0	0.55	4.22	1	191.884898632	192.000762163	"9"	2140.457783063	2137.943401199	1.5	0.1
0.01	1	0.00248157800001536	1	106	NA	204.938497943	0	0.55	4.22	1	192.235509581	192.237991159	"9"	2140.457783063	2137.943401199	1.5	0.1
0.01	1	0.00387729399994896	1	106	NA	204.938497943	0	0.55	4.22	1	192.469125859	192.473003153	"9"	2140.457783063	2137.943401199	1.5	0.1
0.01	1	0.0984267750000072	1	106	NA	204.938497943	0	0.55	4.22	1	192.702806224	192.801232999	"9"	2140.457783063	2137.943401199	1.5	0.1
0.01	1	0.00327390200004629	1	106	NA	204.938497943	0	0.55	4.22	1	193.036785559	193.040059461	"9"	2140.457783063	2137.943401199	1.5	0.1
0.01	1	0.00385189899998295	1	106	NA	204.938497943	0	0.55	4.22	1	193.270543612	193.274395511	"9"	2140.457783063	2137.943401199	1.5	0.1
0.01	1	0.0808847969999533	1	106	NA	204.938497943	0	0.55	4.22	1	193.504140817	193.585025614	"9"	2140.457783063	2137.943401199	1.5	0.1
0.01	1	0.0021360769999319	1	106	NA	204.938497943	0	0.55	4.22	1	193.821442727	193.823578804	"9"	2140.457783063	2137.943401199	1.5	0.1
0.01	1	0.00362390999998752	1	106	NA	204.938497943	0	0.55	4.22	1	194.055169937	194.058793847	"9"	2140.457783063	2137.943401199	1.5	0.1
0.01	1	0.103127462999964	1	106	NA	204.938497943	0	0.55	4.22	1	194.288859759	194.391987222	"9"	2140.457783063	2137.943401199	1.5	0.1
0.01	1	0.00487984699998378	1	106	NA	204.938497943	0	0.55	4.22	1	194.622871772	194.627751619	"9"	2140.457783063	2137.943401199	1.5	0.1
0.01	1	0.00392341199994917	1	106	NA	204.938497943	0	0.55	4.22	1	194.856446667	194.860370079	"9"	2140.457783063	2137.943401199	1.5	0.1
0.01	1	0.0864758749999055	1	106	NA	204.938497943	0	0.55	4.22	1	195.090357559	195.176833434	"9"	2140.457783063	2137.943401199	1.5	0.1
0.01	1	0.00201588599998104	1	106	NA	204.938497943	0	0.55	4.22	1	195.407497033	195.409512919	"9"	2140.457783063	2137.943401199	1.5	0.1
0.01	1	0.00212828999997328	1	106	NA	204.938497943	0	0.55	4.22	1	195.641132757	195.643261047	"9"	2140.457783063	2137.943401199	1.5	0.1
0.01	1	0.00211822599999323	1	106	NA	204.938497943	0	0.55	4.22	1	195.874865978	195.876984204	"9"	2140.457783063	2137.943401199	1.5	0.1
0.01	1	0.0594219230001727	1	106	NA	204.938497943	0	0.55	4.22	1	196.108690202	196.168112125	"9"	2140.457783063	2137.943401199	1.5	0.1
0.01	1	0.00249085099994772	1	106	NA	204.938497943	0	0.55	4.22	1	196.392466541	196.394957392	"9"	2140.457783063	2137.943401199	1.5	0.1
0.01	1	0.00460014500004036	1	106	NA	204.938497943	0	0.55	4.22	1	196.626149492	196.630749637	"9"	2140.457783063	2137.943401199	1.5	0.1
0.01	1	0.0928234440000324	1	106	NA	204.938497943	0	0.55	4.22	1	196.859839622	196.952663066	"9"	2140.457783063	2137.943401199	1.5	0.1
0.01	1	0.00209342900006959	1	106	NA	204.938497943	0	0.55	4.22	1	197.177047637	197.179141066	"9"	2140.457783063	2137.943401199	1.5	0.1
0.01	1	0.0937366470000143	1	106	NA	204.938497943	0	0.55	4.22	1	197.410762897	197.504499544	"9"	2140.457783063	2137.943401199	1.5	0.1
0.01	1	0.00460448499984523	1	106	NA	204.938497943	0	0.55	4.22	1	197.728038077	197.732642562	"9"	2140.457783063	2137.943401199	1.5	0.1
0.01	1	0.00393030700001873	1	106	NA	204.938497943	0	0.55	4.22	1	197.961717684	197.965647991	"9"	2140.457783063	2137.943401199	1.5	0.1
0.01	1	0.0842640450000545	1	106	NA	204.938497943	0	0.55	4.22	1	198.195463662	198.279727707	"9"	2140.457783063	2137.943401199	1.5	0.1
0.01	1	0.00400046899994777	1	106	NA	204.938497943	0	0.55	4.22	1	198.512601694	198.516602163	"9"	2140.457783063	2137.943401199	1.5	0.1
0.01	1	0.0039105290002226	1	106	NA	204.938497943	0	0.55	4.22	1	198.746312374	198.750222903	"9"	2140.457783063	2137.943401199	1.5	0.1
0.01	1	0.0832688129999042	1	106	NA	204.938497943	0	0.55	4.22	1	198.980204767	199.06347358	"9"	2140.457783063	2137.943401199	1.5	0.1
0.01	1	0.00214017400003286	1	106	NA	204.938497943	0	0.55	4.22	1	199.297318959	199.299459133	"9"	2140.457783063	2137.943401199	1.5	0.1
0.01	1	0.00389901300013662	1	106	NA	204.938497943	0	0.55	4.22	1	199.531012664	199.534911677	"9"	2140.457783063	2137.943401199	1.5	0.1
0.01	1	0.052509160999989	1	106	NA	204.938497943	0	0.55	4.22	1	199.764721622	199.817230783	"9"	2140.457783063	2137.943401199	1.5	0.1
0.01	1	0.00199143000008917	1	106	NA	204.938497943	0	0.55	4.22	1	200.048644132	200.050635562	"9"	2140.457783063	2137.943401199	1.5	0.1
0.01	1	0.00379917300006127	1	106	NA	204.938497943	0	0.55	4.22	1	200.282252984	200.286052157	"9"	2140.457783063	2137.943401199	1.5	0.1
0.01	1	0.0920742270000119	1	106	NA	204.938497943	0	0.55	4.22	1	200.516039259	200.608113486	"9"	2140.457783063	2137.943401199	1.5	0.1
0.01	1	0.00235648300008506	1	106	NA	204.938497943	0	0.55	4.22	1	200.833182725	200.835539208	"9"	2140.457783063	2137.943401199	1.5	0.1
0.01	1	0.00394234000009419	1	106	NA	204.938497943	0	0.55	4.22	1	201.066948967	201.070891307	"9"	2140.457783063	2137.943401199	1.5	0.1
0.01	1	0.0758948119998877	1	106	NA	204.938497943	0	0.55	4.22	1	201.300677377	201.376572189	"9"	2140.457783063	2137.943401199	1.5	0.1
0.01	1	0.00206335800021407	1	106	NA	204.938497943	0	0.55	4.22	1	201.601122894	201.603186252	"9"	2140.457783063	2137.943401199	1.5	0.1
0.01	1	0.0020200249998652	1	106	NA	204.938497943	0	0.55	4.22	1	201.834880265	201.83690029	"9"	2140.457783063	2137.943401199	1.5	0.1
0.01	1	0.00435856700005388	1	106	NA	204.938497943	0	0.55	4.22	1	202.068627932	202.072986499	"9"	2140.457783063	2137.943401199	1.5	0.1
0.01	1	0.0820812169999954	1	106	NA	204.938497943	0	0.55	4.22	1	202.302325142	202.384406359	"9"	2140.457783063	2137.943401199	1.5	0.1
0.01	1	0.00202970999998797	1	106	NA	204.938497943	0	0.55	4.22	1	202.619603942	202.621633652	"9"	2140.457783063	2137.943401199	1.5	0.1
0.01	1	0.0905069509999521	1	106	NA	204.938497943	0	0.55	4.22	1	202.853253294	202.943760245	"9"	2140.457783063	2137.943401199	1.5	0.1
0.01	1	0.00364456500005872	1	106	NA	204.938497943	0	0.55	4.22	1	203.170501142	203.174145707	"9"	2140.457783063	2137.943401199	1.5	0.1
0.01	1	0.00367446900008872	1	106	NA	204.938497943	0	0.55	4.22	1	203.404225522	203.407899991	"9"	2140.457783063	2137.943401199	1.5	0.1
0.01	1	0.0663987319999251	1	106	NA	204.938497943	0	0.55	4.22	1	203.638004682	203.704403414	"9"	2140.457783063	2137.943401199	1.5	0.1
0.01	1	0.00397419299997637	1	106	NA	204.938497943	0	0.55	4.22	1	203.938377914	203.942352107	"9"	2140.457783063	2137.943401199	1.5	0.1
0.01	1	0.764845243000082	2	106	NA	204.938497943	0	0.55	4.22	1	204.172170397	204.93701564	"9"	2140.457783063	2137.943401199	1.5	0.1
0.01	1	0.437697009999965	1	21	212.956703282	NA	1	0	4.22	1	206.993742747	207.431439757	"10"	2140.457783063	2137.943401199	1.5	0.1
0.01	1	0.00398981399985132	1	21	212.956703282	NA	1	0	4.22	1	207.661274187	207.665264001	"10"	2140.457783063	2137.943401199	1.5	0.1
0.01	1	0.0887657880000461	1	21	212.956703282	NA	1	0	4.22	1	207.895149443	207.983915231	"10"	2140.457783063	2137.943401199	1.5	0.1
0.01	1	0.00214975699987008	1	21	212.956703282	NA	1	0	4.22	1	208.212294995	208.214444752	"10"	2140.457783063	2137.943401199	1.5	0.1
0.01	1	0.00424151300012454	1	21	212.956703282	NA	1	0	4.22	1	208.446031519	208.450273032	"10"	2140.457783063	2137.943401199	1.5	0.1
0.01	1	0.0636570570000003	1	21	212.956703282	NA	1	0	4.22	1	208.679752522	208.743409579	"10"	2140.457783063	2137.943401199	1.5	0.1
0.01	1	0.00313907199983987	1	21	212.956703282	NA	1	0	4.22	1	208.980217125	208.983356197	"10"	2140.457783063	2137.943401199	1.5	0.1
0.01	1	0.122703963000049	1	21	212.956703282	NA	1	0	4.22	1	209.213911844	209.336615807	"10"	2140.457783063	2137.943401199	1.5	0.1
0.01	1	0.00201080600004389	1	21	212.956703282	NA	1	0	4.22	1	209.564516125	209.566526931	"10"	2140.457783063	2137.943401199	1.5	0.1
0.01	1	0.106679500999917	1	21	212.956703282	NA	1	0	4.22	1	209.798311105	209.904990606	"10"	2140.457783063	2137.943401199	1.5	0.1
0.01	1	0.00455560999989757	1	21	212.956703282	NA	1	0	4.22	1	210.132190272	210.136745882	"10"	2140.457783063	2137.943401199	1.5	0.1
0.01	1	0.106810408000001	1	21	212.956703282	NA	1	0	4.22	1	210.365879957	210.472690365	"10"	2140.457783063	2137.943401199	1.5	0.1
0.01	1	0.00460764500007826	1	21	212.956703282	NA	1	0	4.22	1	210.699811817	210.704419462	"10"	2140.457783063	2137.943401199	1.5	0.1
0.01	1	0.00387249799996425	1	21	212.956703282	NA	1	0	4.22	1	210.933623949	210.937496447	"10"	2140.457783063	2137.943401199	1.5	0.1
0.01	1	0.0975930199999766	1	21	212.956703282	NA	1	0	4.22	1	211.167231577	211.264824597	"10"	2140.457783063	2137.943401199	1.5	0.1
0.01	1	0.00394897000001038	1	21	212.956703282	NA	1	0	4.22	1	211.501097867	211.505046837	"10"	2140.457783063	2137.943401199	1.5	0.1
0.01	1	0.105968910000001	1	21	212.956703282	NA	1	0	4.22	1	211.734881247	211.840850157	"10"	2140.457783063	2137.943401199	1.5	0.1
0.01	1	0.00458038500005387	1	21	212.956703282	NA	1	0	4.22	1	212.068802517	212.073382902	"10"	2140.457783063	2137.943401199	1.5	0.1
0.01	1	0.0045369419999588	1	21	212.956703282	NA	1	0	4.22	1	212.302547742	212.307084684	"10"	2140.457783063	2137.943401199	1.5	0.1
0.01	1	0.0713400429999638	1	21	212.956703282	NA	1	0	4.22	1	212.536325579	212.607665622	"10"	2140.457783063	2137.943401199	1.5	0.1
0.01	1	0.0019856339999933	1	21	212.956703282	NA	1	0	4.22	1	212.836694721	212.838680355	"10"	2140.457783063	2137.943401199	1.5	0.1
0.01	1	0.425273458999982	1	19	220.320094032	NA	1	0	4.22	1	215.007150982	215.432424441	"11"	2140.457783063	2137.943401199	1.5	0.1
0.01	1	0.00397597500000302	1	19	220.320094032	NA	1	0	4.22	1	215.658160534	215.662136509	"11"	2140.457783063	2137.943401199	1.5	0.1
0.01	1	0.0449996679999458	1	19	220.320094032	NA	1	0	4.22	1	215.891835339	215.936835007	"11"	2140.457783063	2137.943401199	1.5	0.1
0.01	1	0.00389695300009407	1	19	220.320094032	NA	1	0	4.22	1	216.158956694	216.162853647	"11"	2140.457783063	2137.943401199	1.5	0.1
0.01	1	0.0712640960000499	1	19	220.320094032	NA	1	0	4.22	1	216.392827767	216.464091863	"11"	2140.457783063	2137.943401199	1.5	0.1
0.01	1	0.00376656000003095	1	19	220.320094032	NA	1	0	4.22	1	216.693216827	216.696983387	"11"	2140.457783063	2137.943401199	1.5	0.1
0.01	1	0.0726804840001023	1	19	220.320094032	NA	1	0	4.22	1	216.926960667	216.999641151	"11"	2140.457783063	2137.943401199	1.5	0.1
0.01	1	0.00448516999995263	1	19	220.320094032	NA	1	0	4.22	1	217.227422802	217.231907972	"11"	2140.457783063	2137.943401199	1.5	0.1
0.01	1	0.0596033389999775	1	19	220.320094032	NA	1	0	4.22	1	217.461183604	217.520786943	"11"	2140.457783063	2137.943401199	1.5	0.1
0.01	1	0.00368916200000058	1	19	220.320094032	NA	1	0	4.22	1	217.744986799	217.748675961	"11"	2140.457783063	2137.943401199	1.5	0.1
0.01	1	0.101018869999962	1	19	220.320094032	NA	1	0	4.22	1	217.978712212	218.079731082	"11"	2140.457783063	2137.943401199	1.5	0.1
0.01	1	0.00454600299985941	1	19	220.320094032	NA	1	0	4.22	1	218.312629769	218.317175772	"11"	2140.457783063	2137.943401199	1.5	0.1
0.01	1	0.0867696769998929	1	19	220.320094032	NA	1	0	4.22	1	218.546375432	218.633145109	"11"	2140.457783063	2137.943401199	1.5	0.1
0.01	1	0.00389931499989871	1	19	220.320094032	NA	1	0	4.22	1	218.863536132	218.867435447	"11"	2140.457783063	2137.943401199	1.5	0.1
0.01	1	0.0783608849999382	1	19	220.320094032	NA	1	0	4.22	1	219.097301897	219.175662782	"11"	2140.457783063	2137.943401199	1.5	0.1
0.01	1	0.00248343100020065	1	19	220.320094032	NA	1	0	4.22	1	219.397815957	219.400299388	"11"	2140.457783063	2137.943401199	1.5	0.1
0.01	1	0.111898628000063	1	19	220.320094032	NA	1	0	4.22	1	219.631475234	219.743373862	"11"	2140.457783063	2137.943401199	1.5	0.1
0.01	1	0.0021390040001279	1	19	220.320094032	NA	1	0	4.22	1	219.965334991	219.967473995	"11"	2140.457783063	2137.943401199	1.5	0.1
0.01	1	0.00340478599991911	1	19	220.320094032	NA	1	0	4.22	1	220.199173567	220.202578353	"11"	2140.457783063	2137.943401199	1.5	0.1
0.01	1	0.00386636300004284	1	63	NA	232.098902454	0	0.34	4.56	1	222.369469134	222.373335497	"12"	2140.457783063	2137.943401199	1.5	0.1
0.01	1	0.0691309999999703	1	63	NA	232.098902454	0	0.34	4.56	1	222.603169442	222.672300442	"12"	2140.457783063	2137.943401199	1.5	0.1
0.01	1	0.00375686899997163	1	63	NA	232.098902454	0	0.34	4.56	1	222.903656132	222.907413001	"12"	2140.457783063	2137.943401199	1.5	0.1
0.01	1	0.0627145539999674	1	63	NA	232.098902454	0	0.34	4.56	1	223.137471837	223.200186391	"12"	2140.457783063	2137.943401199	1.5	0.1
0.01	1	0.130838360000098	1	63	NA	232.098902454	0	0.34	4.56	1	223.437842547	223.568680907	"12"	2140.457783063	2137.943401199	1.5	0.1
0.01	1	0.123160466999934	1	63	NA	232.098902454	0	0.34	4.56	1	223.805133324	223.928293791	"12"	2140.457783063	2137.943401199	1.5	0.1
0.01	1	0.00368031500011057	1	63	NA	232.098902454	0	0.34	4.56	1	224.155831652	224.159511967	"12"	2140.457783063	2137.943401199	1.5	0.1
0.01	1	0.0902706680001302	1	63	NA	232.098902454	0	0.34	4.56	1	224.389437937	224.479708605	"12"	2140.457783063	2137.943401199	1.5	0.1
0.01	1	0.00386146799996823	1	63	NA	232.098902454	0	0.34	4.56	1	224.706668627	224.710530095	"12"	2140.457783063	2137.943401199	1.5	0.1
0.01	1	0.00460894999991979	1	63	NA	232.098902454	0	0.34	4.56	1	224.940395157	224.945004107	"12"	2140.457783063	2137.943401199	1.5	0.1
0.01	1	0.0733631959999457	1	63	NA	232.098902454	0	0.34	4.56	1	225.174131409	225.247494605	"12"	2140.457783063	2137.943401199	1.5	0.1
0.01	1	0.00234408299979805	1	63	NA	232.098902454	0	0.34	4.56	1	225.474605861	225.476949944	"12"	2140.457783063	2137.943401199	1.5	0.1
0.01	1	0.00391695600001185	1	63	NA	232.098902454	0	0.34	4.56	1	225.708475329	225.712392285	"12"	2140.457783063	2137.943401199	1.5	0.1
0.01	1	0.0738001750000876	1	63	NA	232.098902454	0	0.34	4.56	1	225.942048299	226.015848474	"12"	2140.457783063	2137.943401199	1.5	0.1
0.01	1	0.00213172000007944	1	63	NA	232.098902454	0	0.34	4.56	1	226.242632941	226.244764661	"12"	2140.457783063	2137.943401199	1.5	0.1
0.01	1	0.00220565199992961	1	63	NA	232.098902454	0	0.34	4.56	1	226.476339748	226.4785454	"12"	2140.457783063	2137.943401199	1.5	0.1
0.01	1	0.113841848999982	1	63	NA	232.098902454	0	0.34	4.56	1	226.709987974	226.823829823	"12"	2140.457783063	2137.943401199	1.5	0.1
0.01	1	0.00205528900005447	1	63	NA	232.098902454	0	0.34	4.56	1	227.060684527	227.062739816	"12"	2140.457783063	2137.943401199	1.5	0.1
0.01	1	0.0046081119999144	1	63	NA	232.098902454	0	0.34	4.56	1	227.294396382	227.299004494	"12"	2140.457783063	2137.943401199	1.5	0.1
0.01	1	0.00460293700007242	1	63	NA	232.098902454	0	0.34	4.56	1	227.528119377	227.532722314	"12"	2140.457783063	2137.943401199	1.5	0.1
0.01	1	0.0614180210000086	1	63	NA	232.098902454	0	0.34	4.56	1	227.761900914	227.823318935	"12"	2140.457783063	2137.943401199	1.5	0.1
0.01	1	0.00245065200010686	1	63	NA	232.098902454	0	0.34	4.56	1	228.045671009	228.048121661	"12"	2140.457783063	2137.943401199	1.5	0.1
0.01	1	0.00399254300009488	1	63	NA	232.098902454	0	0.34	4.56	1	228.279465532	228.283458075	"12"	2140.457783063	2137.943401199	1.5	0.1
0.01	1	0.103564604999974	1	63	NA	232.098902454	0	0.34	4.56	1	228.513165659	228.616730264	"12"	2140.457783063	2137.943401199	1.5	0.1
0.01	1	0.0021670040000572	1	63	NA	232.098902454	0	0.34	4.56	1	228.847055583	228.849222587	"12"	2140.457783063	2137.943401199	1.5	0.1
0.01	1	0.00349467299997741	1	63	NA	232.098902454	0	0.34	4.56	1	229.080742832	229.084237505	"12"	2140.457783063	2137.943401199	1.5	0.1
0.01	1	0.0863874949998262	1	63	NA	232.098902454	0	0.34	4.56	1	229.314487559	229.400875054	"12"	2140.457783063	2137.943401199	1.5	0.1
0.01	1	0.00201058599986936	1	63	NA	232.098902454	0	0.34	4.56	1	229.631668074	229.63367866	"12"	2140.457783063	2137.943401199	1.5	0.1
0.01	1	0.0037477390001186	1	63	NA	232.098902454	0	0.34	4.56	1	229.865363342	229.869111081	"12"	2140.457783063	2137.943401199	1.5	0.1
0.01	1	0.0857321460000549	1	63	NA	232.098902454	0	0.34	4.56	1	230.099072199	230.184804345	"12"	2140.457783063	2137.943401199	1.5	0.1
0.01	1	0.00217593499996838	1	63	NA	232.098902454	0	0.34	4.56	1	230.416292	230.418467935	"12"	2140.457783063	2137.943401199	1.5	0.1
0.01	1	0.00453691000006984	1	63	NA	232.098902454	0	0.34	4.56	1	230.650227177	230.654764087	"12"	2140.457783063	2137.943401199	1.5	0.1
0.01	1	0.0932999130000098	1	63	NA	232.098902454	0	0.34	4.56	1	230.883803604	230.977103517	"12"	2140.457783063	2137.943401199	1.5	0.1
0.01	1	0.00199787599990486	1	63	NA	232.098902454	0	0.34	4.56	1	231.200966804	231.20296468	"12"	2140.457783063	2137.943401199	1.5	0.1
0.01	1	0.662685891999899	2	63	NA	232.098902454	0	0.34	4.56	1	231.434682993	232.097368885	"12"	2140.457783063	2137.943401199	1.5	0.1
0.01	1	0.1153728459999	1	54	NA	248.514339321	0	0.53	5.09	1	234.155922162	234.271295008	"13"	2140.457783063	2137.943401199	1.5	0.1
0.01	1	0.00365767100015546	1	54	NA	248.514339321	0	0.53	5.09	1	234.506550482	234.510208153	"13"	2140.457783063	2137.943401199	1.5	0.1
0.01	1	0.0842621249998956	1	54	NA	248.514339321	0	0.53	5.09	1	234.740290977	234.824553102	"13"	2140.457783063	2137.943401199	1.5	0.1
0.01	1	0.00437064300012935	1	54	NA	248.514339321	0	0.53	5.09	1	235.057511109	235.061881752	"13"	2140.457783063	2137.943401199	1.5	0.1
0.01	1	0.0527104749999125	1	54	NA	248.514339321	0	0.53	5.09	1	235.291229307	235.343939782	"13"	2140.457783063	2137.943401199	1.5	0.1
0.01	1	0.00208954499998981	1	54	NA	248.514339321	0	0.53	5.09	1	235.574969451	235.577058996	"13"	2140.457783063	2137.943401199	1.5	0.1
0.01	1	0.00399241900004199	1	54	NA	248.514339321	0	0.53	5.09	1	235.808775862	235.812768281	"13"	2140.457783063	2137.943401199	1.5	0.1
0.01	1	0.0783607600001233	1	54	NA	248.514339321	0	0.53	5.09	1	236.042501207	236.120861967	"13"	2140.457783063	2137.943401199	1.5	0.1
0.01	1	0.00213255099993148	1	54	NA	248.514339321	0	0.53	5.09	1	236.342826351	236.344958902	"13"	2140.457783063	2137.943401199	1.5	0.1
0.01	1	0.0038282599998638	1	54	NA	248.514339321	0	0.53	5.09	1	236.576664139	236.580492399	"13"	2140.457783063	2137.943401199	1.5	0.1
0.01	1	0.102700324999887	1	54	NA	248.514339321	0	0.53	5.09	1	236.810362957	236.913063282	"13"	2140.457783063	2137.943401199	1.5	0.1
0.01	1	0.00467348199981643	1	54	NA	248.514339321	0	0.53	5.09	1	237.144299102	237.148972584	"13"	2140.457783063	2137.943401199	1.5	0.1
0.01	1	0.00379963099999259	1	54	NA	248.514339321	0	0.53	5.09	1	237.378037804	237.381837435	"13"	2140.457783063	2137.943401199	1.5	0.1
0.01	1	0.00399549300004765	1	54	NA	248.514339321	0	0.53	5.09	1	237.611722444	237.615717937	"13"	2140.457783063	2137.943401199	1.5	0.1
0.01	1	0.0993588320000072	1	54	NA	248.514339321	0	0.53	5.09	1	237.845496679	237.944855511	"13"	2140.457783063	2137.943401199	1.5	0.1
0.01	1	0.00204753100001653	1	54	NA	248.514339321	0	0.53	5.09	1	238.179386681	238.181434212	"13"	2140.457783063	2137.943401199	1.5	0.1
0.01	1	0.00459979500010377	1	54	NA	248.514339321	0	0.53	5.09	1	238.413125442	238.417725237	"13"	2140.457783063	2137.943401199	1.5	0.1
0.01	1	0.106056038000133	1	54	NA	248.514339321	0	0.53	5.09	1	238.646826384	238.752882422	"13"	2140.457783063	2137.943401199	1.5	0.1
0.01	1	0.00238606200014146	1	54	NA	248.514339321	0	0.53	5.09	1	238.980839699	238.983225761	"13"	2140.457783063	2137.943401199	1.5	0.1
0.01	1	0.00326112599987027	1	54	NA	248.514339321	0	0.53	5.09	1	239.214466911	239.217728037	"13"	2140.457783063	2137.943401199	1.5	0.1
0.01	1	0.00382689399998526	1	54	NA	248.514339321	0	0.53	5.09	1	239.448158479	239.451985373	"13"	2140.457783063	2137.943401199	1.5	0.1
0.01	1	0.0789436790000764	1	54	NA	248.514339321	0	0.53	5.09	1	239.681924867	239.760868546	"13"	2140.457783063	2137.943401199	1.5	0.1
0.01	1	0.00199199300004693	1	54	NA	248.514339321	0	0.53	5.09	1	239.999100562	240.001092555	"13"	2140.457783063	2137.943401199	1.5	0.1
0.01	1	0.0879409369999848	1	54	NA	248.514339321	0	0.53	5.09	1	240.232837374	240.320778311	"13"	2140.457783063	2137.943401199	1.5	0.1
0.01	1	0.00220265600000857	1	54	NA	248.514339321	0	0.53	5.09	1	240.549972803	240.552175459	"13"	2140.457783063	2137.943401199	1.5	0.1
