"payoff.level"	"balloon"	"rt"	"resp"	"explode.trial"	"explode.time"	"finish.time"	"exploded"	"trial.total"	"cumulative.total"	"finished"	"trial.start"	"trial.end"	"trial.num"	"secs"	"start.time"	"iti"	"isi"
0.01	1	1.70345467999999	1	64	NA	12.936411864	0	0.22	0.22	1	0.0143388330000107	1.717793513	"1"	691.348354403	689.169798038	1.5	0.1
0.01	1	0.450768069999981	1	64	NA	12.936411864	0	0.22	0.22	1	2.06792898100002	2.518697051	"1"	691.348354403	689.169798038	1.5	0.1
0.01	1	0.334149394000008	1	64	NA	12.936411864	0	0.22	0.22	1	2.752310034	3.08645942800001	"1"	691.348354403	689.169798038	1.5	0.1
0.01	1	0.302001791000009	1	64	NA	12.936411864	0	0.22	0.22	1	3.31996212600001	3.62196391700002	"1"	691.348354403	689.169798038	1.5	0.1
0.01	1	0.00198395500001425	1	64	NA	12.936411864	0	0.22	0.22	1	3.85421893500001	3.85620289000002	"1"	691.348354403	689.169798038	1.5	0.1
0.01	1	0.350749750000034	1	64	NA	12.936411864	0	0.22	0.22	1	4.08796668299999	4.43871643300002	"1"	691.348354403	689.169798038	1.5	0.1
0.01	1	0.294094788999985	1	64	NA	12.936411864	0	0.22	0.22	1	4.672192548	4.96628733699998	"1"	691.348354403	689.169798038	1.5	0.1
0.01	1	0.249253925000005	1	64	NA	12.936411864	0	0.22	0.22	1	5.18966491200001	5.43891883700002	"1"	691.348354403	689.169798038	1.5	0.1
0.01	1	0.268862591000016	1	64	NA	12.936411864	0	0.22	0.22	1	5.67395497199999	5.94281756300001	"1"	691.348354403	689.169798038	1.5	0.1
0.01	1	0.236941139999999	1	64	NA	12.936411864	0	0.22	0.22	1	6.17487485800001	6.41181599800001	"1"	691.348354403	689.169798038	1.5	0.1
0.01	1	0.261087510000038	1	64	NA	12.936411864	0	0.22	0.22	1	6.64217601799999	6.90326352800002	"1"	691.348354403	689.169798038	1.5	0.1
0.01	1	0.256462320000026	1	64	NA	12.936411864	0	0.22	0.22	1	7.126338933	7.38280125300003	"1"	691.348354403	689.169798038	1.5	0.1
0.01	1	0.275686027999996	1	64	NA	12.936411864	0	0.22	0.22	1	7.610449378	7.88613540599999	"1"	691.348354403	689.169798038	1.5	0.1
0.01	1	0.280009378999978	1	64	NA	12.936411864	0	0.22	0.22	1	8.111425295	8.39143467399998	"1"	691.348354403	689.169798038	1.5	0.1
0.01	1	0.218848412	1	64	NA	12.936411864	0	0.22	0.22	1	8.62879439599999	8.84764280799999	"1"	691.348354403	689.169798038	1.5	0.1
0.01	1	0.270213973000011	1	64	NA	12.936411864	0	0.22	0.22	1	9.079592983	9.34980695600001	"1"	691.348354403	689.169798038	1.5	0.1
0.01	1	0.234120349999955	1	64	NA	12.936411864	0	0.22	0.22	1	9.58050167200003	9.81462202199998	"1"	691.348354403	689.169798038	1.5	0.1
0.01	1	0.25527381500001	1	64	NA	12.936411864	0	0.22	0.22	1	10.047807301	10.303081116	"1"	691.348354403	689.169798038	1.5	0.1
0.01	1	0.226945501999978	1	64	NA	12.936411864	0	0.22	0.22	1	10.532145748	10.75909125	"1"	691.348354403	689.169798038	1.5	0.1
0.01	1	0.24887413700003	1	64	NA	12.936411864	0	0.22	0.22	1	10.982758118	11.231632255	"1"	691.348354403	689.169798038	1.5	0.1
0.01	1	0.187306997999997	1	64	NA	12.936411864	0	0.22	0.22	1	11.466997058	11.654304056	"1"	691.348354403	689.169798038	1.5	0.1
0.01	1	0.202904821999994	1	64	NA	12.936411864	0	0.22	0.22	1	11.884399268	12.08730409	"1"	691.348354403	689.169798038	1.5	0.1
0.01	1	0.616319805000046	2	64	NA	12.936411864	0	0.22	0.22	1	12.318312415	12.93463222	"1"	691.348354403	689.169798038	1.5	0.1
0.01	1	0.60860027800004	1	102	NA	23.792887448	0	0.2	0.42	1	14.989593938	15.598194216	"2"	691.348354403	689.169798038	1.5	0.1
0.01	1	0.213846466999996	1	102	NA	23.792887448	0	0.2	0.42	1	15.824316773	16.03816324	"2"	691.348354403	689.169798038	1.5	0.1
0.01	1	0.19635583400003	1	102	NA	23.792887448	0	0.2	0.42	1	16.27502709	16.471382924	"2"	691.348354403	689.169798038	1.5	0.1
0.01	1	0.129387285999996	1	102	NA	23.792887448	0	0.2	0.42	1	16.709149523	16.838536809	"2"	691.348354403	689.169798038	1.5	0.1
0.01	1	0.130579742000009	1	102	NA	23.792887448	0	0.2	0.42	1	17.076341393	17.206921135	"2"	691.348354403	689.169798038	1.5	0.1
0.01	1	0.170308053999975	1	102	NA	23.792887448	0	0.2	0.42	1	17.443702328	17.614010382	"2"	691.348354403	689.169798038	1.5	0.1
0.01	1	0.178574438999988	1	102	NA	23.792887448	0	0.2	0.42	1	17.844398193	18.022972632	"2"	691.348354403	689.169798038	1.5	0.1
0.01	1	0.177566259999992	1	102	NA	23.792887448	0	0.2	0.42	1	18.244991923	18.422558183	"2"	691.348354403	689.169798038	1.5	0.1
0.01	1	0.175874944999975	1	102	NA	23.792887448	0	0.2	0.42	1	18.645752355	18.8216273	"2"	691.348354403	689.169798038	1.5	0.1
0.01	1	0.175664001999962	1	102	NA	23.792887448	0	0.2	0.42	1	19.04647324	19.222137242	"2"	691.348354403	689.169798038	1.5	0.1
0.01	1	0.136193121000019	1	102	NA	23.792887448	0	0.2	0.42	1	19.447057063	19.583250184	"2"	691.348354403	689.169798038	1.5	0.1
0.01	1	0.111394974999996	1	102	NA	23.792887448	0	0.2	0.42	1	19.814358778	19.925753753	"2"	691.348354403	689.169798038	1.5	0.1
0.01	1	0.194161491999978	1	102	NA	23.792887448	0	0.2	0.42	1	20.14831169	20.342473182	"2"	691.348354403	689.169798038	1.5	0.1
0.01	1	0.13671945699997	1	102	NA	23.792887448	0	0.2	0.42	1	20.565623748	20.702343205	"2"	691.348354403	689.169798038	1.5	0.1
0.01	1	0.176720053999986	1	102	NA	23.792887448	0	0.2	0.42	1	20.932915893	21.109635947	"2"	691.348354403	689.169798038	1.5	0.1
0.01	1	0.184650997000006	1	102	NA	23.792887448	0	0.2	0.42	1	21.333584453	21.51823545	"2"	691.348354403	689.169798038	1.5	0.1
0.01	1	0.223793290000003	1	102	NA	23.792887448	0	0.2	0.42	1	21.751024823	21.974818113	"2"	691.348354403	689.169798038	1.5	0.1
0.01	1	0.187948559000006	1	102	NA	23.792887448	0	0.2	0.42	1	22.201714821	22.38966338	"2"	691.348354403	689.169798038	1.5	0.1
0.01	1	0.194615967000004	1	102	NA	23.792887448	0	0.2	0.42	1	22.619020798	22.813636765	"2"	691.348354403	689.169798038	1.5	0.1
0.01	1	0.201890748000039	1	102	NA	23.792887448	0	0.2	0.42	1	23.036440698	23.238331446	"2"	691.348354403	689.169798038	1.5	0.1
0.01	1	0.320690619999993	2	102	NA	23.792887448	0	0.2	0.42	1	23.470508868	23.791199488	"2"	691.348354403	689.169798038	1.5	0.1
0.01	1	0.422364393999999	1	97	NA	37.040092636	0	0.25	0.67	1	25.824548188	26.246912582	"3"	691.348354403	689.169798038	1.5	0.1
0.01	1	0.0579595469999958	1	97	NA	37.040092636	0	0.25	0.67	1	26.475639863	26.53359941	"3"	691.348354403	689.169798038	1.5	0.1
0.01	1	0.118329975999984	1	97	NA	37.040092636	0	0.25	0.67	1	26.759441241	26.877771217	"3"	691.348354403	689.169798038	1.5	0.1
0.01	1	0.136260723000021	1	97	NA	37.040092636	0	0.25	0.67	1	27.109949053	27.246209776	"3"	691.348354403	689.169798038	1.5	0.1
0.01	1	0.200668921999977	1	97	NA	37.040092636	0	0.25	0.67	1	27.477277623	27.677946545	"3"	691.348354403	689.169798038	1.5	0.1
0.01	1	0.175696534999986	1	97	NA	37.040092636	0	0.25	0.67	1	27.911326227	28.087022762	"3"	691.348354403	689.169798038	1.5	0.1
0.01	1	0.231254514999989	1	97	NA	37.040092636	0	0.25	0.67	1	28.312031623	28.543286138	"3"	691.348354403	689.169798038	1.5	0.1
0.01	1	0.14668678999999	1	97	NA	37.040092636	0	0.25	0.67	1	28.779420523	28.926107313	"3"	691.348354403	689.169798038	1.5	0.1
0.01	1	0.243930219999982	1	97	NA	37.040092636	0	0.25	0.67	1	29.163397038	29.407327258	"3"	691.348354403	689.169798038	1.5	0.1
0.01	1	0.20028603999998	1	97	NA	37.040092636	0	0.25	0.67	1	29.630858265	29.831144305	"3"	691.348354403	689.169798038	1.5	0.1
0.01	1	0.156780007000009	1	97	NA	37.040092636	0	0.25	0.67	1	30.064910086	30.221690093	"3"	691.348354403	689.169798038	1.5	0.1
0.01	1	0.142476280000039	1	97	NA	37.040092636	0	0.25	0.67	1	30.448854248	30.591330528	"3"	691.348354403	689.169798038	1.5	0.1
0.01	1	0.254343733999974	1	97	NA	37.040092636	0	0.25	0.67	1	30.816224503	31.070568237	"3"	691.348354403	689.169798038	1.5	0.1
0.01	1	0.138676187000044	1	97	NA	37.040092636	0	0.25	0.67	1	31.300470638	31.439146825	"3"	691.348354403	689.169798038	1.5	0.1
0.01	1	0.154330590999962	1	97	NA	37.040092636	0	0.25	0.67	1	31.667605658	31.821936249	"3"	691.348354403	689.169798038	1.5	0.1
0.01	1	0.17167286099999	1	97	NA	37.040092636	0	0.25	0.67	1	32.051628285	32.223301146	"3"	691.348354403	689.169798038	1.5	0.1
0.01	1	0.147346814000002	1	97	NA	37.040092636	0	0.25	0.67	1	32.452154233	32.599501047	"3"	691.348354403	689.169798038	1.5	0.1
0.01	1	0.178743993000012	1	97	NA	37.040092636	0	0.25	0.67	1	32.83630884	33.015052833	"3"	691.348354403	689.169798038	1.5	0.1
0.01	1	0.128646469999978	1	97	NA	37.040092636	0	0.25	0.67	1	33.253646978	33.382293448	"3"	691.348354403	689.169798038	1.5	0.1
0.01	1	0.201750668000045	1	97	NA	37.040092636	0	0.25	0.67	1	33.620965498	33.822716166	"3"	691.348354403	689.169798038	1.5	0.1
0.01	1	0.342856074999986	1	97	NA	37.040092636	0	0.25	0.67	1	34.054988513	34.397844588	"3"	691.348354403	689.169798038	1.5	0.1
0.01	1	0.263415864000024	1	97	NA	37.040092636	0	0.25	0.67	1	34.622614598	34.886030462	"3"	691.348354403	689.169798038	1.5	0.1
0.01	1	0.275875323000037	1	97	NA	37.040092636	0	0.25	0.67	1	35.123490915	35.399366238	"3"	691.348354403	689.169798038	1.5	0.1
0.01	1	0.22182877299997	1	97	NA	37.040092636	0	0.25	0.67	1	35.624257558	35.846086331	"3"	691.348354403	689.169798038	1.5	0.1
0.01	1	0.371021704999976	1	97	NA	37.040092636	0	0.25	0.67	1	36.075028738	36.446050443	"3"	691.348354403	689.169798038	1.5	0.1
0.01	1	0.362423868000008	2	97	NA	37.040092636	0	0.25	0.67	1	36.675981072	37.03840494	"3"	691.348354403	689.169798038	1.5	0.1
0.01	1	0.302413108999986	1	51	NA	52.248389833	0	0.29	0.96	1	39.063399453	39.365812562	"4"	691.348354403	689.169798038	1.5	0.1
0.01	1	0.0801831640000046	1	51	NA	52.248389833	0	0.29	0.96	1	39.59764193	39.677825094	"4"	691.348354403	689.169798038	1.5	0.1
0.01	1	0.0190048609999849	1	51	NA	52.248389833	0	0.29	0.96	1	39.914942778	39.933947639	"4"	691.348354403	689.169798038	1.5	0.1
0.01	1	0.066034185000035	1	51	NA	52.248389833	0	0.29	0.96	1	40.165286983	40.231321168	"4"	691.348354403	689.169798038	1.5	0.1
0.01	1	0.109792421000009	1	51	NA	52.248389833	0	0.29	0.96	1	40.465703298	40.575495719	"4"	691.348354403	689.169798038	1.5	0.1
0.01	1	0.0861801269999773	1	51	NA	52.248389833	0	0.29	0.96	1	40.799534723	40.88571485	"4"	691.348354403	689.169798038	1.5	0.1
0.01	1	0.128913846000046	1	51	NA	52.248389833	0	0.29	0.96	1	41.116774708	41.245688554	"4"	691.348354403	689.169798038	1.5	0.1
0.01	1	0.137984223000046	1	51	NA	52.248389833	0	0.29	0.96	1	41.484163483	41.622147706	"4"	691.348354403	689.169798038	1.5	0.1
0.01	1	0.140407686999993	1	51	NA	52.248389833	0	0.29	0.96	1	41.85141656	41.991824247	"4"	691.348354403	689.169798038	1.5	0.1
0.01	1	0.188565519000008	1	51	NA	52.248389833	0	0.29	0.96	1	42.218752193	42.407317712	"4"	691.348354403	689.169798038	1.5	0.1
0.01	1	0.194929428000023	1	51	NA	52.248389833	0	0.29	0.96	1	42.636072438	42.831001866	"4"	691.348354403	689.169798038	1.5	0.1
0.01	1	0.207751975999997	1	51	NA	52.248389833	0	0.29	0.96	1	43.070054503	43.277806479	"4"	691.348354403	689.169798038	1.5	0.1
0.01	1	0.174911989000009	1	51	NA	52.248389833	0	0.29	0.96	1	43.504213028	43.679125017	"4"	691.348354403	689.169798038	1.5	0.1
0.01	1	0.438359549999973	1	51	NA	52.248389833	0	0.29	0.96	1	43.904960338	44.343319888	"4"	691.348354403	689.169798038	1.5	0.1
0.01	1	0.289166980999994	1	51	NA	52.248389833	0	0.29	0.96	1	44.57260275	44.861769731	"4"	691.348354403	689.169798038	1.5	0.1
0.01	1	0.219696973999987	1	51	NA	52.248389833	0	0.29	0.96	1	45.090119134	45.309816108	"4"	691.348354403	689.169798038	1.5	0.1
0.01	1	0.290459749000036	1	51	NA	52.248389833	0	0.29	0.96	1	45.540993008	45.831452757	"4"	691.348354403	689.169798038	1.5	0.1
0.01	1	0.164251702000001	1	51	NA	52.248389833	0	0.29	0.96	1	46.058472048	46.22272375	"4"	691.348354403	689.169798038	1.5	0.1
0.01	1	0.266488168000024	1	51	NA	52.248389833	0	0.29	0.96	1	46.4591494	46.725637568	"4"	691.348354403	689.169798038	1.5	0.1
0.01	1	0.262311662000002	1	51	NA	52.248389833	0	0.29	0.96	1	46.960014813	47.222326475	"4"	691.348354403	689.169798038	1.5	0.1
0.01	1	0.274240538000015	1	51	NA	52.248389833	0	0.29	0.96	1	47.444180378	47.718420916	"4"	691.348354403	689.169798038	1.5	0.1
0.01	1	0.285158279999962	1	51	NA	52.248389833	0	0.29	0.96	1	47.945004668	48.230162948	"4"	691.348354403	689.169798038	1.5	0.1
0.01	1	0.19916146199995	1	51	NA	52.248389833	0	0.29	0.96	1	48.462537895	48.661699357	"4"	691.348354403	689.169798038	1.5	0.1
0.01	1	0.494991212000002	1	51	NA	52.248389833	0	0.29	0.96	1	48.896647013	49.391638225	"4"	691.348354403	689.169798038	1.5	0.1
0.01	1	0.344001380999998	1	51	NA	52.248389833	0	0.29	0.96	1	49.631182575	49.975183956	"4"	691.348354403	689.169798038	1.5	0.1
0.01	1	0.27957255299998	1	51	NA	52.248389833	0	0.29	0.96	1	50.198824624	50.478397177	"4"	691.348354403	689.169798038	1.5	0.1
0.01	1	0.193517698999983	1	51	NA	52.248389833	0	0.29	0.96	1	50.71633774	50.909855439	"4"	691.348354403	689.169798038	1.5	0.1
0.01	1	0.208951334000005	1	51	NA	52.248389833	0	0.29	0.96	1	51.133729614	51.342680948	"4"	691.348354403	689.169798038	1.5	0.1
0.01	1	0.166767563000008	1	51	NA	52.248389833	0	0.29	0.96	1	51.567730664	51.734498227	"4"	691.348354403	689.169798038	1.5	0.1
0.01	1	0.278421134999974	2	51	NA	52.248389833	0	0.29	0.96	1	51.96839096	52.246812095	"4"	691.348354403	689.169798038	1.5	0.1
0.01	1	0.940916791999996	1	116	NA	66.152884844	0	0.39	1.35	1	54.288978638	55.22989543	"5"	691.348354403	689.169798038	1.5	0.1
0.01	1	0.0601006389999839	1	116	NA	66.152884844	0	0.39	1.35	1	55.457616733	55.517717372	"5"	691.348354403	689.169798038	1.5	0.1
0.01	1	0.0886318870000196	1	116	NA	66.152884844	0	0.39	1.35	1	55.758180193	55.84681208	"5"	691.348354403	689.169798038	1.5	0.1
0.01	1	0.0674326399999927	1	116	NA	66.152884844	0	0.39	1.35	1	56.075277547	56.142710187	"5"	691.348354403	689.169798038	1.5	0.1
0.01	1	0.0476009170000111	1	116	NA	66.152884844	0	0.39	1.35	1	56.375778496	56.423379413	"5"	691.348354403	689.169798038	1.5	0.1
0.01	1	0.0420063729999924	1	116	NA	66.152884844	0	0.39	1.35	1	56.659603593	56.701609966	"5"	691.348354403	689.169798038	1.5	0.1
0.01	1	0.0488547250000124	1	116	NA	66.152884844	0	0.39	1.35	1	56.926820025	56.97567475	"5"	691.348354403	689.169798038	1.5	0.1
0.01	1	0.0593248359999734	1	116	NA	66.152884844	0	0.39	1.35	1	57.21053267	57.269857506	"5"	691.348354403	689.169798038	1.5	0.1
0.01	1	0.097043412000005	1	116	NA	66.152884844	0	0.39	1.35	1	57.494327951	57.591371363	"5"	691.348354403	689.169798038	1.5	0.1
0.01	1	0.0255057809999926	1	116	NA	66.152884844	0	0.39	1.35	1	57.828274652	57.853780433	"5"	691.348354403	689.169798038	1.5	0.1
0.01	1	0.056079168999986	1	116	NA	66.152884844	0	0.39	1.35	1	58.078801563	58.134880732	"5"	691.348354403	689.169798038	1.5	0.1
0.01	1	0.0850201760000004	1	116	NA	66.152884844	0	0.39	1.35	1	58.362552958	58.447573134	"5"	691.348354403	689.169798038	1.5	0.1
0.01	1	0.0382567650000283	1	116	NA	66.152884844	0	0.39	1.35	1	58.679721095	58.71797786	"5"	691.348354403	689.169798038	1.5	0.1
0.01	1	0.0598496650000016	1	116	NA	66.152884844	0	0.39	1.35	1	58.946767658	59.006617323	"5"	691.348354403	689.169798038	1.5	0.1
0.01	1	0.0570399270000053	1	116	NA	66.152884844	0	0.39	1.35	1	59.230651625	59.287691552	"5"	691.348354403	689.169798038	1.5	0.1
0.01	1	0.0358386940000059	1	116	NA	66.152884844	0	0.39	1.35	1	59.514394493	59.550233187	"5"	691.348354403	689.169798038	1.5	0.1
0.01	1	0.040248283999972	1	116	NA	66.152884844	0	0.39	1.35	1	59.781656493	59.821904777	"5"	691.348354403	689.169798038	1.5	0.1
0.01	1	0.0462599340000338	1	116	NA	66.152884844	0	0.39	1.35	1	60.048713928	60.094973862	"5"	691.348354403	689.169798038	1.5	0.1
0.01	1	0.0184148339999979	1	116	NA	66.152884844	0	0.39	1.35	1	60.33257847	60.350993304	"5"	691.348354403	689.169798038	1.5	0.1
0.01	1	0.0398199389999832	1	116	NA	66.152884844	0	0.39	1.35	1	60.582923273	60.622743212	"5"	691.348354403	689.169798038	1.5	0.1
0.01	1	0.0364320900000052	1	116	NA	66.152884844	0	0.39	1.35	1	60.850083938	60.886516028	"5"	691.348354403	689.169798038	1.5	0.1
0.01	1	0.0419067690000361	1	116	NA	66.152884844	0	0.39	1.35	1	61.117220558	61.159127327	"5"	691.348354403	689.169798038	1.5	0.1
0.01	1	0.0384311789999856	1	116	NA	66.152884844	0	0.39	1.35	1	61.384304704	61.422735883	"5"	691.348354403	689.169798038	1.5	0.1
0.01	1	0.0110544560000108	1	116	NA	66.152884844	0	0.39	1.35	1	61.651432728	61.662487184	"5"	691.348354403	689.169798038	1.5	0.1
0.01	1	0.0173482839999792	1	116	NA	66.152884844	0	0.39	1.35	1	61.901776573	61.919124857	"5"	691.348354403	689.169798038	1.5	0.1
0.01	1	0.0303806649999956	1	116	NA	66.152884844	0	0.39	1.35	1	62.152221455	62.18260212	"5"	691.348354403	689.169798038	1.5	0.1
0.01	1	0.0190941959999691	1	116	NA	66.152884844	0	0.39	1.35	1	62.41932523	62.438419426	"5"	691.348354403	689.169798038	1.5	0.1
0.01	1	0.0318742970000017	1	116	NA	66.152884844	0	0.39	1.35	1	62.669721783	62.70159608	"5"	691.348354403	689.169798038	1.5	0.1
0.01	1	0.0463351740000348	1	116	NA	66.152884844	0	0.39	1.35	1	62.936892098	62.983227272	"5"	691.348354403	689.169798038	1.5	0.1
0.01	1	0.00403639699999303	1	116	NA	66.152884844	0	0.39	1.35	1	63.220616853	63.22465325	"5"	691.348354403	689.169798038	1.5	0.1
0.01	1	0.0250999070000262	1	116	NA	66.152884844	0	0.39	1.35	1	63.454388915	63.479488822	"5"	691.348354403	689.169798038	1.5	0.1
0.01	1	0.029797364999979	1	116	NA	66.152884844	0	0.39	1.35	1	63.704831538	63.734628903	"5"	691.348354403	689.169798038	1.5	0.1
0.01	1	0.0270684510000478	1	116	NA	66.152884844	0	0.39	1.35	1	63.972099208	63.999167659	"5"	691.348354403	689.169798038	1.5	0.1
0.01	1	0.0155758949999836	1	116	NA	66.152884844	0	0.39	1.35	1	64.222382168	64.237958063	"5"	691.348354403	689.169798038	1.5	0.1
0.01	1	0.021595977000004	1	116	NA	66.152884844	0	0.39	1.35	1	64.472832408	64.494428385	"5"	691.348354403	689.169798038	1.5	0.1
0.01	1	0.00325163000002249	1	116	NA	66.152884844	0	0.39	1.35	1	64.723177846	64.726429476	"5"	691.348354403	689.169798038	1.5	0.1
0.01	1	0.00897927400001208	1	116	NA	66.152884844	0	0.39	1.35	1	64.956925788	64.965905062	"5"	691.348354403	689.169798038	1.5	0.1
0.01	1	0.0038960849999512	1	116	NA	66.152884844	0	0.39	1.35	1	65.190579735	65.19447582	"5"	691.348354403	689.169798038	1.5	0.1
0.01	1	0.00222663099998499	1	116	NA	66.152884844	0	0.39	1.35	1	65.424478029	65.42670466	"5"	691.348354403	689.169798038	1.5	0.1
0.01	1	0.493211765000012	2	116	NA	66.152884844	0	0.39	1.35	1	65.65812035	66.151332115	"5"	691.348354403	689.169798038	1.5	0.1
0.01	1	0.339720997000029	1	118	NA	82.799444845	0	0.54	1.89	1	68.195740473	68.53546147	"6"	691.348354403	689.169798038	1.5	0.1
0.01	1	0.042509788000018	1	118	NA	82.799444845	0	0.54	1.89	1	68.763411778	68.805921566	"6"	691.348354403	689.169798038	1.5	0.1
0.01	1	0.0225527480000096	1	118	NA	82.799444845	0	0.54	1.89	1	69.047114463	69.069667211	"6"	691.348354403	689.169798038	1.5	0.1
0.01	1	0.0210607939999932	1	118	NA	82.799444845	0	0.54	1.89	1	69.29756506	69.318625854	"6"	691.348354403	689.169798038	1.5	0.1
0.01	1	0.0579571819999956	1	118	NA	82.799444845	0	0.54	1.89	1	69.548051108	69.60600829	"6"	691.348354403	689.169798038	1.5	0.1
0.01	1	0.0634745560000169	1	118	NA	82.799444845	0	0.54	1.89	1	69.831910843	69.895385399	"6"	691.348354403	689.169798038	1.5	0.1
0.01	1	0.00976206100000354	1	118	NA	82.799444845	0	0.54	1.89	1	70.132303428	70.142065489	"6"	691.348354403	689.169798038	1.5	0.1
0.01	1	0.0567751399999565	1	118	NA	82.799444845	0	0.54	1.89	1	70.3660141	70.42278924	"6"	691.348354403	689.169798038	1.5	0.1
0.01	1	0.0280897770000479	1	118	NA	82.799444845	0	0.54	1.89	1	70.649799693	70.67788947	"6"	691.348354403	689.169798038	1.5	0.1
0.01	1	0.0579863800000453	1	118	NA	82.799444845	0	0.54	1.89	1	70.90029501	70.95828139	"6"	691.348354403	689.169798038	1.5	0.1
0.01	1	0.0308734669999922	1	118	NA	82.799444845	0	0.54	1.89	1	71.184133678	71.215007145	"6"	691.348354403	689.169798038	1.5	0.1
0.01	1	0.0363793280000095	1	118	NA	82.799444845	0	0.54	1.89	1	71.451293803	71.487673131	"6"	691.348354403	689.169798038	1.5	0.1
0.01	1	0.0249667669999667	1	118	NA	82.799444845	0	0.54	1.89	1	71.718357238	71.743324005	"6"	691.348354403	689.169798038	1.5	0.1
0.01	1	0.0382977740000001	1	118	NA	82.799444845	0	0.54	1.89	1	71.968735943	72.007033717	"6"	691.348354403	689.169798038	1.5	0.1
0.01	1	0.0267322869999589	1	118	NA	82.799444845	0	0.54	1.89	1	72.23582519	72.262557477	"6"	691.348354403	689.169798038	1.5	0.1
0.01	1	0.0157444449999957	1	118	NA	82.799444845	0	0.54	1.89	1	72.502912713	72.518657158	"6"	691.348354403	689.169798038	1.5	0.1
0.01	1	0.0205173559999707	1	118	NA	82.799444845	0	0.54	1.89	1	72.753389254	72.77390661	"6"	691.348354403	689.169798038	1.5	0.1
0.01	1	0.0434873830000129	1	118	NA	82.799444845	0	0.54	1.89	1	73.003888545	73.047375928	"6"	691.348354403	689.169798038	1.5	0.1
0.01	1	0.0153031749999855	1	118	NA	82.799444845	0	0.54	1.89	1	73.270917805	73.28622098	"6"	691.348354403	689.169798038	1.5	0.1
0.01	1	0.0377015779999965	1	118	NA	82.799444845	0	0.54	1.89	1	73.52125953	73.558961108	"6"	691.348354403	689.169798038	1.5	0.1
0.01	1	0.0259331430000316	1	118	NA	82.799444845	0	0.54	1.89	1	73.78841177	73.814344913	"6"	691.348354403	689.169798038	1.5	0.1
0.01	1	0.031756181999981	1	118	NA	82.799444845	0	0.54	1.89	1	74.038850738	74.07060692	"6"	691.348354403	689.169798038	1.5	0.1
0.01	1	0.00692607899998166	1	118	NA	82.799444845	0	0.54	1.89	1	74.305933453	74.312859532	"6"	691.348354403	689.169798038	1.5	0.1
0.01	1	0.0354651869999998	1	118	NA	82.799444845	0	0.54	1.89	1	74.539713793	74.57517898	"6"	691.348354403	689.169798038	1.5	0.1
0.01	1	0.0153197810000165	1	118	NA	82.799444845	0	0.54	1.89	1	74.806881155	74.822200936	"6"	691.348354403	689.169798038	1.5	0.1
0.01	1	0.0301100439999686	1	118	NA	82.799444845	0	0.54	1.89	1	75.057198544	75.087308588	"6"	691.348354403	689.169798038	1.5	0.1
0.01	1	0.027022015	1	118	NA	82.799444845	0	0.54	1.89	1	75.324349893	75.351371908	"6"	691.348354403	689.169798038	1.5	0.1
0.01	1	0.0160241890000066	1	118	NA	82.799444845	0	0.54	1.89	1	75.574808693	75.590832882	"6"	691.348354403	689.169798038	1.5	0.1
0.01	1	0.0296655060000148	1	118	NA	82.799444845	0	0.54	1.89	1	75.82525391	75.854919416	"6"	691.348354403	689.169798038	1.5	0.1
0.01	1	0.0503057610000042	1	118	NA	82.799444845	0	0.54	1.89	1	76.092382786	76.142688547	"6"	691.348354403	689.169798038	1.5	0.1
0.01	1	0.0382973129999868	1	118	NA	82.799444845	0	0.54	1.89	1	76.37612323	76.414420543	"6"	691.348354403	689.169798038	1.5	0.1
0.01	1	0.0115312030000041	1	118	NA	82.799444845	0	0.54	1.89	1	76.64327564	76.654806843	"6"	691.348354403	689.169798038	1.5	0.1
0.01	1	0.0498794060000023	1	118	NA	82.799444845	0	0.54	1.89	1	76.87703437	76.926913776	"6"	691.348354403	689.169798038	1.5	0.1
0.01	1	0.0134389600000304	1	118	NA	82.799444845	0	0.54	1.89	1	77.160839008	77.174277968	"6"	691.348354403	689.169798038	1.5	0.1
0.01	1	0.0196812940000086	1	118	NA	82.799444845	0	0.54	1.89	1	77.411294928	77.430976222	"6"	691.348354403	689.169798038	1.5	0.1
0.01	1	0.0239472920000026	1	118	NA	82.799444845	0	0.54	1.89	1	77.661673218	77.68562051	"6"	691.348354403	689.169798038	1.5	0.1
0.01	1	0.0303024369999889	1	118	NA	82.799444845	0	0.54	1.89	1	77.912134268	77.942436705	"6"	691.348354403	689.169798038	1.5	0.1
0.01	1	0.0106409920000488	1	118	NA	82.799444845	0	0.54	1.89	1	78.179064296	78.189705288	"6"	691.348354403	689.169798038	1.5	0.1
0.01	1	0.00224579700000049	1	118	NA	82.799444845	0	0.54	1.89	1	78.429547473	78.43179327	"6"	691.348354403	689.169798038	1.5	0.1
0.01	1	0.00637339999997266	1	118	NA	82.799444845	0	0.54	1.89	1	78.663281851	78.669655251	"6"	691.348354403	689.169798038	1.5	0.1
0.01	1	0.00671167100000503	1	118	NA	82.799444845	0	0.54	1.89	1	78.897013433	78.903725104	"6"	691.348354403	689.169798038	1.5	0.1
0.01	1	0.00435254699999632	1	118	NA	82.799444845	0	0.54	1.89	1	79.130730327	79.135082874	"6"	691.348354403	689.169798038	1.5	0.1
0.01	1	0.0272541769999748	1	118	NA	82.799444845	0	0.54	1.89	1	79.364390526	79.391644703	"6"	691.348354403	689.169798038	1.5	0.1
0.01	1	0.00824075399998492	1	118	NA	82.799444845	0	0.54	1.89	1	79.614884125	79.623124879	"6"	691.348354403	689.169798038	1.5	0.1
0.01	1	0.0023276030000261	1	118	NA	82.799444845	0	0.54	1.89	1	79.848547319	79.850874922	"6"	691.348354403	689.169798038	1.5	0.1
0.01	1	0.0273413139999548	1	118	NA	82.799444845	0	0.54	1.89	1	80.082351757	80.109693071	"6"	691.348354403	689.169798038	1.5	0.1
0.01	1	0.0265984860000117	1	118	NA	82.799444845	0	0.54	1.89	1	80.332733148	80.359331634	"6"	691.348354403	689.169798038	1.5	0.1
0.01	1	0.0310561489999941	1	118	NA	82.799444845	0	0.54	1.89	1	80.583223425	80.614279574	"6"	691.348354403	689.169798038	1.5	0.1
0.01	1	0.00447819900000468	1	118	NA	82.799444845	0	0.54	1.89	1	80.850269724	80.854747923	"6"	691.348354403	689.169798038	1.5	0.1
0.01	1	0.0181706650000137	1	118	NA	82.799444845	0	0.54	1.89	1	81.083966606	81.102137271	"6"	691.348354403	689.169798038	1.5	0.1
0.01	1	0.0156331750000049	1	118	NA	82.799444845	0	0.54	1.89	1	81.334430756	81.350063931	"6"	691.348354403	689.169798038	1.5	0.1
0.01	1	0.00220761299999594	1	118	NA	82.799444845	0	0.54	1.89	1	81.5848602	81.587067813	"6"	691.348354403	689.169798038	1.5	0.1
0.01	1	0.00206969099997423	1	118	NA	82.799444845	0	0.54	1.89	1	81.818522873	81.820592564	"6"	691.348354403	689.169798038	1.5	0.1
0.01	1	0.0194565210000519	1	118	NA	82.799444845	0	0.54	1.89	1	82.052315273	82.071771794	"6"	691.348354403	689.169798038	1.5	0.1
0.01	1	0.495117338999989	2	118	NA	82.799444845	0	0.54	1.89	1	82.302715905	82.797833244	"6"	691.348354403	689.169798038	1.5	0.1
0.01	1	0.318206540000006	1	87	NA	100.119441972	0	0.56	2.45	1	84.840325163	85.158531703	"7"	691.348354403	689.169798038	1.5	0.1
0.01	1	0.002073643000017	1	87	NA	100.119441972	0	0.56	2.45	1	85.391246584	85.393320227	"7"	691.348354403	689.169798038	1.5	0.1
0.01	1	0.0135696149999944	1	87	NA	100.119441972	0	0.56	2.45	1	85.625130493	85.638700108	"7"	691.348354403	689.169798038	1.5	0.1
0.01	1	0.0117727790000117	1	87	NA	100.119441972	0	0.56	2.45	1	85.875503088	85.887275867	"7"	691.348354403	689.169798038	1.5	0.1
0.01	1	0.0578334840000139	1	87	NA	100.119441972	0	0.56	2.45	1	86.10923527	86.167068754	"7"	691.348354403	689.169798038	1.5	0.1
0.01	1	0.0386368339999876	1	87	NA	100.119441972	0	0.56	2.45	1	86.392998237	86.431635071	"7"	691.348354403	689.169798038	1.5	0.1
0.01	1	0.0269533280000473	1	87	NA	100.119441972	0	0.56	2.45	1	86.660279723	86.687233051	"7"	691.348354403	689.169798038	1.5	0.1
0.01	1	0.023464118999982	1	87	NA	100.119441972	0	0.56	2.45	1	86.910545045	86.934009164	"7"	691.348354403	689.169798038	1.5	0.1
0.01	1	0.0531185800000458	1	87	NA	100.119441972	0	0.56	2.45	1	87.160880326	87.213998906	"7"	691.348354403	689.169798038	1.5	0.1
0.01	1	0.0345385020000322	1	87	NA	100.119441972	0	0.56	2.45	1	87.444732193	87.479270695	"7"	691.348354403	689.169798038	1.5	0.1
0.01	1	0.0471851319999814	1	87	NA	100.119441972	0	0.56	2.45	1	87.712048853	87.759233985	"7"	691.348354403	689.169798038	1.5	0.1
0.01	1	0.0195057619999943	1	87	NA	100.119441972	0	0.56	2.45	1	87.995806628	88.01531239	"7"	691.348354403	689.169798038	1.5	0.1
0.01	1	0.0640598730000193	1	87	NA	100.119441972	0	0.56	2.45	1	88.246104753	88.310164626	"7"	691.348354403	689.169798038	1.5	0.1
0.01	1	0.036240093999993	1	87	NA	100.119441972	0	0.56	2.45	1	88.546649853	88.582889947	"7"	691.348354403	689.169798038	1.5	0.1
0.01	1	0.0339702350000266	1	87	NA	100.119441972	0	0.56	2.45	1	88.813670033	88.847640268	"7"	691.348354403	689.169798038	1.5	0.1
0.01	1	0.0381214999999884	1	87	NA	100.119441972	0	0.56	2.45	1	89.080885303	89.119006803	"7"	691.348354403	689.169798038	1.5	0.1
0.01	1	0.0912175079999997	1	87	NA	100.119441972	0	0.56	2.45	1	89.347969945	89.439187453	"7"	691.348354403	689.169798038	1.5	0.1
0.01	1	0.0935741629999711	1	87	NA	100.119441972	0	0.56	2.45	1	89.665157431	89.758731594	"7"	691.348354403	689.169798038	1.5	0.1
0.01	1	0.0647696300000007	1	87	NA	100.119441972	0	0.56	2.45	1	89.982330955	90.047100585	"7"	691.348354403	689.169798038	1.5	0.1
0.01	1	0.0597150509999551	1	87	NA	100.119441972	0	0.56	2.45	1	90.282895148	90.342610199	"7"	691.348354403	689.169798038	1.5	0.1
0.01	1	0.0565825959999984	1	87	NA	100.119441972	0	0.56	2.45	1	90.566662838	90.623245434	"7"	691.348354403	689.169798038	1.5	0.1
0.01	1	0.0610843840000257	1	87	NA	100.119441972	0	0.56	2.45	1	90.85039957	90.911483954	"7"	691.348354403	689.169798038	1.5	0.1
0.01	1	0.0567391580000276	1	87	NA	100.119441972	0	0.56	2.45	1	91.134338555	91.191077713	"7"	691.348354403	689.169798038	1.5	0.1
0.01	1	0.0364882780000357	1	87	NA	100.119441972	0	0.56	2.45	1	91.418227378	91.454715656	"7"	691.348354403	689.169798038	1.5	0.1
0.01	1	0.025160292999999	1	87	NA	100.119441972	0	0.56	2.45	1	91.685152255	91.710312548	"7"	691.348354403	689.169798038	1.5	0.1
0.01	1	0.0553303179999602	1	87	NA	100.119441972	0	0.56	2.45	1	91.935606628	91.990936946	"7"	691.348354403	689.169798038	1.5	0.1
0.01	1	0.0432992890000037	1	87	NA	100.119441972	0	0.56	2.45	1	92.219492348	92.262791637	"7"	691.348354403	689.169798038	1.5	0.1
0.01	1	0.0560958119999668	1	87	NA	100.119441972	0	0.56	2.45	1	92.48653789	92.542633702	"7"	691.348354403	689.169798038	1.5	0.1
0.01	1	0.00718808099998114	1	87	NA	100.119441972	0	0.56	2.45	1	92.770469573	92.777657654	"7"	691.348354403	689.169798038	1.5	0.1
0.01	1	0.0269102960000396	1	87	NA	100.119441972	0	0.56	2.45	1	93.004088385	93.030998681	"7"	691.348354403	689.169798038	1.5	0.1
0.01	1	0.0311339689999954	1	87	NA	100.119441972	0	0.56	2.45	1	93.254533513	93.285667482	"7"	691.348354403	689.169798038	1.5	0.1
0.01	1	0.013710470000035	1	87	NA	100.119441972	0	0.56	2.45	1	93.521609798	93.535320268	"7"	691.348354403	689.169798038	1.5	0.1
0.01	1	0.0193646380000132	1	87	NA	100.119441972	0	0.56	2.45	1	93.771984333	93.791348971	"7"	691.348354403	689.169798038	1.5	0.1
0.01	1	0.024377233999985	1	87	NA	100.119441972	0	0.56	2.45	1	94.022464548	94.046841782	"7"	691.348354403	689.169798038	1.5	0.1
0.01	1	0.0225683949999507	1	87	NA	100.119441972	0	0.56	2.45	1	94.272988003	94.295556398	"7"	691.348354403	689.169798038	1.5	0.1
0.01	1	0.0431838640000137	1	87	NA	100.119441972	0	0.56	2.45	1	94.523447223	94.566631087	"7"	691.348354403	689.169798038	1.5	0.1
0.01	1	0.0320509230000425	1	87	NA	100.119441972	0	0.56	2.45	1	94.807080103	94.839131026	"7"	691.348354403	689.169798038	1.5	0.1
0.01	1	0.0210950449999814	1	87	NA	100.119441972	0	0.56	2.45	1	95.074253557	95.095348602	"7"	691.348354403	689.169798038	1.5	0.1
0.01	1	0.0260075150000034	1	87	NA	100.119441972	0	0.56	2.45	1	95.324735185	95.3507427	"7"	691.348354403	689.169798038	1.5	0.1
0.01	1	0.00982691100000466	1	87	NA	100.119441972	0	0.56	2.45	1	95.57518282	95.585009731	"7"	691.348354403	689.169798038	1.5	0.1
0.01	1	0.0225893679999558	1	87	NA	100.119441972	0	0.56	2.45	1	95.808868515	95.831457883	"7"	691.348354403	689.169798038	1.5	0.1
0.01	1	0.0359995939999749	1	87	NA	100.119441972	0	0.56	2.45	1	96.059260358	96.095259952	"7"	691.348354403	689.169798038	1.5	0.1
0.01	1	0.0099971079999932	1	87	NA	100.119441972	0	0.56	2.45	1	96.326433188	96.336430296	"7"	691.348354403	689.169798038	1.5	0.1
0.01	1	0.00350668400000131	1	87	NA	100.119441972	0	0.56	2.45	1	96.560101538	96.563608222	"7"	691.348354403	689.169798038	1.5	0.1
0.01	1	0.0135822479999774	1	87	NA	100.119441972	0	0.56	2.45	1	96.793806828	96.807389076	"7"	691.348354403	689.169798038	1.5	0.1
0.01	1	0.00286359600005426	1	87	NA	100.119441972	0	0.56	2.45	1	97.04418522	97.047048816	"7"	691.348354403	689.169798038	1.5	0.1
0.01	1	0.0045314600000097	1	87	NA	100.119441972	0	0.56	2.45	1	97.277918973	97.282450433	"7"	691.348354403	689.169798038	1.5	0.1
0.01	1	0.0232340629999612	1	87	NA	100.119441972	0	0.56	2.45	1	97.511701053	97.534935116	"7"	691.348354403	689.169798038	1.5	0.1
0.01	1	0.0209167859999866	1	87	NA	100.119441972	0	0.56	2.45	1	97.762117863	97.783034649	"7"	691.348354403	689.169798038	1.5	0.1
0.01	1	0.00217724399999497	1	87	NA	100.119441972	0	0.56	2.45	1	98.01263229	98.014809534	"7"	691.348354403	689.169798038	1.5	0.1
0.01	1	0.00334909800000105	1	87	NA	100.119441972	0	0.56	2.45	1	98.246164968	98.249514066	"7"	691.348354403	689.169798038	1.5	0.1
0.01	1	0.0715478640000242	1	87	NA	100.119441972	0	0.56	2.45	1	98.480092888	98.551640752	"7"	691.348354403	689.169798038	1.5	0.1
0.01	1	0.00203706100001	1	87	NA	100.119441972	0	0.56	2.45	1	98.780474937	98.782511998	"7"	691.348354403	689.169798038	1.5	0.1
0.01	1	0.00348729299997785	1	87	NA	100.119441972	0	0.56	2.45	1	99.014248495	99.017735788	"7"	691.348354403	689.169798038	1.5	0.1
0.01	1	0.00206631399998969	1	87	NA	100.119441972	0	0.56	2.45	1	99.247959104	99.250025418	"7"	691.348354403	689.169798038	1.5	0.1
0.01	1	0.00205433500002528	1	87	NA	100.119441972	0	0.56	2.45	1	99.481648936	99.483703271	"7"	691.348354403	689.169798038	1.5	0.1
0.01	1	0.402530976999969	2	87	NA	100.119441972	0	0.56	2.45	1	99.715366956	100.117897933	"7"	691.348354403	689.169798038	1.5	0.1
0.01	1	0.068213696999976	1	6	104.209435548	NA	1	0	2.45	1	102.169497846	102.237711543	"8"	691.348354403	689.169798038	1.5	0.1
0.01	1	0.183662761999983	1	6	104.209435548	NA	1	0	2.45	1	102.470122263	102.653785025	"8"	691.348354403	689.169798038	1.5	0.1
0.01	1	0.102520177999963	1	6	104.209435548	NA	1	0	2.45	1	102.887385685	102.989905863	"8"	691.348354403	689.169798038	1.5	0.1
0.01	1	0.146191240000007	1	6	104.209435548	NA	1	0	2.45	1	103.221361968	103.367553208	"8"	691.348354403	689.169798038	1.5	0.1
0.01	1	0.0737100979999923	1	6	104.209435548	NA	1	0	2.45	1	103.605357368	103.679067466	"8"	691.348354403	689.169798038	1.5	0.1
0.01	1	0.189620914999978	1	6	104.209435548	NA	1	0	2.45	1	103.905874756	104.095495671	"8"	691.348354403	689.169798038	1.5	0.1
0.01	1	0.753877480000028	1	106	NA	128.863867642	0	0.49	2.94	1	106.25980768	107.01368516	"9"	691.348354403	689.169798038	1.5	0.1
0.01	1	0.161512598000002	1	106	NA	128.863867642	0	0.49	2.94	1	107.244672878	107.406185476	"9"	691.348354403	689.169798038	1.5	0.1
0.01	1	0.154624543000011	1	106	NA	128.863867642	0	0.49	2.94	1	107.628713803	107.783338346	"9"	691.348354403	689.169798038	1.5	0.1
0.01	1	0.185600781000005	1	106	NA	128.863867642	0	0.49	2.94	1	108.012724653	108.198325434	"9"	691.348354403	689.169798038	1.5	0.1
0.01	1	0.159836902999984	1	106	NA	128.863867642	0	0.49	2.94	1	108.430144928	108.589981831	"9"	691.348354403	689.169798038	1.5	0.1
0.01	1	0.0885782199999881	1	106	NA	128.863867642	0	0.49	2.94	1	108.814067213	108.902645433	"9"	691.348354403	689.169798038	1.5	0.1
0.01	1	0.123461234999979	1	106	NA	128.863867642	0	0.49	2.94	1	109.131330548	109.254791783	"9"	691.348354403	689.169798038	1.5	0.1
0.01	1	0.125063397000019	1	106	NA	128.863867642	0	0.49	2.94	1	109.481841188	109.606904585	"9"	691.348354403	689.169798038	1.5	0.1
0.01	1	0.19872521100001	1	106	NA	128.863867642	0	0.49	2.94	1	109.832398288	110.031123499	"9"	691.348354403	689.169798038	1.5	0.1
0.01	1	0.148603319000017	1	106	NA	128.863867642	0	0.49	2.94	1	110.266407846	110.415011165	"9"	691.348354403	689.169798038	1.5	0.1
0.01	1	0.181182604000014	1	106	NA	128.863867642	0	0.49	2.94	1	110.65042256	110.831605164	"9"	691.348354403	689.169798038	1.5	0.1
0.01	1	0.147156412999948	1	106	NA	128.863867642	0	0.49	2.94	1	111.06781497	111.214971383	"9"	691.348354403	689.169798038	1.5	0.1
0.01	1	0.0998903739999832	1	106	NA	128.863867642	0	0.49	2.94	1	111.451780358	111.551670732	"9"	691.348354403	689.169798038	1.5	0.1
0.01	1	0.117472097000018	1	106	NA	128.863867642	0	0.49	2.94	1	111.785687883	111.90315998	"9"	691.348354403	689.169798038	1.5	0.1
0.01	1	0.101955361999956	1	106	NA	128.863867642	0	0.49	2.94	1	112.136243528	112.23819889	"9"	691.348354403	689.169798038	1.5	0.1
0.01	1	0.160276136999983	1	106	NA	128.863867642	0	0.49	2.94	1	112.47025788	112.630534017	"9"	691.348354403	689.169798038	1.5	0.1
0.01	1	0.176416567999979	1	106	NA	128.863867642	0	0.49	2.94	1	112.854321468	113.030738036	"9"	691.348354403	689.169798038	1.5	0.1
0.01	1	0.16794288799997	1	106	NA	128.863867642	0	0.49	2.94	1	113.271492275	113.439435163	"9"	691.348354403	689.169798038	1.5	0.1
0.01	1	0.245759803999988	1	106	NA	128.863867642	0	0.49	2.94	1	113.672203568	113.917963372	"9"	691.348354403	689.169798038	1.5	0.1
0.01	1	0.146130560000017	1	106	NA	128.863867642	0	0.49	2.94	1	114.139640493	114.285771053	"9"	691.348354403	689.169798038	1.5	0.1
0.01	1	0.155581405000021	1	106	NA	128.863867642	0	0.49	2.94	1	114.50694711	114.662528515	"9"	691.348354403	689.169798038	1.5	0.1
0.01	1	0.204040378000002	1	106	NA	128.863867642	0	0.49	2.94	1	114.89093511	115.094975488	"9"	691.348354403	689.169798038	1.5	0.1
0.01	1	0.337294437000025	1	106	NA	128.863867642	0	0.49	2.94	1	115.325038443	115.66233288	"9"	691.348354403	689.169798038	1.5	0.1
0.01	1	0.242413899999974	1	106	NA	128.863867642	0	0.49	2.94	1	115.892687565	116.135101465	"9"	691.348354403	689.169798038	1.5	0.1
0.01	1	0.173699650000003	1	106	NA	128.863867642	0	0.49	2.94	1	116.360099343	116.533798993	"9"	691.348354403	689.169798038	1.5	0.1
0.01	1	0.388981588999968	1	106	NA	128.863867642	0	0.49	2.94	1	116.760814228	117.149795817	"9"	691.348354403	689.169798038	1.5	0.1
0.01	1	0.212647688999994	1	106	NA	128.863867642	0	0.49	2.94	1	117.378457755	117.591105444	"9"	691.348354403	689.169798038	1.5	0.1
0.01	1	0.202253388999964	1	106	NA	128.863867642	0	0.49	2.94	1	117.829137745	118.031391134	"9"	691.348354403	689.169798038	1.5	0.1
0.01	1	0.128221929000006	1	106	NA	128.863867642	0	0.49	2.94	1	118.263313215	118.391535144	"9"	691.348354403	689.169798038	1.5	0.1
0.01	1	0.193002557	1	106	NA	128.863867642	0	0.49	2.94	1	118.613819698	118.806822255	"9"	691.348354403	689.169798038	1.5	0.1
0.01	1	0.174476308999999	1	106	NA	128.863867642	0	0.49	2.94	1	119.031160753	119.205637062	"9"	691.348354403	689.169798038	1.5	0.1
0.01	1	0.10197102699999	1	106	NA	128.863867642	0	0.49	2.94	1	119.431865503	119.53383653	"9"	691.348354403	689.169798038	1.5	0.1
0.01	1	0.209213283999986	1	106	NA	128.863867642	0	0.49	2.94	1	119.765802753	119.975016037	"9"	691.348354403	689.169798038	1.5	0.1
0.01	1	0.294979393999995	1	106	NA	128.863867642	0	0.49	2.94	1	120.199988828	120.494968222	"9"	691.348354403	689.169798038	1.5	0.1
0.01	1	0.185252571999968	1	106	NA	128.863867642	0	0.49	2.94	1	120.734068818	120.91932139	"9"	691.348354403	689.169798038	1.5	0.1
0.01	1	0.240020391999963	1	106	NA	128.863867642	0	0.49	2.94	1	121.151542783	121.391563175	"9"	691.348354403	689.169798038	1.5	0.1
0.01	1	0.220202197000049	1	106	NA	128.863867642	0	0.49	2.94	1	121.618919433	121.83912163	"9"	691.348354403	689.169798038	1.5	0.1
0.01	1	0.241537287999961	1	106	NA	128.863867642	0	0.49	2.94	1	122.069593165	122.311130453	"9"	691.348354403	689.169798038	1.5	0.1
0.01	1	0.20573811700001	1	106	NA	128.863867642	0	0.49	2.94	1	122.537053658	122.742791775	"9"	691.348354403	689.169798038	1.5	0.1
0.01	1	0.219691443999977	1	106	NA	128.863867642	0	0.49	2.94	1	122.971244963	123.190936407	"9"	691.348354403	689.169798038	1.5	0.1
0.01	1	0.833529709000004	1	106	NA	128.863867642	0	0.49	2.94	1	123.421843033	124.255372742	"9"	691.348354403	689.169798038	1.5	0.1
0.01	1	0.243656208000004	1	106	NA	128.863867642	0	0.49	2.94	1	124.490370595	124.734026803	"9"	691.348354403	689.169798038	1.5	0.1
0.01	1	0.192830126999979	1	106	NA	128.863867642	0	0.49	2.94	1	124.957820368	125.150650495	"9"	691.348354403	689.169798038	1.5	0.1
0.01	1	0.286685535999993	1	106	NA	128.863867642	0	0.49	2.94	1	125.375228063	125.661913599	"9"	691.348354403	689.169798038	1.5	0.1
0.01	1	0.193867513999976	1	106	NA	128.863867642	0	0.49	2.94	1	125.892778593	126.086646107	"9"	691.348354403	689.169798038	1.5	0.1
0.01	1	0.224209712000004	1	106	NA	128.863867642	0	0.49	2.94	1	126.310247435	126.534457147	"9"	691.348354403	689.169798038	1.5	0.1
0.01	1	0.16674266299998	1	106	NA	128.863867642	0	0.49	2.94	1	126.760889023	126.927631686	"9"	691.348354403	689.169798038	1.5	0.1
0.01	1	0.597595137999974	1	106	NA	128.863867642	0	0.49	2.94	1	127.161508388	127.759103526	"9"	691.348354403	689.169798038	1.5	0.1
0.01	1	0.321846977999996	1	106	NA	128.863867642	0	0.49	2.94	1	127.996420133	128.318267111	"9"	691.348354403	689.169798038	1.5	0.1
0.01	1	0.31501221000002	2	106	NA	128.863867642	0	0.49	2.94	1	128.547264175	128.862276385	"9"	691.348354403	689.169798038	1.5	0.1
0.01	1	0.297059156000046	1	21	139.385198853	NA	1	0	2.94	1	130.901165603	131.198224759	"10"	691.348354403	689.169798038	1.5	0.1
0.01	1	0.123148210000011	1	21	139.385198853	NA	1	0	2.94	1	131.435538028	131.558686238	"10"	691.348354403	689.169798038	1.5	0.1
0.01	1	0.147888188000024	1	21	139.385198853	NA	1	0	2.94	1	131.785947653	131.933835841	"10"	691.348354403	689.169798038	1.5	0.1
0.01	1	0.0929060500000105	1	21	139.385198853	NA	1	0	2.94	1	132.169959135	132.262865185	"10"	691.348354403	689.169798038	1.5	0.1
0.01	1	0.0564782219999529	1	21	139.385198853	NA	1	0	2.94	1	132.487127668	132.54360589	"10"	691.348354403	689.169798038	1.5	0.1
0.01	1	0.0925960889999828	1	21	139.385198853	NA	1	0	2.94	1	132.770908195	132.863504284	"10"	691.348354403	689.169798038	1.5	0.1
0.01	1	0.117519211000001	1	21	139.385198853	NA	1	0	2.94	1	133.088283145	133.205802356	"10"	691.348354403	689.169798038	1.5	0.1
0.01	1	0.399571520000052	1	21	139.385198853	NA	1	0	2.94	1	133.438878168	133.838449688	"10"	691.348354403	689.169798038	1.5	0.1
0.01	1	0.188500471999987	1	21	139.385198853	NA	1	0	2.94	1	134.073210198	134.26171067	"10"	691.348354403	689.169798038	1.5	0.1
0.01	1	0.180829438999979	1	21	139.385198853	NA	1	0	2.94	1	134.490556593	134.671386032	"10"	691.348354403	689.169798038	1.5	0.1
0.01	1	0.129830882000022	1	21	139.385198853	NA	1	0	2.94	1	134.907897063	135.037727945	"10"	691.348354403	689.169798038	1.5	0.1
0.01	1	0.115714730000036	1	21	139.385198853	NA	1	0	2.94	1	135.275178988	135.390893718	"10"	691.348354403	689.169798038	1.5	0.1
0.01	1	0.244746381000027	1	21	139.385198853	NA	1	0	2.94	1	135.625883995	135.870630376	"10"	691.348354403	689.169798038	1.5	0.1
0.01	1	0.162250321999977	1	21	139.385198853	NA	1	0	2.94	1	136.093185333	136.255435655	"10"	691.348354403	689.169798038	1.5	0.1
0.01	1	0.0971770239999614	1	21	139.385198853	NA	1	0	2.94	1	136.493983273	136.591160297	"10"	691.348354403	689.169798038	1.5	0.1
0.01	1	0.274072310999998	1	21	139.385198853	NA	1	0	2.94	1	136.827873563	137.101945874	"10"	691.348354403	689.169798038	1.5	0.1
0.01	1	0.228883891999999	1	21	139.385198853	NA	1	0	2.94	1	137.328717998	137.55760189	"10"	691.348354403	689.169798038	1.5	0.1
0.01	1	0.130764832000011	1	21	139.385198853	NA	1	0	2.94	1	137.796040663	137.926805495	"10"	691.348354403	689.169798038	1.5	0.1
0.01	1	0.23489366299998	1	21	139.385198853	NA	1	0	2.94	1	138.16346933	138.398362993	"10"	691.348354403	689.169798038	1.5	0.1
0.01	1	0.303098627999987	1	21	139.385198853	NA	1	0	2.94	1	138.630931308	138.934029936	"10"	691.348354403	689.169798038	1.5	0.1
0.01	1	0.113311902000021	1	21	139.385198853	NA	1	0	2.94	1	139.165034918	139.27834682	"10"	691.348354403	689.169798038	1.5	0.1
0.01	1	0.291144218999989	1	19	148.033472263	NA	1	0	2.94	1	141.435554593	141.726698812	"11"	691.348354403	689.169798038	1.5	0.1
0.01	1	0.230494805000035	1	19	148.033472263	NA	1	0	2.94	1	141.953067945	142.18356275	"11"	691.348354403	689.169798038	1.5	0.1
0.01	1	0.0412996169999928	1	19	148.033472263	NA	1	0	2.94	1	142.420673553	142.46197317	"11"	691.348354403	689.169798038	1.5	0.1
0.01	1	0.0785805799999935	1	19	148.033472263	NA	1	0	2.94	1	142.687747023	142.766327603	"11"	691.348354403	689.169798038	1.5	0.1
0.01	1	0.0499359570000024	1	19	148.033472263	NA	1	0	2.94	1	143.004855703	143.05479166	"11"	691.348354403	689.169798038	1.5	0.1
0.01	1	0.0627747580000459	1	19	148.033472263	NA	1	0	2.94	1	143.288715778	143.351490536	"11"	691.348354403	689.169798038	1.5	0.1
0.01	1	0.0177009020000014	1	19	148.033472263	NA	1	0	2.94	1	143.589195943	143.606896845	"11"	691.348354403	689.169798038	1.5	0.1
0.01	1	0.0306517409999856	1	19	148.033472263	NA	1	0	2.94	1	143.839581478	143.870233219	"11"	691.348354403	689.169798038	1.5	0.1
0.01	1	0.251852671000051	1	19	148.033472263	NA	1	0	2.94	1	144.106696298	144.358548969	"11"	691.348354403	689.169798038	1.5	0.1
0.01	1	0.143944279999971	1	19	148.033472263	NA	1	0	2.94	1	144.590925178	144.734869458	"11"	691.348354403	689.169798038	1.5	0.1
0.01	1	0.0967448490000038	1	19	148.033472263	NA	1	0	2.94	1	144.958196375	145.054941224	"11"	691.348354403	689.169798038	1.5	0.1
0.01	1	0.0595418139999992	1	19	148.033472263	NA	1	0	2.94	1	145.29206747	145.351609284	"11"	691.348354403	689.169798038	1.5	0.1
0.01	1	0.0865056659999937	1	19	148.033472263	NA	1	0	2.94	1	145.575879788	145.662385454	"11"	691.348354403	689.169798038	1.5	0.1
0.01	1	0.136780497000018	1	19	148.033472263	NA	1	0	2.94	1	145.893068218	146.029848715	"11"	691.348354403	689.169798038	1.5	0.1
0.01	1	0.185767682000005	1	19	148.033472263	NA	1	0	2.94	1	146.260397973	146.446165655	"11"	691.348354403	689.169798038	1.5	0.1
0.01	1	0.0890121959999988	1	19	148.033472263	NA	1	0	2.94	1	146.677709358	146.766721554	"11"	691.348354403	689.169798038	1.5	0.1
0.01	1	0.179402540000012	1	19	148.033472263	NA	1	0	2.94	1	146.994929753	147.174332293	"11"	691.348354403	689.169798038	1.5	0.1
0.01	1	0.16415146199995	1	19	148.033472263	NA	1	0	2.94	1	147.395640133	147.559791595	"11"	691.348354403	689.169798038	1.5	0.1
0.01	1	0.121583126000019	1	19	148.033472263	NA	1	0	2.94	1	147.796355448	147.917938574	"11"	691.348354403	689.169798038	1.5	0.1
0.01	1	0.259055752999984	1	63	NA	155.256375504	0	0.17	3.11	1	150.083468438	150.342524191	"12"	691.348354403	689.169798038	1.5	0.1
0.01	1	0.0636978169999907	1	63	NA	155.256375504	0	0.17	3.11	1	150.567653128	150.631350945	"12"	691.348354403	689.169798038	1.5	0.1
0.01	1	0.0665353310000114	1	63	NA	155.256375504	0	0.17	3.11	1	150.868119515	150.934654846	"12"	691.348354403	689.169798038	1.5	0.1
0.01	1	0.0377005589999726	1	63	NA	155.256375504	0	0.17	3.11	1	151.168650343	151.206350902	"12"	691.348354403	689.169798038	1.5	0.1
0.01	1	0.0436916650000398	1	63	NA	155.256375504	0	0.17	3.11	1	151.435756198	151.479447863	"12"	691.348354403	689.169798038	1.5	0.1
0.01	1	0.0553500729999996	1	63	NA	155.256375504	0	0.17	3.11	1	151.702875463	151.758225536	"12"	691.348354403	689.169798038	1.5	0.1
0.01	1	0.0449318679999919	1	63	NA	155.256375504	0	0.17	3.11	1	151.986664683	152.031596551	"12"	691.348354403	689.169798038	1.5	0.1
0.01	1	0.0560701370000061	1	63	NA	155.256375504	0	0.17	3.11	1	152.253880985	152.309951122	"12"	691.348354403	689.169798038	1.5	0.1
0.01	1	0.0301994730000388	1	63	NA	155.256375504	0	0.17	3.11	1	152.537531528	152.567731001	"12"	691.348354403	689.169798038	1.5	0.1
0.01	1	0.0336852179999596	1	63	NA	155.256375504	0	0.17	3.11	1	152.804762818	152.838448036	"12"	691.348354403	689.169798038	1.5	0.1
0.01	1	0.013928481999983	1	63	NA	155.256375504	0	0.17	3.11	1	153.071852298	153.08578078	"12"	691.348354403	689.169798038	1.5	0.1
0.01	1	0.044187442000009	1	63	NA	155.256375504	0	0.17	3.11	1	153.322258908	153.36644635	"12"	691.348354403	689.169798038	1.5	0.1
0.01	1	0.0741620229999853	1	63	NA	155.256375504	0	0.17	3.11	1	153.589313945	153.663475968	"12"	691.348354403	689.169798038	1.5	0.1
0.01	1	0.00329315999999835	1	63	NA	155.256375504	0	0.17	3.11	1	153.889821526	153.893114686	"12"	691.348354403	689.169798038	1.5	0.1
0.01	1	0.0426071999999635	1	63	NA	155.256375504	0	0.17	3.11	1	154.12365325	154.16626045	"12"	691.348354403	689.169798038	1.5	0.1
0.01	1	0.0169556929999999	1	63	NA	155.256375504	0	0.17	3.11	1	154.390690565	154.407646258	"12"	691.348354403	689.169798038	1.5	0.1
0.01	1	0.0022465199999715	1	63	NA	155.256375504	0	0.17	3.11	1	154.641175185	154.643421705	"12"	691.348354403	689.169798038	1.5	0.1
0.01	1	0.379881761000036	2	63	NA	155.256375504	0	0.17	3.11	1	154.874895375	155.254777136	"12"	691.348354403	689.169798038	1.5	0.1
0.01	1	0.447814068000014	1	54	NA	169.791512966	0	0.32	3.43	1	157.295532364	157.743346432	"13"	691.348354403	689.169798038	1.5	0.1
0.01	1	0.201549343000011	1	54	NA	169.791512966	0	0.32	3.43	1	157.980160253	158.181709596	"13"	691.348354403	689.169798038	1.5	0.1
0.01	1	0.0411496539999803	1	54	NA	169.791512966	0	0.32	3.43	1	158.414153683	158.455303337	"13"	691.348354403	689.169798038	1.5	0.1
0.01	1	0.0924143309999863	1	54	NA	169.791512966	0	0.32	3.43	1	158.681160055	158.773574386	"13"	691.348354403	689.169798038	1.5	0.1
0.01	1	0.0489438280000059	1	54	NA	169.791512966	0	0.32	3.43	1	158.998364375	159.047308203	"13"	691.348354403	689.169798038	1.5	0.1
0.01	1	0.059367409999993	1	54	NA	169.791512966	0	0.32	3.43	1	159.282280443	159.341647853	"13"	691.348354403	689.169798038	1.5	0.1
0.01	1	0.0415696650000541	1	54	NA	169.791512966	0	0.32	3.43	1	159.566059803	159.607629468	"13"	691.348354403	689.169798038	1.5	0.1
0.01	1	0.0291394179999998	1	54	NA	169.791512966	0	0.32	3.43	1	159.83326313	159.862402548	"13"	691.348354403	689.169798038	1.5	0.1
0.01	1	0.0268575559999817	1	54	NA	169.791512966	0	0.32	3.43	1	160.100256558	160.127114114	"13"	691.348354403	689.169798038	1.5	0.1
0.01	1	0.143781676999993	1	54	NA	169.791512966	0	0.32	3.43	1	160.350692583	160.49447426	"13"	691.348354403	689.169798038	1.5	0.1
0.01	1	0.0492679889999863	1	54	NA	169.791512966	0	0.32	3.43	1	160.717944434	160.767212423	"13"	691.348354403	689.169798038	1.5	0.1
0.01	1	0.0762096880000058	1	54	NA	169.791512966	0	0.32	3.43	1	161.001757475	161.077967163	"13"	691.348354403	689.169798038	1.5	0.1
0.01	1	0.065050484999972	1	54	NA	169.791512966	0	0.32	3.43	1	161.302284561	161.367335046	"13"	691.348354403	689.169798038	1.5	0.1
0.01	1	0.0759957129999975	1	54	NA	169.791512966	0	0.32	3.43	1	161.602802303	161.678798016	"13"	691.348354403	689.169798038	1.5	0.1
0.01	1	0.0952399729999911	1	54	NA	169.791512966	0	0.32	3.43	1	161.903426068	161.998666041	"13"	691.348354403	689.169798038	1.5	0.1
0.01	1	0.0822870700000067	1	54	NA	169.791512966	0	0.32	3.43	1	162.237280923	162.319567993	"13"	691.348354403	689.169798038	1.5	0.1
0.01	1	0.108686188000036	1	54	NA	169.791512966	0	0.32	3.43	1	162.554421926	162.663108114	"13"	691.348354403	689.169798038	1.5	0.1
0.01	1	0.294311980000032	1	54	NA	169.791512966	0	0.32	3.43	1	162.888334478	163.182646458	"13"	691.348354403	689.169798038	1.5	0.1
0.01	1	0.304304830000035	1	54	NA	169.791512966	0	0.32	3.43	1	163.405838685	163.710143515	"13"	691.348354403	689.169798038	1.5	0.1
0.01	1	0.26656377300003	1	54	NA	169.791512966	0	0.32	3.43	1	163.94012753	164.206691303	"13"	691.348354403	689.169798038	1.5	0.1
0.01	1	0.254758943000013	1	54	NA	169.791512966	0	0.32	3.43	1	164.440937393	164.695696336	"13"	691.348354403	689.169798038	1.5	0.1
0.01	1	0.249646767999991	1	54	NA	169.791512966	0	0.32	3.43	1	164.925094885	165.174741653	"13"	691.348354403	689.169798038	1.5	0.1
0.01	1	0.214033375000042	1	54	NA	169.791512966	0	0.32	3.43	1	165.409258385	165.62329176	"13"	691.348354403	689.169798038	1.5	0.1
0.01	1	0.146129336999991	1	54	NA	169.791512966	0	0.32	3.43	1	165.859915063	166.0060444	"13"	691.348354403	689.169798038	1.5	0.1
0.01	1	0.218246889	1	54	NA	169.791512966	0	0.32	3.43	1	166.244021048	166.462267937	"13"	691.348354403	689.169798038	1.5	0.1
0.01	1	0.265010984000014	1	54	NA	169.791512966	0	0.32	3.43	1	166.694667968	166.959678952	"13"	691.348354403	689.169798038	1.5	0.1
0.01	1	0.178953588000013	1	54	NA	169.791512966	0	0.32	3.43	1	167.195536065	167.374489653	"13"	691.348354403	689.169798038	1.5	0.1
0.01	1	0.233805410000002	1	54	NA	169.791512966	0	0.32	3.43	1	167.612879208	167.846684618	"13"	691.348354403	689.169798038	1.5	0.1
0.01	1	0.0860225339999943	1	54	NA	169.791512966	0	0.32	3.43	1	168.080308945	168.166331479	"13"	691.348354403	689.169798038	1.5	0.1
0.01	1	0.0416627459999859	1	54	NA	169.791512966	0	0.32	3.43	1	168.39759721	168.439259956	"13"	691.348354403	689.169798038	1.5	0.1
0.01	1	0.0453439579999895	1	54	NA	169.791512966	0	0.32	3.43	1	168.664736118	168.710080076	"13"	691.348354403	689.169798038	1.5	0.1
0.01	1	0.0113418710000133	1	54	NA	169.791512966	0	0.32	3.43	1	168.948540815	168.959882686	"13"	691.348354403	689.169798038	1.5	0.1
0.01	1	0.607629782000004	2	54	NA	169.791512966	0	0.32	3.43	1	169.182299663	169.789929445	"13"	691.348354403	689.169798038	1.5	0.1
0.01	1	0.0984230779999962	1	103	NA	181.521243192	0	0.32	3.75	1	171.836660568	171.935083646	"14"	691.348354403	689.169798038	1.5	0.1
0.01	1	0.123296735999986	1	103	NA	181.521243192	0	0.32	3.75	1	172.170808598	172.294105334	"14"	691.348354403	689.169798038	1.5	0.1
0.01	1	0.0767963069999951	1	103	NA	181.521243192	0	0.32	3.75	1	172.521174475	172.597970782	"14"	691.348354403	689.169798038	1.5	0.1
0.01	1	0.0652962839999986	1	103	NA	181.521243192	0	0.32	3.75	1	172.82177987	172.887076154	"14"	691.348354403	689.169798038	1.5	0.1
0.01	1	0.0683503289999976	1	103	NA	181.521243192	0	0.32	3.75	1	173.122200823	173.190551152	"14"	691.348354403	689.169798038	1.5	0.1
0.01	1	0.0482452009999861	1	103	NA	181.521243192	0	0.32	3.75	1	173.422719465	173.470964666	"14"	691.348354403	689.169798038	1.5	0.1
0.01	1	0.0353263279999965	1	103	NA	181.521243192	0	0.32	3.75	1	173.706501788	173.741828116	"14"	691.348354403	689.169798038	1.5	0.1
0.01	1	0.0174528050000049	1	103	NA	181.521243192	0	0.32	3.75	1	173.973669263	173.991122068	"14"	691.348354403	689.169798038	1.5	0.1
0.01	1	0.0713220760000013	1	103	NA	181.521243192	0	0.32	3.75	1	174.224056098	174.295378174	"14"	691.348354403	689.169798038	1.5	0.1
0.01	1	0.0260962069999664	1	103	NA	181.521243192	0	0.32	3.75	1	174.524626865	174.550723072	"14"	691.348354403	689.169798038	1.5	0.1
0.01	1	0.0227005369999915	1	103	NA	181.521243192	0	0.32	3.75	1	174.774880225	174.797580762	"14"	691.348354403	689.169798038	1.5	0.1
0.01	1	0.00701825300001246	1	103	NA	181.521243192	0	0.32	3.75	1	175.025374705	175.032392958	"14"	691.348354403	689.169798038	1.5	0.1
0.01	1	0.0030844319999801	1	103	NA	181.521243192	0	0.32	3.75	1	175.259134104	175.262218536	"14"	691.348354403	689.169798038	1.5	0.1
0.01	1	0.0021961160000501	1	103	NA	181.521243192	0	0.32	3.75	1	175.492931486	175.495127602	"14"	691.348354403	689.169798038	1.5	0.1
0.01	1	0.00484041699996851	1	103	NA	181.521243192	0	0.32	3.75	1	175.726592948	175.731433365	"14"	691.348354403	689.169798038	1.5	0.1
0.01	1	0.00395754499999157	1	103	NA	181.521243192	0	0.32	3.75	1	175.960341113	175.964298658	"14"	691.348354403	689.169798038	1.5	0.1
0.01	1	0.00198985999998058	1	103	NA	181.521243192	0	0.32	3.75	1	176.194058085	176.196047945	"14"	691.348354403	689.169798038	1.5	0.1
0.01	1	0.00219448799998645	1	103	NA	181.521243192	0	0.32	3.75	1	176.427682237	176.429876725	"14"	691.348354403	689.169798038	1.5	0.1
0.01	1	0.00220869300000004	1	103	NA	181.521243192	0	0.32	3.75	1	176.661597914	176.663806607	"14"	691.348354403	689.169798038	1.5	0.1
0.01	1	0.00199509600003012	1	103	NA	181.521243192	0	0.32	3.75	1	176.895215222	176.897210318	"14"	691.348354403	689.169798038	1.5	0.1
0.01	1	0.00203729699995847	1	103	NA	181.521243192	0	0.32	3.75	1	177.128928296	177.130965593	"14"	691.348354403	689.169798038	1.5	0.1
0.01	1	0.00205217699999594	1	103	NA	181.521243192	0	0.32	3.75	1	177.362722407	177.364774584	"14"	691.348354403	689.169798038	1.5	0.1
0.01	1	0.0175650969999879	1	103	NA	181.521243192	0	0.32	3.75	1	177.596426843	177.61399194	"14"	691.348354403	689.169798038	1.5	0.1
0.01	1	0.00218210299999555	1	103	NA	181.521243192	0	0.32	3.75	1	177.84671563	177.848897733	"14"	691.348354403	689.169798038	1.5	0.1
0.01	1	0.00206880899997941	1	103	NA	181.521243192	0	0.32	3.75	1	178.080478179	178.082546988	"14"	691.348354403	689.169798038	1.5	0.1
0.01	1	0.00211090999999897	1	103	NA	181.521243192	0	0.32	3.75	1	178.314208076	178.316318986	"14"	691.348354403	689.169798038	1.5	0.1
0.01	1	0.0100649809999709	1	103	NA	181.521243192	0	0.32	3.75	1	178.547986862	178.558051843	"14"	691.348354403	689.169798038	1.5	0.1
0.01	1	0.056295931999955	1	103	NA	181.521243192	0	0.32	3.75	1	178.781753807	178.838049739	"14"	691.348354403	689.169798038	1.5	0.1
0.01	1	0.316276734000041	1	103	NA	181.521243192	0	0.32	3.75	1	179.065558868	179.381835602	"14"	691.348354403	689.169798038	1.5	0.1
0.01	1	0.333778353000014	1	103	NA	181.521243192	0	0.32	3.75	1	179.616505613	179.950283966	"14"	691.348354403	689.169798038	1.5	0.1
0.01	1	0.247202819999984	1	103	NA	181.521243192	0	0.32	3.75	1	180.184114463	180.431317283	"14"	691.348354403	689.169798038	1.5	0.1
0.01	1	0.419371973000011	1	103	NA	181.521243192	0	0.32	3.75	1	180.668183888	181.087555861	"14"	691.348354403	689.169798038	1.5	0.1
0.01	1	0.200224394999964	2	103	NA	181.521243192	0	0.32	3.75	1	181.319419313	181.519643708	"14"	691.348354403	689.169798038	1.5	0.1
0.01	1	0.321629941000026	1	120	NA	191.193305322	0	0.2	3.95	1	183.573182633	183.894812574	"15"	691.348354403	689.169798038	1.5	0.1
0.01	1	0.0497807699999839	1	120	NA	191.193305322	0	0.2	3.95	1	184.12401247	184.17379324	"15"	691.348354403	689.169798038	1.5	0.1
0.01	1	0.103260819000013	1	120	NA	191.193305322	0	0.2	3.95	1	184.407820083	184.511080902	"15"	691.348354403	689.169798038	1.5	0.1
0.01	1	0.0963189960000363	1	120	NA	191.193305322	0	0.2	3.95	1	184.741728643	184.838047639	"15"	691.348354403	689.169798038	1.5	0.1
0.01	1	0.0662781229999609	1	120	NA	191.193305322	0	0.2	3.95	1	185.075648133	185.141926256	"15"	691.348354403	689.169798038	1.5	0.1
0.01	1	0.0543729880000114	1	120	NA	191.193305322	0	0.2	3.95	1	185.376185705	185.430558693	"15"	691.348354403	689.169798038	1.5	0.1
0.01	1	0.0506680429999733	1	120	NA	191.193305322	0	0.2	3.95	1	185.660014163	185.710682206	"15"	691.348354403	689.169798038	1.5	0.1
0.01	1	0.070115946000044	1	120	NA	191.193305322	0	0.2	3.95	1	185.943713948	186.013829894	"15"	691.348354403	689.169798038	1.5	0.1
0.01	1	0.107375755000021	1	120	NA	191.193305322	0	0.2	3.95	1	186.244230658	186.351606413	"15"	691.348354403	689.169798038	1.5	0.1
0.01	1	0.108460913999977	1	120	NA	191.193305322	0	0.2	3.95	1	186.578212388	186.686673302	"15"	691.348354403	689.169798038	1.5	0.1
0.01	1	0.141562413999964	1	120	NA	191.193305322	0	0.2	3.95	1	186.912130943	187.053693357	"15"	691.348354403	689.169798038	1.5	0.1
0.01	1	0.134558579999975	1	120	NA	191.193305322	0	0.2	3.95	1	187.279368808	187.413927388	"15"	691.348354403	689.169798038	1.5	0.1
0.01	1	0.11270202999998	1	120	NA	191.193305322	0	0.2	3.95	1	187.646724005	187.759426035	"15"	691.348354403	689.169798038	1.5	0.1
0.01	1	0.0726818890000231	1	120	NA	191.193305322	0	0.2	3.95	1	187.99727887	188.069960759	"15"	691.348354403	689.169798038	1.5	0.1
0.01	1	0.109716117000005	1	120	NA	191.193305322	0	0.2	3.95	1	188.297694788	188.407410905	"15"	691.348354403	689.169798038	1.5	0.1
0.01	1	0.135608021999985	1	120	NA	191.193305322	0	0.2	3.95	1	188.631633263	188.767241285	"15"	691.348354403	689.169798038	1.5	0.1
0.01	1	0.206817171000012	1	120	NA	191.193305322	0	0.2	3.95	1	188.998865915	189.205683086	"15"	691.348354403	689.169798038	1.5	0.1
0.01	1	0.253963487000021	1	120	NA	191.193305322	0	0.2	3.95	1	189.43292395	189.686887437	"15"	691.348354403	689.169798038	1.5	0.1
0.01	1	0.169766283999991	1	120	NA	191.193305322	0	0.2	3.95	1	189.91716054	190.086926824	"15"	691.348354403	689.169798038	1.5	0.1
0.01	1	0.217286465000029	1	120	NA	191.193305322	0	0.2	3.95	1	190.317770948	190.535057413	"15"	691.348354403	689.169798038	1.5	0.1
0.01	1	0.423215371000026	2	120	NA	191.193305322	0	0.2	3.95	1	190.768512425	191.191727796	"15"	691.348354403	689.169798038	1.5	0.1
0.01	1	0.00432921100002659	1	109	NA	210.720731637	0	0.53	4.48	1	193.222724127	193.227053338	"16"	691.348354403	689.169798038	1.5	0.1
0.01	1	0.109336039000027	1	109	NA	210.720731637	0	0.53	4.48	1	193.456455175	193.565791214	"16"	691.348354403	689.169798038	1.5	0.1
0.01	1	0.135753747999956	1	109	NA	210.720731637	0	0.53	4.48	1	193.807019048	193.942772796	"16"	691.348354403	689.169798038	1.5	0.1
0.01	1	0.112298997999972	1	109	NA	210.720731637	0	0.53	4.48	1	194.174354053	194.286653051	"16"	691.348354403	689.169798038	1.5	0.1
0.01	1	0.122553703999984	1	109	NA	210.720731637	0	0.53	4.48	1	194.50816275	194.630716454	"16"	691.348354403	689.169798038	1.5	0.1
0.01	1	0.0750857210000504	1	109	NA	210.720731637	0	0.53	4.48	1	194.858725238	194.933810959	"16"	691.348354403	689.169798038	1.5	0.1
0.01	1	0.126749108000013	1	109	NA	210.720731637	0	0.53	4.48	1	195.159261405	195.286010513	"16"	691.348354403	689.169798038	1.5	0.1
0.01	1	0.105689207000012	1	109	NA	210.720731637	0	0.53	4.48	1	195.509825778	195.615514985	"16"	691.348354403	689.169798038	1.5	0.1
0.01	1	0.107621539000036	1	109	NA	210.720731637	0	0.53	4.48	1	195.843767073	195.951388612	"16"	691.348354403	689.169798038	1.5	0.1
0.01	1	0.0933122999999796	1	109	NA	210.720731637	0	0.53	4.48	1	196.177539823	196.270852123	"16"	691.348354403	689.169798038	1.5	0.1
0.01	1	0.0958536819999836	1	109	NA	210.720731637	0	0.53	4.48	1	196.494871718	196.5907254	"16"	691.348354403	689.169798038	1.5	0.1
0.01	1	0.0892541340000435	1	109	NA	210.720731637	0	0.53	4.48	1	196.828651495	196.917905629	"16"	691.348354403	689.169798038	1.5	0.1
0.01	1	0.100201583	1	109	NA	210.720731637	0	0.53	4.48	1	197.145932943	197.246134526	"16"	691.348354403	689.169798038	1.5	0.1
0.01	1	0.10292113600002	1	109	NA	210.720731637	0	0.53	4.48	1	197.479821783	197.582742919	"16"	691.348354403	689.169798038	1.5	0.1
0.01	1	0.112956899999972	1	109	NA	210.720731637	0	0.53	4.48	1	197.813809224	197.926766124	"16"	691.348354403	689.169798038	1.5	0.1
0.01	1	0.121773611000037	1	109	NA	210.720731637	0	0.53	4.48	1	198.164304363	198.286077974	"16"	691.348354403	689.169798038	1.5	0.1
0.01	1	0.124421362000021	1	109	NA	210.720731637	0	0.53	4.48	1	198.514924975	198.639346337	"16"	691.348354403	689.169798038	1.5	0.1
0.01	1	0.117425305999973	1	109	NA	210.720731637	0	0.53	4.48	1	198.865420125	198.982845431	"16"	691.348354403	689.169798038	1.5	0.1
0.01	1	0.0788977430000273	1	109	NA	210.720731637	0	0.53	4.48	1	199.216005193	199.294902936	"16"	691.348354403	689.169798038	1.5	0.1
0.01	1	0.104393490000007	1	109	NA	210.720731637	0	0.53	4.48	1	199.533248255	199.637641745	"16"	691.348354403	689.169798038	1.5	0.1
0.01	1	0.0838748209999949	1	109	NA	210.720731637	0	0.53	4.48	1	199.867256338	199.951131159	"16"	691.348354403	689.169798038	1.5	0.1
0.01	1	0.101949221000041	1	109	NA	210.720731637	0	0.53	4.48	1	200.184398113	200.286347334	"16"	691.348354403	689.169798038	1.5	0.1
0.01	1	0.0971458540000185	1	109	NA	210.720731637	0	0.53	4.48	1	200.51828435	200.615430204	"16"	691.348354403	689.169798038	1.5	0.1
0.01	1	0.210053902000027	1	109	NA	210.720731637	0	0.53	4.48	1	200.852247043	201.062300945	"16"	691.348354403	689.169798038	1.5	0.1
0.01	1	0.241431756999987	1	109	NA	210.720731637	0	0.53	4.48	1	201.286217765	201.527649522	"16"	691.348354403	689.169798038	1.5	0.1
0.01	1	0.244158448000007	1	109	NA	210.720731637	0	0.53	4.48	1	201.753729368	201.997887816	"16"	691.348354403	689.169798038	1.5	0.1
0.01	1	0.169174413999997	1	109	NA	210.720731637	0	0.53	4.48	1	202.22120955	202.390383964	"16"	691.348354403	689.169798038	1.5	0.1
0.01	1	0.216642525999987	1	109	NA	210.720731637	0	0.53	4.48	1	202.621855365	202.838497891	"16"	691.348354403	689.169798038	1.5	0.1
0.01	1	0.142068612000003	1	109	NA	210.720731637	0	0.53	4.48	1	203.07255067	203.214619282	"16"	691.348354403	689.169798038	1.5	0.1
0.01	1	0.239381536000053	1	109	NA	210.720731637	0	0.53	4.48	1	203.439829688	203.679211224	"16"	691.348354403	689.169798038	1.5	0.1
0.01	1	0.306850546000021	1	109	NA	210.720731637	0	0.53	4.48	1	203.907286248	204.214136794	"16"	691.348354403	689.169798038	1.5	0.1
0.01	1	0.165948690999983	1	109	NA	210.720731637	0	0.53	4.48	1	204.441580685	204.607529376	"16"	691.348354403	689.169798038	1.5	0.1
0.01	1	0.132234125999958	1	109	NA	210.720731637	0	0.53	4.48	1	204.842127256	204.974361382	"16"	691.348354403	689.169798038	1.5	0.1
0.01	1	0.10031156499997	1	109	NA	210.720731637	0	0.53	4.48	1	205.209540573	205.309852138	"16"	691.348354403	689.169798038	1.5	0.1
0.01	1	0.0464416049999841	1	109	NA	210.720731637	0	0.53	4.48	1	205.543456408	205.589898013	"16"	691.348354403	689.169798038	1.5	0.1
0.01	1	0.0272994110000013	1	109	NA	210.720731637	0	0.53	4.48	1	205.827122163	205.854421574	"16"	691.348354403	689.169798038	1.5	0.1
0.01	1	0.0234604620000027	1	109	NA	210.720731637	0	0.53	4.48	1	206.094333508	206.11779397	"16"	691.348354403	689.169798038	1.5	0.1
0.01	1	0.0463624899999786	1	109	NA	210.720731637	0	0.53	4.48	1	206.344756123	206.391118613	"16"	691.348354403	689.169798038	1.5	0.1
0.01	1	0.0255660520000447	1	109	NA	210.720731637	0	0.53	4.48	1	206.628568128	206.65413418	"16"	691.348354403	689.169798038	1.5	0.1
0.01	1	0.0628976099999932	1	109	NA	210.720731637	0	0.53	4.48	1	206.878965423	206.941863033	"16"	691.348354403	689.169798038	1.5	0.1
0.01	1	0.0751816150000195	1	109	NA	210.720731637	0	0.53	4.48	1	207.179504078	207.254685693	"16"	691.348354403	689.169798038	1.5	0.1
0.01	1	0.0473277239999561	1	109	NA	210.720731637	0	0.53	4.48	1	207.48001613	207.527343854	"16"	691.348354403	689.169798038	1.5	0.1
0.01	1	0.0267293420000101	1	109	NA	210.720731637	0	0.53	4.48	1	207.763766163	207.790495505	"16"	691.348354403	689.169798038	1.5	0.1
0.01	1	0.023339706999991	1	109	NA	210.720731637	0	0.53	4.48	1	208.014422223	208.03776193	"16"	691.348354403	689.169798038	1.5	0.1
0.01	1	0.00710090600000512	1	109	NA	210.720731637	0	0.53	4.48	1	208.264552368	208.271653274	"16"	691.348354403	689.169798038	1.5	0.1
0.01	1	0.00812276300001713	1	109	NA	210.720731637	0	0.53	4.48	1	208.498425553	208.506548316	"16"	691.348354403	689.169798038	1.5	0.1
0.01	1	0.0191222159999711	1	109	NA	210.720731637	0	0.53	4.48	1	208.73205867	208.751180886	"16"	691.348354403	689.169798038	1.5	0.1
0.01	1	0.0156265329999883	1	109	NA	210.720731637	0	0.53	4.48	1	208.982557552	208.998184085	"16"	691.348354403	689.169798038	1.5	0.1
0.01	1	0.00222096200002397	1	109	NA	210.720731637	0	0.53	4.48	1	209.232907513	209.235128475	"16"	691.348354403	689.169798038	1.5	0.1
0.01	1	0.00222914599999058	1	109	NA	210.720731637	0	0.53	4.48	1	209.466641913	209.468871059	"16"	691.348354403	689.169798038	1.5	0.1
0.01	1	0.00456343700000161	1	109	NA	210.720731637	0	0.53	4.48	1	209.700423328	209.704986765	"16"	691.348354403	689.169798038	1.5	0.1
0.01	1	0.00394513500003768	1	109	NA	210.720731637	0	0.53	4.48	1	209.934202213	209.938147348	"16"	691.348354403	689.169798038	1.5	0.1
0.01	1	0.00247441499999468	1	109	NA	210.720731637	0	0.53	4.48	1	210.167727285	210.1702017	"16"	691.348354403	689.169798038	1.5	0.1
0.01	1	0.317596040000012	2	109	NA	210.720731637	0	0.53	4.48	1	210.401512744	210.719108784	"16"	691.348354403	689.169798038	1.5	0.1
0.01	1	0.321945047999975	1	71	NA	229.143782276	0	0.64	5.12	1	212.772228025	213.094173073	"17"	691.348354403	689.169798038	1.5	0.1
0.01	1	0.0524856279999995	1	71	NA	229.143782276	0	0.64	5.12	1	213.323106398	213.375592026	"17"	691.348354403	689.169798038	1.5	0.1
0.01	1	0.0709149950000096	1	71	NA	229.143782276	0	0.64	5.12	1	213.607073188	213.677988183	"17"	691.348354403	689.169798038	1.5	0.1
0.01	1	0.0429782830000249	1	71	NA	229.143782276	0	0.64	5.12	1	213.907577465	213.950555748	"17"	691.348354403	689.169798038	1.5	0.1
0.01	1	0.0471790180000085	1	71	NA	229.143782276	0	0.64	5.12	1	214.174773608	214.221952626	"17"	691.348354403	689.169798038	1.5	0.1
0.01	1	0.00338071400000217	1	71	NA	229.143782276	0	0.64	5.12	1	214.458401594	214.461782308	"17"	691.348354403	689.169798038	1.5	0.1
0.01	1	0.0195127260000163	1	71	NA	229.143782276	0	0.64	5.12	1	214.692058878	214.711571604	"17"	691.348354403	689.169798038	1.5	0.1
0.01	1	0.00381020399998988	1	71	NA	229.143782276	0	0.64	5.12	1	214.942469898	214.946280102	"17"	691.348354403	689.169798038	1.5	0.1
0.01	1	0.0232750950000309	1	71	NA	229.143782276	0	0.64	5.12	1	215.176343853	215.199618948	"17"	691.348354403	689.169798038	1.5	0.1
0.01	1	0.0135959149999962	1	71	NA	229.143782276	0	0.64	5.12	1	215.426866898	215.440462813	"17"	691.348354403	689.169798038	1.5	0.1
0.01	1	0.0172584150000148	1	71	NA	229.143782276	0	0.64	5.12	1	215.677164575	215.69442299	"17"	691.348354403	689.169798038	1.5	0.1
0.01	1	0.0224381250000079	1	71	NA	229.143782276	0	0.64	5.12	1	215.927555194	215.949993319	"17"	691.348354403	689.169798038	1.5	0.1
0.01	1	0.0375074560000144	1	71	NA	229.143782276	0	0.64	5.12	1	216.17797233	216.215479786	"17"	691.348354403	689.169798038	1.5	0.1
0.01	1	0.017584050000039	1	71	NA	229.143782276	0	0.64	5.12	1	216.44523043	216.46281448	"17"	691.348354403	689.169798038	1.5	0.1
0.01	1	0.00804966199996215	1	71	NA	229.143782276	0	0.64	5.12	1	216.695632658	216.70368232	"17"	691.348354403	689.169798038	1.5	0.1
0.01	1	0.0378334770000492	1	71	NA	229.143782276	0	0.64	5.12	1	216.929210788	216.967044265	"17"	691.348354403	689.169798038	1.5	0.1
0.01	1	0.0258839280000416	1	71	NA	229.143782276	0	0.64	5.12	1	217.196383365	217.222267293	"17"	691.348354403	689.169798038	1.5	0.1
0.01	1	0.0249088120000351	1	71	NA	229.143782276	0	0.64	5.12	1	217.446706765	217.471615577	"17"	691.348354403	689.169798038	1.5	0.1
0.01	1	0.0302750710000055	1	71	NA	229.143782276	0	0.64	5.12	1	217.69723067	217.727505741	"17"	691.348354403	689.169798038	1.5	0.1
0.01	1	0.0117485590000115	1	71	NA	229.143782276	0	0.64	5.12	1	217.964304383	217.976052942	"17"	691.348354403	689.169798038	1.5	0.1
0.01	1	0.0320539919999874	1	71	NA	229.143782276	0	0.64	5.12	1	218.198020058	218.23007405	"17"	691.348354403	689.169798038	1.5	0.1
0.01	1	0.0036632549999922	1	71	NA	229.143782276	0	0.64	5.12	1	218.465098255	218.46876151	"17"	691.348354403	689.169798038	1.5	0.1
0.01	1	0.00343028200001072	1	71	NA	229.143782276	0	0.64	5.12	1	218.698849194	218.702279476	"17"	691.348354403	689.169798038	1.5	0.1
0.01	1	0.00203191000002789	1	71	NA	229.143782276	0	0.64	5.12	1	218.932660774	218.934692684	"17"	691.348354403	689.169798038	1.5	0.1
0.01	1	0.00201765299999579	1	71	NA	229.143782276	0	0.64	5.12	1	219.166307555	219.168325208	"17"	691.348354403	689.169798038	1.5	0.1
0.01	1	0.00206561900000679	1	71	NA	229.143782276	0	0.64	5.12	1	219.400119423	219.402185042	"17"	691.348354403	689.169798038	1.5	0.1
0.01	1	0.00205510199998571	1	71	NA	229.143782276	0	0.64	5.12	1	219.633733143	219.635788245	"17"	691.348354403	689.169798038	1.5	0.1
0.01	1	0.00455829999998514	1	71	NA	229.143782276	0	0.64	5.12	1	219.867476743	219.872035043	"17"	691.348354403	689.169798038	1.5	0.1
0.01	1	0.00439815200002158	1	71	NA	229.143782276	0	0.64	5.12	1	220.101121191	220.105519343	"17"	691.348354403	689.169798038	1.5	0.1
0.01	1	0.00389579099999082	1	71	NA	229.143782276	0	0.64	5.12	1	220.334958663	220.338854454	"17"	691.348354403	689.169798038	1.5	0.1
0.01	1	0.00449578000001338	1	71	NA	229.143782276	0	0.64	5.12	1	220.568708023	220.573203803	"17"	691.348354403	689.169798038	1.5	0.1
0.01	1	0.00386901500002068	1	71	NA	229.143782276	0	0.64	5.12	1	220.802416523	220.806285538	"17"	691.348354403	689.169798038	1.5	0.1
0.01	1	0.0905987470000014	1	71	NA	229.143782276	0	0.64	5.12	1	221.03616499	221.126763737	"17"	691.348354403	689.169798038	1.5	0.1
0.01	1	0.00709516099999519	1	71	NA	229.143782276	0	0.64	5.12	1	221.353305403	221.360400564	"17"	691.348354403	689.169798038	1.5	0.1
0.01	1	0.00342736799996146	1	71	NA	229.143782276	0	0.64	5.12	1	221.586970342	221.59039771	"17"	691.348354403	689.169798038	1.5	0.1
0.01	1	0.00205569999997124	1	71	NA	229.143782276	0	0.64	5.12	1	221.820743756	221.822799456	"17"	691.348354403	689.169798038	1.5	0.1
0.01	1	0.0029170519999866	1	71	NA	229.143782276	0	0.64	5.12	1	222.05446881	222.057385862	"17"	691.348354403	689.169798038	1.5	0.1
0.01	1	0.00201229099997136	1	71	NA	229.143782276	0	0.64	5.12	1	222.28817204	222.290184331	"17"	691.348354403	689.169798038	1.5	0.1
0.01	1	0.0022138230000337	1	71	NA	229.143782276	0	0.64	5.12	1	222.522022195	222.524236018	"17"	691.348354403	689.169798038	1.5	0.1
0.01	1	0.00390560300002107	1	71	NA	229.143782276	0	0.64	5.12	1	222.755643755	222.759549358	"17"	691.348354403	689.169798038	1.5	0.1
0.01	1	0.00389474600001449	1	71	NA	229.143782276	0	0.64	5.12	1	222.98939335	222.993288096	"17"	691.348354403	689.169798038	1.5	0.1
0.01	1	0.00397000999998909	1	71	NA	229.143782276	0	0.64	5.12	1	223.22308701	223.22705702	"17"	691.348354403	689.169798038	1.5	0.1
0.01	1	0.00379782800001749	1	71	NA	229.143782276	0	0.64	5.12	1	223.45681741	223.460615238	"17"	691.348354403	689.169798038	1.5	0.1
0.01	1	0.00394671100002597	1	71	NA	229.143782276	0	0.64	5.12	1	223.690580255	223.694526966	"17"	691.348354403	689.169798038	1.5	0.1
0.01	1	0.00369350099998655	1	71	NA	229.143782276	0	0.64	5.12	1	223.924368223	223.928061724	"17"	691.348354403	689.169798038	1.5	0.1
0.01	1	0.00391623000001573	1	71	NA	229.143782276	0	0.64	5.12	1	224.158116598	224.162032828	"17"	691.348354403	689.169798038	1.5	0.1
0.01	1	0.00385747300003914	1	71	NA	229.143782276	0	0.64	5.12	1	224.391886233	224.395743706	"17"	691.348354403	689.169798038	1.5	0.1
0.01	1	0.00373710799999571	1	71	NA	229.143782276	0	0.64	5.12	1	224.62549016	224.629227268	"17"	691.348354403	689.169798038	1.5	0.1
0.01	1	0.00386410800001613	1	71	NA	229.143782276	0	0.64	5.12	1	224.859255378	224.863119486	"17"	691.348354403	689.169798038	1.5	0.1
0.01	1	0.00386279999997896	1	71	NA	229.143782276	0	0.64	5.12	1	225.092965718	225.096828518	"17"	691.348354403	689.169798038	1.5	0.1
0.01	1	0.00388673200001222	1	71	NA	229.143782276	0	0.64	5.12	1	225.326673218	225.33055995	"17"	691.348354403	689.169798038	1.5	0.1
0.01	1	0.00373798399999714	1	71	NA	229.143782276	0	0.64	5.12	1	225.560465448	225.564203432	"17"	691.348354403	689.169798038	1.5	0.1
0.01	1	0.00370601499997747	1	71	NA	229.143782276	0	0.64	5.12	1	225.794110025	225.79781604	"17"	691.348354403	689.169798038	1.5	0.1
0.01	1	0.00376764800000728	1	71	NA	229.143782276	0	0.64	5.12	1	226.02785083	226.031618478	"17"	691.348354403	689.169798038	1.5	0.1
0.01	1	0.00386755499999936	1	71	NA	229.143782276	0	0.64	5.12	1	226.261575363	226.265442918	"17"	691.348354403	689.169798038	1.5	0.1
0.01	1	0.0037220549999688	1	71	NA	229.143782276	0	0.64	5.12	1	226.495330935	226.49905299	"17"	691.348354403	689.169798038	1.5	0.1
0.01	1	0.00388000700002067	1	71	NA	229.143782276	0	0.64	5.12	1	226.729069655	226.732949662	"17"	691.348354403	689.169798038	1.5	0.1
0.01	1	0.00381748500001322	1	71	NA	229.143782276	0	0.64	5.12	1	226.962744713	226.966562198	"17"	691.348354403	689.169798038	1.5	0.1
0.01	1	0.00436156400002119	1	71	NA	229.143782276	0	0.64	5.12	1	227.196519864	227.200881428	"17"	691.348354403	689.169798038	1.5	0.1
0.01	1	0.112529962999986	1	71	NA	229.143782276	0	0.64	5.12	1	227.430227015	227.542756978	"17"	691.348354403	689.169798038	1.5	0.1
0.01	1	0.00267661800000951	1	71	NA	229.143782276	0	0.64	5.12	1	227.780770094	227.783446712	"17"	691.348354403	689.169798038	1.5	0.1
0.01	1	0.00205947700004572	1	71	NA	229.143782276	0	0.64	5.12	1	228.014590126	228.016649603	"17"	691.348354403	689.169798038	1.5	0.1
0.01	1	0.00699767200001133	1	71	NA	229.143782276	0	0.64	5.12	1	228.248249868	228.25524754	"17"	691.348354403	689.169798038	1.5	0.1
0.01	1	0.00235107100002097	1	71	NA	229.143782276	0	0.64	5.12	1	228.481917584	228.484268655	"17"	691.348354403	689.169798038	1.5	0.1
0.01	1	0.426578758000005	2	71	NA	229.143782276	0	0.64	5.12	1	228.715666528	229.142245286	"17"	691.348354403	689.169798038	1.5	0.1
0.01	1	0.276603225000031	1	96	NA	247.200064886	0	0.64	5.76	1	231.169854188	231.446457413	"18"	691.348354403	689.169798038	1.5	0.1
0.01	1	0.00198930099998051	1	96	NA	247.200064886	0	0.64	5.76	1	231.687418733	231.689408034	"18"	691.348354403	689.169798038	1.5	0.1
0.01	1	0.0020060529999455	1	96	NA	247.200064886	0	0.64	5.76	1	231.92103185	231.923037903	"18"	691.348354403	689.169798038	1.5	0.1
0.01	1	0.00220397499992941	1	96	NA	247.200064886	0	0.64	5.76	1	232.154814979	232.157018954	"18"	691.348354403	689.169798038	1.5	0.1
0.01	1	0.00222295100002157	1	96	NA	247.200064886	0	0.64	5.76	1	232.388580421	232.390803372	"18"	691.348354403	689.169798038	1.5	0.1
0.01	1	0.00952347600002668	1	96	NA	247.200064886	0	0.64	5.76	1	232.622302223	232.631825699	"18"	691.348354403	689.169798038	1.5	0.1
0.01	1	0.00366531200006648	1	96	NA	247.200064886	0	0.64	5.76	1	232.855927618	232.85959293	"18"	691.348354403	689.169798038	1.5	0.1
0.01	1	0.00204885199991622	1	96	NA	247.200064886	0	0.64	5.76	1	233.089773112	233.091821964	"18"	691.348354403	689.169798038	1.5	0.1
0.01	1	0.00334889800001292	1	96	NA	247.200064886	0	0.64	5.76	1	233.323434678	233.326783576	"18"	691.348354403	689.169798038	1.5	0.1
0.01	1	0.0095926019999979	1	96	NA	247.200064886	0	0.64	5.76	1	233.557120208	233.56671281	"18"	691.348354403	689.169798038	1.5	0.1
0.01	1	0.022726519999992	1	96	NA	247.200064886	0	0.64	5.76	1	233.790918613	233.813645133	"18"	691.348354403	689.169798038	1.5	0.1
0.01	1	0.00338404199999331	1	96	NA	247.200064886	0	0.64	5.76	1	234.04128931	234.044673352	"18"	691.348354403	689.169798038	1.5	0.1
0.01	1	0.0116328300000532	1	96	NA	247.200064886	0	0.64	5.76	1	234.275129223	234.286762053	"18"	691.348354403	689.169798038	1.5	0.1
0.01	1	0.0176570580000543	1	96	NA	247.200064886	0	0.64	5.76	1	234.525427408	234.543084466	"18"	691.348354403	689.169798038	1.5	0.1
0.01	1	0.0144670670000551	1	96	NA	247.200064886	0	0.64	5.76	1	234.775877486	234.790344553	"18"	691.348354403	689.169798038	1.5	0.1
0.01	1	0.00690801700000065	1	96	NA	247.200064886	0	0.64	5.76	1	235.026308805	235.033216822	"18"	691.348354403	689.169798038	1.5	0.1
0.01	1	0.0272021800000175	1	96	NA	247.200064886	0	0.64	5.76	1	235.26008875	235.28729093	"18"	691.348354403	689.169798038	1.5	0.1
0.01	1	0.00375657099993987	1	96	NA	247.200064886	0	0.64	5.76	1	235.510342953	235.514099524	"18"	691.348354403	689.169798038	1.5	0.1
0.01	1	0.013503058000083	1	96	NA	247.200064886	0	0.64	5.76	1	235.744261423	235.757764481	"18"	691.348354403	689.169798038	1.5	0.1
0.01	1	0.027569609000011	1	96	NA	247.200064886	0	0.64	5.76	1	235.994607937	236.022177546	"18"	691.348354403	689.169798038	1.5	0.1
0.01	1	0.02614845100004	1	96	NA	247.200064886	0	0.64	5.76	1	236.244975453	236.271123904	"18"	691.348354403	689.169798038	1.5	0.1
0.01	1	0.00363099599996985	1	96	NA	247.200064886	0	0.64	5.76	1	236.49538329	236.499014286	"18"	691.348354403	689.169798038	1.5	0.1
0.01	1	0.00238790799994604	1	96	NA	247.200064886	0	0.64	5.76	1	236.729090718	236.731478626	"18"	691.348354403	689.169798038	1.5	0.1
0.01	1	0.00694835499996316	1	96	NA	247.200064886	0	0.64	5.76	1	236.962926523	236.969874878	"18"	691.348354403	689.169798038	1.5	0.1
0.01	1	0.0114953099999866	1	96	NA	247.200064886	0	0.64	5.76	1	237.196597495	237.208092805	"18"	691.348354403	689.169798038	1.5	0.1
0.01	1	0.00271687200006454	1	96	NA	247.200064886	0	0.64	5.76	1	237.446982936	237.449699808	"18"	691.348354403	689.169798038	1.5	0.1
0.01	1	0.00197829100000035	1	96	NA	247.200064886	0	0.64	5.76	1	237.680817956	237.682796247	"18"	691.348354403	689.169798038	1.5	0.1
0.01	1	0.00217035200000737	1	96	NA	247.200064886	0	0.64	5.76	1	237.914481823	237.916652175	"18"	691.348354403	689.169798038	1.5	0.1
0.01	1	0.026073174999965	1	96	NA	247.200064886	0	0.64	5.76	1	238.148219918	238.174293093	"18"	691.348354403	689.169798038	1.5	0.1
0.01	1	0.00266828399992391	1	96	NA	247.200064886	0	0.64	5.76	1	238.398622972	238.401291256	"18"	691.348354403	689.169798038	1.5	0.1
0.01	1	0.00213722499995583	1	96	NA	247.200064886	0	0.64	5.76	1	238.632311513	238.634448738	"18"	691.348354403	689.169798038	1.5	0.1
0.01	1	0.00200228400001379	1	96	NA	247.200064886	0	0.64	5.76	1	238.866017453	238.868019737	"18"	691.348354403	689.169798038	1.5	0.1
0.01	1	0.00223512200000187	1	96	NA	247.200064886	0	0.64	5.76	1	239.099785718	239.10202084	"18"	691.348354403	689.169798038	1.5	0.1
0.01	1	0.00220264999995834	1	96	NA	247.200064886	0	0.64	5.76	1	239.333633293	239.335835943	"18"	691.348354403	689.169798038	1.5	0.1
0.01	1	0.00221000299995922	1	96	NA	247.200064886	0	0.64	5.76	1	239.567290699	239.569500702	"18"	691.348354403	689.169798038	1.5	0.1
0.01	1	0.0020504639999217	1	96	NA	247.200064886	0	0.64	5.76	1	239.801077622	239.803128086	"18"	691.348354403	689.169798038	1.5	0.1
0.01	1	0.00442757500002244	1	96	NA	247.200064886	0	0.64	5.76	1	240.034725068	240.039152643	"18"	691.348354403	689.169798038	1.5	0.1
0.01	1	0.00396931399995992	1	96	NA	247.200064886	0	0.64	5.76	1	240.26852459	240.272493904	"18"	691.348354403	689.169798038	1.5	0.1
0.01	1	0.00387649100002818	1	96	NA	247.200064886	0	0.64	5.76	1	240.502130155	240.506006646	"18"	691.348354403	689.169798038	1.5	0.1
0.01	1	0.00386889300000348	1	96	NA	247.200064886	0	0.64	5.76	1	240.735878473	240.739747366	"18"	691.348354403	689.169798038	1.5	0.1
0.01	1	0.00384713500000089	1	96	NA	247.200064886	0	0.64	5.76	1	240.969635915	240.97348305	"18"	691.348354403	689.169798038	1.5	0.1
0.01	1	0.00458509700001741	1	96	NA	247.200064886	0	0.64	5.76	1	241.203321418	241.207906515	"18"	691.348354403	689.169798038	1.5	0.1
0.01	1	0.00380807600004118	1	96	NA	247.200064886	0	0.64	5.76	1	241.437063488	241.440871564	"18"	691.348354403	689.169798038	1.5	0.1
0.01	1	0.00390520400003425	1	96	NA	247.200064886	0	0.64	5.76	1	241.670835138	241.674740342	"18"	691.348354403	689.169798038	1.5	0.1
0.01	1	0.0020371600000999	1	96	NA	247.200064886	0	0.64	5.76	1	241.904620496	241.906657656	"18"	691.348354403	689.169798038	1.5	0.1
0.01	1	0.00461071699999138	1	96	NA	247.200064886	0	0.64	5.76	1	242.138330263	242.14294098	"18"	691.348354403	689.169798038	1.5	0.1
0.01	1	0.00396535100003348	1	96	NA	247.200064886	0	0.64	5.76	1	242.371959983	242.375925334	"18"	691.348354403	689.169798038	1.5	0.1
0.01	1	0.00208019199999399	1	96	NA	247.200064886	0	0.64	5.76	1	242.605723013	242.607803205	"18"	691.348354403	689.169798038	1.5	0.1
0.01	1	0.0040147159999151	1	96	NA	247.200064886	0	0.64	5.76	1	242.839515388	242.843530104	"18"	691.348354403	689.169798038	1.5	0.1
0.01	1	0.00384895000001961	1	96	NA	247.200064886	0	0.64	5.76	1	243.073140668	243.076989618	"18"	691.348354403	689.169798038	1.5	0.1
0.01	1	0.00364194500002668	1	96	NA	247.200064886	0	0.64	5.76	1	243.306812565	243.31045451	"18"	691.348354403	689.169798038	1.5	0.1
0.01	1	0.00465244199995141	1	96	NA	247.200064886	0	0.64	5.76	1	243.540654733	243.545307175	"18"	691.348354403	689.169798038	1.5	0.1
0.01	1	0.00319080199994914	1	96	NA	247.200064886	0	0.64	5.76	1	243.774283094	243.777473896	"18"	691.348354403	689.169798038	1.5	0.1
0.01	1	0.00198615499994048	1	96	NA	247.200064886	0	0.64	5.76	1	244.008122312	244.010108467	"18"	691.348354403	689.169798038	1.5	0.1
0.01	1	0.00201636699989649	1	96	NA	247.200064886	0	0.64	5.76	1	244.241878316	244.243894683	"18"	691.348354403	689.169798038	1.5	0.1
0.01	1	0.00197401599996283	1	96	NA	247.200064886	0	0.64	5.76	1	244.475597318	244.477571334	"18"	691.348354403	689.169798038	1.5	0.1
0.01	1	0.002037519000055	1	96	NA	247.200064886	0	0.64	5.76	1	244.709281707	244.711319226	"18"	691.348354403	689.169798038	1.5	0.1
0.01	1	0.00358771899993826	1	96	NA	247.200064886	0	0.64	5.76	1	244.942994755	244.946582474	"18"	691.348354403	689.169798038	1.5	0.1
0.01	1	0.00399138000000221	1	96	NA	247.200064886	0	0.64	5.76	1	245.176730708	245.180722088	"18"	691.348354403	689.169798038	1.5	0.1
0.01	1	0.00381156500009183	1	96	NA	247.200064886	0	0.64	5.76	1	245.410420713	245.414232278	"18"	691.348354403	689.169798038	1.5	0.1
0.01	1	0.0044862130000638	1	96	NA	247.200064886	0	0.64	5.76	1	245.64425083	245.648737043	"18"	691.348354403	689.169798038	1.5	0.1
0.01	1	0.00382600800003274	1	96	NA	247.200064886	0	0.64	5.76	1	245.87783017	245.881656178	"18"	691.348354403	689.169798038	1.5	0.1
0.01	1	0.110756176999985	1	96	NA	247.200064886	0	0.64	5.76	1	246.111673948	246.222430125	"18"	691.348354403	689.169798038	1.5	0.1
0.01	1	0.00391453299994282	1	96	NA	247.200064886	0	0.64	5.76	1	246.462146055	246.466060588	"18"	691.348354403	689.169798038	1.5	0.1
0.01	1	0.502591088000031	2	96	NA	247.200064886	0	0.64	5.76	1	246.695876433	247.198467521	"18"	691.348354403	689.169798038	1.5	0.1
0.01	1	0.268637968999997	1	91	NA	268.191380462	0	0.77	6.53	1	249.250161018	249.518798987	"19"	691.348354403	689.169798038	1.5	0.1
0.01	1	0.00228243599997313	1	91	NA	268.191380462	0	0.77	6.53	1	249.751020878	249.753303314	"19"	691.348354403	689.169798038	1.5	0.1
0.01	1	0.0224352259999705	1	91	NA	268.191380462	0	0.77	6.53	1	249.984876873	250.007312099	"19"	691.348354403	689.169798038	1.5	0.1
0.01	1	0.0118206790000386	1	91	NA	268.191380462	0	0.77	6.53	1	250.235132835	250.246953514	"19"	691.348354403	689.169798038	1.5	0.1
0.01	1	0.0246193349998975	1	91	NA	268.191380462	0	0.77	6.53	1	250.468998618	250.493617953	"19"	691.348354403	689.169798038	1.5	0.1
0.01	1	0.0155294779999622	1	91	NA	268.191380462	0	0.77	6.53	1	250.719459128	250.734988606	"19"	691.348354403	689.169798038	1.5	0.1
0.01	1	0.00226757999996607	1	91	NA	268.191380462	0	0.77	6.53	1	250.969748423	250.972016003	"19"	691.348354403	689.169798038	1.5	0.1
0.01	1	0.00210916599996835	1	91	NA	268.191380462	0	0.77	6.53	1	251.203518308	251.205627474	"19"	691.348354403	689.169798038	1.5	0.1
0.01	1	0.0048330670000496	1	91	NA	268.191380462	0	0.77	6.53	1	251.437270558	251.442103625	"19"	691.348354403	689.169798038	1.5	0.1
0.01	1	0.00219236999998884	1	91	NA	268.191380462	0	0.77	6.53	1	251.670975303	251.673167673	"19"	691.348354403	689.169798038	1.5	0.1
0.01	1	0.00203654099993855	1	91	NA	268.191380462	0	0.77	6.53	1	251.904674603	251.906711144	"19"	691.348354403	689.169798038	1.5	0.1
0.01	1	0.00221621100001812	1	91	NA	268.191380462	0	0.77	6.53	1	252.138518694	252.140734905	"19"	691.348354403	689.169798038	1.5	0.1
0.01	1	0.0115811890000259	1	91	NA	268.191380462	0	0.77	6.53	1	252.372222163	252.383803352	"19"	691.348354403	689.169798038	1.5	0.1
0.01	1	0.00296625999999378	1	91	NA	268.191380462	0	0.77	6.53	1	252.622513812	252.625480072	"19"	691.348354403	689.169798038	1.5	0.1
0.01	1	0.0022487319999982	1	91	NA	268.191380462	0	0.77	6.53	1	252.856296835	252.858545567	"19"	691.348354403	689.169798038	1.5	0.1
0.01	1	0.00208548199998404	1	91	NA	268.191380462	0	0.77	6.53	1	253.089962263	253.092047745	"19"	691.348354403	689.169798038	1.5	0.1
0.01	1	0.00235030000010283	1	91	NA	268.191380462	0	0.77	6.53	1	253.3237176	253.3260679	"19"	691.348354403	689.169798038	1.5	0.1
0.01	1	0.00453106500003742	1	91	NA	268.191380462	0	0.77	6.53	1	253.557479773	253.562010838	"19"	691.348354403	689.169798038	1.5	0.1
0.01	1	0.00230085900000176	1	91	NA	268.191380462	0	0.77	6.53	1	253.791191304	253.793492163	"19"	691.348354403	689.169798038	1.5	0.1
0.01	1	0.00203565100002834	1	91	NA	268.191380462	0	0.77	6.53	1	254.024935063	254.026970714	"19"	691.348354403	689.169798038	1.5	0.1
0.01	1	0.00200789299992721	1	91	NA	268.191380462	0	0.77	6.53	1	254.258626447	254.26063434	"19"	691.348354403	689.169798038	1.5	0.1
0.01	1	0.00213561300006404	1	91	NA	268.191380462	0	0.77	6.53	1	254.492440435	254.494576048	"19"	691.348354403	689.169798038	1.5	0.1
0.01	1	0.00204381100002138	1	91	NA	268.191380462	0	0.77	6.53	1	254.726120162	254.728163973	"19"	691.348354403	689.169798038	1.5	0.1
0.01	1	0.00200630799997725	1	91	NA	268.191380462	0	0.77	6.53	1	254.959894368	254.961900676	"19"	691.348354403	689.169798038	1.5	0.1
0.01	1	0.00344462800001111	1	91	NA	268.191380462	0	0.77	6.53	1	255.193564524	255.197009152	"19"	691.348354403	689.169798038	1.5	0.1
0.01	1	0.0117781220000097	1	91	NA	268.191380462	0	0.77	6.53	1	255.427404363	255.439182485	"19"	691.348354403	689.169798038	1.5	0.1
0.01	1	0.00201954699991802	1	91	NA	268.191380462	0	0.77	6.53	1	255.661007628	255.663027175	"19"	691.348354403	689.169798038	1.5	0.1
0.01	1	0.0019958459999998	1	91	NA	268.191380462	0	0.77	6.53	1	255.894791806	255.896787652	"19"	691.348354403	689.169798038	1.5	0.1
0.01	1	0.00204413599999498	1	91	NA	268.191380462	0	0.77	6.53	1	256.128490413	256.130534549	"19"	691.348354403	689.169798038	1.5	0.1
0.01	1	0.001982724999948	1	91	NA	268.191380462	0	0.77	6.53	1	256.362170462	256.364153187	"19"	691.348354403	689.169798038	1.5	0.1
0.01	1	0.0029079980000688	1	91	NA	268.191380462	0	0.77	6.53	1	256.595931808	256.598839806	"19"	691.348354403	689.169798038	1.5	0.1
0.01	1	0.00958959199999754	1	91	NA	268.191380462	0	0.77	6.53	1	256.829647235	256.839236827	"19"	691.348354403	689.169798038	1.5	0.1
0.01	1	0.024406929999941	1	91	NA	268.191380462	0	0.77	6.53	1	257.063319174	257.087726104	"19"	691.348354403	689.169798038	1.5	0.1
0.01	1	0.00683541500006868	1	91	NA	268.191380462	0	0.77	6.53	1	257.313837043	257.320672458	"19"	691.348354403	689.169798038	1.5	0.1
0.01	1	0.00382683100008308	1	91	NA	268.191380462	0	0.77	6.53	1	257.547547375	257.551374206	"19"	691.348354403	689.169798038	1.5	0.1
0.01	1	0.00909355999999661	1	91	NA	268.191380462	0	0.77	6.53	1	257.781216035	257.790309595	"19"	691.348354403	689.169798038	1.5	0.1
0.01	1	0.0158317549999083	1	91	NA	268.191380462	0	0.77	6.53	1	258.015012223	258.030843978	"19"	691.348354403	689.169798038	1.5	0.1
0.01	1	0.0211209950000466	1	91	NA	268.191380462	0	0.77	6.53	1	258.265373463	258.286494458	"19"	691.348354403	689.169798038	1.5	0.1
0.01	1	0.00334328400003869	1	91	NA	268.191380462	0	0.77	6.53	1	258.515785418	258.519128702	"19"	691.348354403	689.169798038	1.5	0.1
0.01	1	0.00968222999995305	1	91	NA	268.191380462	0	0.77	6.53	1	258.749570943	258.759253173	"19"	691.348354403	689.169798038	1.5	0.1
0.01	1	0.00225551899995935	1	91	NA	268.191380462	0	0.77	6.53	1	258.983253852	258.985509371	"19"	691.348354403	689.169798038	1.5	0.1
0.01	1	0.00222210200001882	1	91	NA	268.191380462	0	0.77	6.53	1	259.216974933	259.219197035	"19"	691.348354403	689.169798038	1.5	0.1
0.01	1	0.00209954999991169	1	91	NA	268.191380462	0	0.77	6.53	1	259.450764372	259.452863922	"19"	691.348354403	689.169798038	1.5	0.1
0.01	1	0.00207990000001246	1	91	NA	268.191380462	0	0.77	6.53	1	259.684475564	259.686555464	"19"	691.348354403	689.169798038	1.5	0.1
0.01	1	0.00456606000000193	1	91	NA	268.191380462	0	0.77	6.53	1	259.918215123	259.922781183	"19"	691.348354403	689.169798038	1.5	0.1
0.01	1	0.00381329800006824	1	91	NA	268.191380462	0	0.77	6.53	1	260.15188935	260.155702648	"19"	691.348354403	689.169798038	1.5	0.1
0.01	1	0.0045656270000336	1	91	NA	268.191380462	0	0.77	6.53	1	260.385640188	260.390205815	"19"	691.348354403	689.169798038	1.5	0.1
0.01	1	0.0038353449999704	1	91	NA	268.191380462	0	0.77	6.53	1	260.619410235	260.62324558	"19"	691.348354403	689.169798038	1.5	0.1
0.01	1	0.00380402899997989	1	91	NA	268.191380462	0	0.77	6.53	1	260.853149913	260.856953942	"19"	691.348354403	689.169798038	1.5	0.1
0.01	1	0.00386545200001365	1	91	NA	268.191380462	0	0.77	6.53	1	261.086774078	261.09063953	"19"	691.348354403	689.169798038	1.5	0.1
0.01	1	0.00453664999997727	1	91	NA	268.191380462	0	0.77	6.53	1	261.320616248	261.325152898	"19"	691.348354403	689.169798038	1.5	0.1
0.01	1	0.117219836999993	1	91	NA	268.191380462	0	0.77	6.53	1	261.554261668	261.671481505	"19"	691.348354403	689.169798038	1.5	0.1
0.01	1	0.00335012599998663	1	91	NA	268.191380462	0	0.77	6.53	1	261.90480427	261.908154396	"19"	691.348354403	689.169798038	1.5	0.1
0.01	1	0.00315883000007489	1	91	NA	268.191380462	0	0.77	6.53	1	262.138502516	262.141661346	"19"	691.348354403	689.169798038	1.5	0.1
0.01	1	0.00401229900000999	1	91	NA	268.191380462	0	0.77	6.53	1	262.372276233	262.376288532	"19"	691.348354403	689.169798038	1.5	0.1
0.01	1	0.00980035500003851	1	91	NA	268.191380462	0	0.77	6.53	1	262.606049513	262.615849868	"19"	691.348354403	689.169798038	1.5	0.1
0.01	1	0.00789040999995905	1	91	NA	268.191380462	0	0.77	6.53	1	262.839783854	262.847674264	"19"	691.348354403	689.169798038	1.5	0.1
0.01	1	0.00331044400002156	1	91	NA	268.191380462	0	0.77	6.53	1	263.073386012	263.076696456	"19"	691.348354403	689.169798038	1.5	0.1
0.01	1	0.0352340729999696	1	91	NA	268.191380462	0	0.77	6.53	1	263.307269725	263.342503798	"19"	691.348354403	689.169798038	1.5	0.1
0.01	1	0.00203943100007109	1	91	NA	268.191380462	0	0.77	6.53	1	263.574314135	263.576353566	"19"	691.348354403	689.169798038	1.5	0.1
0.01	1	0.00222195900005318	1	91	NA	268.191380462	0	0.77	6.53	1	263.807994537	263.810216496	"19"	691.348354403	689.169798038	1.5	0.1
0.01	1	0.00342613300006178	1	91	NA	268.191380462	0	0.77	6.53	1	264.041721423	264.045147556	"19"	691.348354403	689.169798038	1.5	0.1
0.01	1	0.011796419999996	1	91	NA	268.191380462	0	0.77	6.53	1	264.275494453	264.287290873	"19"	691.348354403	689.169798038	1.5	0.1
0.01	1	0.00356617300008111	1	91	NA	268.191380462	0	0.77	6.53	1	264.525830143	264.529396316	"19"	691.348354403	689.169798038	1.5	0.1
0.01	1	0.00704452900004071	1	91	NA	268.191380462	0	0.77	6.53	1	264.759570493	264.766615022	"19"	691.348354403	689.169798038	1.5	0.1
0.01	1	0.0211814189999586	1	91	NA	268.191380462	0	0.77	6.53	1	264.993391638	265.014573057	"19"	691.348354403	689.169798038	1.5	0.1
0.01	1	0.00305207999997492	1	91	NA	268.191380462	0	0.77	6.53	1	265.24376677	265.24681885	"19"	691.348354403	689.169798038	1.5	0.1
0.01	1	0.0111465210000006	1	91	NA	268.191380462	0	0.77	6.53	1	265.477481423	265.488627944	"19"	691.348354403	689.169798038	1.5	0.1
0.01	1	0.00812091299997064	1	91	NA	268.191380462	0	0.77	6.53	1	265.711300323	265.719421236	"19"	691.348354403	689.169798038	1.5	0.1
0.01	1	0.0139099330000363	1	91	NA	268.191380462	0	0.77	6.53	1	265.94492905	265.958838983	"19"	691.348354403	689.169798038	1.5	0.1
0.01	1	0.0045579599999428	1	91	NA	268.191380462	0	0.77	6.53	1	266.195476098	266.200034058	"19"	691.348354403	689.169798038	1.5	0.1
0.01	1	0.00210560300001816	1	91	NA	268.191380462	0	0.77	6.53	1	266.429104682	266.431210285	"19"	691.348354403	689.169798038	1.5	0.1
0.01	1	0.00204840899993997	1	91	NA	268.191380462	0	0.77	6.53	1	266.662891127	266.664939536	"19"	691.348354403	689.169798038	1.5	0.1
0.01	1	0.00337064999996528	1	91	NA	268.191380462	0	0.77	6.53	1	266.896565866	266.899936516	"19"	691.348354403	689.169798038	1.5	0.1
0.01	1	0.00363903100003427	1	91	NA	268.191380462	0	0.77	6.53	1	267.130225715	267.133864746	"19"	691.348354403	689.169798038	1.5	0.1
0.01	1	0.00199522799994156	1	91	NA	268.191380462	0	0.77	6.53	1	267.364097361	267.366092589	"19"	691.348354403	689.169798038	1.5	0.1
0.01	1	0.00198397899998781	1	91	NA	268.191380462	0	0.77	6.53	1	267.597809794	267.599793773	"19"	691.348354403	689.169798038	1.5	0.1
0.01	1	0.35814084399999	2	91	NA	268.191380462	0	0.77	6.53	1	267.831615208	268.189756052	"19"	691.348354403	689.169798038	1.5	0.1
0.01	1	0.00219674200002373	1	5	271.273677813	NA	1	0	6.53	1	270.218870793	270.221067535	"20"	691.348354403	689.169798038	1.5	0.1
0.01	1	0.00208323899994411	1	5	271.273677813	NA	1	0	6.53	1	270.452613392	270.454696631	"20"	691.348354403	689.169798038	1.5	0.1
0.01	1	0.00232945999994172	1	5	271.273677813	NA	1	0	6.53	1	270.68620785	270.68853731	"20"	691.348354403	689.169798038	1.5	0.1
0.01	1	0.00361774600003173	1	5	271.273677813	NA	1	0	6.53	1	270.919981988	270.923599734	"20"	691.348354403	689.169798038	1.5	0.1
0.01	1	0.00313639799992416	1	5	271.273677813	NA	1	0	6.53	1	271.153698266	271.156834664	"20"	691.348354403	689.169798038	1.5	0.1
0.01	1	0.0432772719999548	1	123	NA	279.46480055	0	0.25	6.78	1	273.307347868	273.35062514	"21"	691.348354403	689.169798038	1.5	0.1
0.01	1	0.0161531910000576	1	123	NA	279.46480055	0	0.25	6.78	1	273.591165185	273.607318376	"21"	691.348354403	689.169798038	1.5	0.1
0.01	1	0.0382875359999844	1	123	NA	279.46480055	0	0.25	6.78	1	273.841548298	273.879835834	"21"	691.348354403	689.169798038	1.5	0.1
0.01	1	0.024941680999973	1	123	NA	279.46480055	0	0.25	6.78	1	274.10870197	274.133643651	"21"	691.348354403	689.169798038	1.5	0.1
0.01	1	0.00370042400004422	1	123	NA	279.46480055	0	0.25	6.78	1	274.359128978	274.362829402	"21"	691.348354403	689.169798038	1.5	0.1
0.01	1	0.0069140809999908	1	123	NA	279.46480055	0	0.25	6.78	1	274.592832643	274.599746724	"21"	691.348354403	689.169798038	1.5	0.1
0.01	1	0.0117142889999968	1	123	NA	279.46480055	0	0.25	6.78	1	274.826563853	274.838278142	"21"	691.348354403	689.169798038	1.5	0.1
0.01	1	0.017557485999987	1	123	NA	279.46480055	0	0.25	6.78	1	275.060345863	275.077903349	"21"	691.348354403	689.169798038	1.5	0.1
0.01	1	0.0169570530000556	1	123	NA	279.46480055	0	0.25	6.78	1	275.310806723	275.327763776	"21"	691.348354403	689.169798038	1.5	0.1
0.01	1	0.0134112009999399	1	123	NA	279.46480055	0	0.25	6.78	1	275.561198988	275.574610189	"21"	691.348354403	689.169798038	1.5	0.1
0.01	1	0.00334227799999098	1	123	NA	279.46480055	0	0.25	6.78	1	275.811515206	275.814857484	"21"	691.348354403	689.169798038	1.5	0.1
0.01	1	0.00281142400001499	1	123	NA	279.46480055	0	0.25	6.78	1	276.045220344	276.048031768	"21"	691.348354403	689.169798038	1.5	0.1
0.01	1	0.00206294000008711	1	123	NA	279.46480055	0	0.25	6.78	1	276.279018134	276.281081074	"21"	691.348354403	689.169798038	1.5	0.1
0.01	1	0.0137278989999459	1	123	NA	279.46480055	0	0.25	6.78	1	276.512771975	276.526499874	"21"	691.348354403	689.169798038	1.5	0.1
0.01	1	0.00205734099995425	1	123	NA	279.46480055	0	0.25	6.78	1	276.763181826	276.765239167	"21"	691.348354403	689.169798038	1.5	0.1
0.01	1	0.00205342000003839	1	123	NA	279.46480055	0	0.25	6.78	1	276.996954452	276.999007872	"21"	691.348354403	689.169798038	1.5	0.1
0.01	1	0.00202859700004865	1	123	NA	279.46480055	0	0.25	6.78	1	277.230685278	277.232713875	"21"	691.348354403	689.169798038	1.5	0.1
0.01	1	0.00456575700002304	1	123	NA	279.46480055	0	0.25	6.78	1	277.464331473	277.46889723	"21"	691.348354403	689.169798038	1.5	0.1
0.01	1	0.00217033400008404	1	123	NA	279.46480055	0	0.25	6.78	1	277.698127526	277.70029786	"21"	691.348354403	689.169798038	1.5	0.1
0.01	1	0.0028011269999979	1	123	NA	279.46480055	0	0.25	6.78	1	277.931809928	277.934611055	"21"	691.348354403	689.169798038	1.5	0.1
0.01	1	0.00382651200004602	1	123	NA	279.46480055	0	0.25	6.78	1	278.165491938	278.16931845	"21"	691.348354403	689.169798038	1.5	0.1
0.01	1	0.0045543500000349	1	123	NA	279.46480055	0	0.25	6.78	1	278.399351698	278.403906048	"21"	691.348354403	689.169798038	1.5	0.1
0.01	1	0.00718294399996466	1	123	NA	279.46480055	0	0.25	6.78	1	278.632978408	278.640161352	"21"	691.348354403	689.169798038	1.5	0.1
0.01	1	0.00221900500002903	1	123	NA	279.46480055	0	0.25	6.78	1	278.866658365	278.86887737	"21"	691.348354403	689.169798038	1.5	0.1
0.01	1	0.00297308799997609	1	123	NA	279.46480055	0	0.25	6.78	1	279.100409028	279.103382116	"21"	691.348354403	689.169798038	1.5	0.1
0.01	1	0.129043641999942	2	123	NA	279.46480055	0	0.25	6.78	1	279.334158485	279.463202127	"21"	691.348354403	689.169798038	1.5	0.1
0.01	1	0.0307904710000457	1	81	300.622469546	NA	1	0	6.78	1	281.487894908	281.518685379	"22"	691.348354403	689.169798038	1.5	0.1
0.01	1	0.0117950400000382	1	81	300.622469546	NA	1	0	6.78	1	281.754943688	281.766738728	"22"	691.348354403	689.169798038	1.5	0.1
0.01	1	0.0110868670000173	1	81	300.622469546	NA	1	0	6.78	1	281.988642931	281.999729798	"22"	691.348354403	689.169798038	1.5	0.1
0.01	1	0.00221569299992552	1	81	300.622469546	NA	1	0	6.78	1	282.238974784	282.241190477	"22"	691.348354403	689.169798038	1.5	0.1
0.01	1	0.00197411900001043	1	81	300.622469546	NA	1	0	6.78	1	282.472800522	282.474774641	"22"	691.348354403	689.169798038	1.5	0.1
0.01	1	0.00222490900000594	1	81	300.622469546	NA	1	0	6.78	1	282.706565918	282.708790827	"22"	691.348354403	689.169798038	1.5	0.1
0.01	1	0.00205196300009902	1	81	300.622469546	NA	1	0	6.78	1	282.940217082	282.942269045	"22"	691.348354403	689.169798038	1.5	0.1
0.01	1	0.00206530500008739	1	81	300.622469546	NA	1	0	6.78	1	283.173965746	283.176031051	"22"	691.348354403	689.169798038	1.5	0.1
0.01	1	0.00219259300001795	1	81	300.622469546	NA	1	0	6.78	1	283.407664068	283.409856661	"22"	691.348354403	689.169798038	1.5	0.1
0.01	1	0.0019939249999652	1	81	300.622469546	NA	1	0	6.78	1	283.641382175	283.6433761	"22"	691.348354403	689.169798038	1.5	0.1
0.01	1	0.00207365000005666	1	81	300.622469546	NA	1	0	6.78	1	283.875121237	283.877194887	"22"	691.348354403	689.169798038	1.5	0.1
0.01	1	0.00206590100003723	1	81	300.622469546	NA	1	0	6.78	1	284.108870193	284.110936094	"22"	691.348354403	689.169798038	1.5	0.1
0.01	1	0.00391053099997407	1	81	300.622469546	NA	1	0	6.78	1	284.342581023	284.346491554	"22"	691.348354403	689.169798038	1.5	0.1
0.01	1	0.00198822799995924	1	81	300.622469546	NA	1	0	6.78	1	284.576298128	284.578286356	"22"	691.348354403	689.169798038	1.5	0.1
0.01	1	0.00436063100005413	1	81	300.622469546	NA	1	0	6.78	1	284.810024727	284.814385358	"22"	691.348354403	689.169798038	1.5	0.1
0.01	1	0.00390257700007623	1	81	300.622469546	NA	1	0	6.78	1	285.043819523	285.0477221	"22"	691.348354403	689.169798038	1.5	0.1
0.01	1	0.00451965800004928	1	81	300.622469546	NA	1	0	6.78	1	285.277550587	285.282070245	"22"	691.348354403	689.169798038	1.5	0.1
0.01	1	0.00377633199991578	1	81	300.622469546	NA	1	0	6.78	1	285.511209788	285.51498612	"22"	691.348354403	689.169798038	1.5	0.1
0.01	1	0.00460972999997011	1	81	300.622469546	NA	1	0	6.78	1	285.744978773	285.749588503	"22"	691.348354403	689.169798038	1.5	0.1
0.01	1	0.00420144099996378	1	81	300.622469546	NA	1	0	6.78	1	285.978748875	285.982950316	"22"	691.348354403	689.169798038	1.5	0.1
0.01	1	0.00456340999994609	1	81	300.622469546	NA	1	0	6.78	1	286.212436843	286.217000253	"22"	691.348354403	689.169798038	1.5	0.1
0.01	1	0.00461070000005748	1	81	300.622469546	NA	1	0	6.78	1	286.446233548	286.450844248	"22"	691.348354403	689.169798038	1.5	0.1
0.01	1	0.00412042200002816	1	81	300.622469546	NA	1	0	6.78	1	286.679773934	286.683894356	"22"	691.348354403	689.169798038	1.5	0.1
0.01	1	0.00382897700001195	1	81	300.622469546	NA	1	0	6.78	1	286.913545275	286.917374252	"22"	691.348354403	689.169798038	1.5	0.1
0.01	1	0.00389591800001199	1	81	300.622469546	NA	1	0	6.78	1	287.14726629	287.151162208	"22"	691.348354403	689.169798038	1.5	0.1
