"payoff.level"	"balloon"	"rt"	"resp"	"explode.trial"	"explode.time"	"finish.time"	"exploded"	"trial.total"	"cumulative.total"	"finished"	"trial.start"	"trial.end"	"trial.num"	"secs"	"start.time"	"iti"	"isi"
0.01	1	2.57779196299998	1	64	NA	39.4614224400002	0	0.24	0.24	1	0.0121193750001112	2.58991133800009	"1"	4059.558532312	4014.916142569	1.5	0.1
0.01	1	1.75159485699987	1	64	NA	39.4614224400002	0	0.24	0.24	1	2.96672047000038	4.71831532700025	"1"	4059.558532312	4014.916142569	1.5	0.1
0.01	1	1.01298706999978	1	64	NA	39.4614224400002	0	0.24	0.24	1	4.95333679500027	5.96632386500005	"1"	4059.558532312	4014.916142569	1.5	0.1
0.01	1	0.96984912400012	1	64	NA	39.4614224400002	0	0.24	0.24	1	6.20542782200027	7.17527694600039	"1"	4059.558532312	4014.916142569	1.5	0.1
0.01	1	1.76668098100026	1	64	NA	39.4614224400002	0	0.24	0.24	1	7.40752642000007	9.17420740100033	"1"	4059.558532312	4014.916142569	1.5	0.1
0.01	1	0.795884118999766	1	64	NA	39.4614224400002	0	0.24	0.24	1	9.41090051500032	10.2067846340001	"1"	4059.558532312	4014.916142569	1.5	0.1
0.01	1	1.84174866000012	1	64	NA	39.4614224400002	0	0.24	0.24	1	10.4292431120002	12.2709917720003	"1"	4059.558532312	4014.916142569	1.5	0.1
0.01	1	1.98699082999974	1	64	NA	39.4614224400002	0	0.24	0.24	1	12.4993715600003	14.4863623900001	"1"	4059.558532312	4014.916142569	1.5	0.1
0.01	1	1.62193340300018	1	64	NA	39.4614224400002	0	0.24	0.24	1	14.7197332720002	16.3416666750004	"1"	4059.558532312	4014.916142569	1.5	0.1
0.01	1	1.521497877	1	64	NA	39.4614224400002	0	0.24	0.24	1	16.5729066250001	18.0944045020001	"1"	4059.558532312	4014.916142569	1.5	0.1
0.01	1	0.929701059999843	1	64	NA	39.4614224400002	0	0.24	0.24	1	18.3257974950002	19.255498555	"1"	4059.558532312	4014.916142569	1.5	0.1
0.01	1	0.832589569999982	1	64	NA	39.4614224400002	0	0.24	0.24	1	19.4777398370002	20.3103294070002	"1"	4059.558532312	4014.916142569	1.5	0.1
0.01	1	0.44499518900011	1	64	NA	39.4614224400002	0	0.24	0.24	1	20.5462458830002	20.9912410720003	"1"	4059.558532312	4014.916142569	1.5	0.1
0.01	1	0.552892412999881	1	64	NA	39.4614224400002	0	0.24	0.24	1	21.2307587970004	21.7836512100002	"1"	4059.558532312	4014.916142569	1.5	0.1
0.01	1	1.23964595899997	1	64	NA	39.4614224400002	0	0.24	0.24	1	22.0153227810001	23.2549687400001	"1"	4059.558532312	4014.916142569	1.5	0.1
0.01	1	1.41052045200013	1	64	NA	39.4614224400002	0	0.24	0.24	1	23.4844590420003	24.8949794940004	"1"	4059.558532312	4014.916142569	1.5	0.1
0.01	1	2.29307053100001	1	64	NA	39.4614224400002	0	0.24	0.24	1	25.120643192	27.413713723	"1"	4059.558532312	4014.916142569	1.5	0.1
0.01	1	0.534081884999978	1	64	NA	39.4614224400002	0	0.24	0.24	1	27.6414796130002	28.1755614980002	"1"	4059.558532312	4014.916142569	1.5	0.1
0.01	1	1.3818712719999	1	64	NA	39.4614224400002	0	0.24	0.24	1	28.4095063970003	29.7913776690002	"1"	4059.558532312	4014.916142569	1.5	0.1
0.01	1	1.69057021700019	1	64	NA	39.4614224400002	0	0.24	0.24	1	30.0287987800002	31.7193689970004	"1"	4059.558532312	4014.916142569	1.5	0.1
0.01	1	0.617260698999871	1	64	NA	39.4614224400002	0	0.24	0.24	1	31.9487272580004	32.5659879570003	"1"	4059.558532312	4014.916142569	1.5	0.1
0.01	1	0.91054990900011	1	64	NA	39.4614224400002	0	0.24	0.24	1	32.8001513920003	33.7107013010004	"1"	4059.558532312	4014.916142569	1.5	0.1
0.01	1	0.823080243999812	1	64	NA	39.4614224400002	0	0.24	0.24	1	33.9354713770003	34.7585516210002	"1"	4059.558532312	4014.916142569	1.5	0.1
0.01	1	3.52810299199973	1	64	NA	39.4614224400002	0	0.24	0.24	1	34.9871294050004	38.5152323970001	"1"	4059.558532312	4014.916142569	1.5	0.1
0.01	1	0.716186267000012	2	64	NA	39.4614224400002	0	0.24	0.24	1	38.7435398800003	39.4597261470003	"1"	4059.558532312	4014.916142569	1.5	0.1
0.01	1	0.529640177999681	1	102	NA	72.4059210250002	0	0.4	0.64	1	41.5148503550004	42.044490533	"2"	4059.558532312	4014.916142569	1.5	0.1
0.01	1	0.250020137999854	1	102	NA	72.4059210250002	0	0.4	0.64	1	42.2827884450003	42.5328085830001	"2"	4059.558532312	4014.916142569	1.5	0.1
0.01	1	0.165190541999891	1	102	NA	72.4059210250002	0	0.4	0.64	1	42.7668875420004	42.9320780840003	"2"	4059.558532312	4014.916142569	1.5	0.1
0.01	1	0.22899706499993	1	102	NA	72.4059210250002	0	0.4	0.64	1	43.1675775150002	43.3965745800001	"2"	4059.558532312	4014.916142569	1.5	0.1
0.01	1	0.161077815999761	1	102	NA	72.4059210250002	0	0.4	0.64	1	43.6350877100003	43.7961655260001	"2"	4059.558532312	4014.916142569	1.5	0.1
0.01	1	0.168236144000275	1	102	NA	72.4059210250002	0	0.4	0.64	1	44.0189821220001	44.1872182660004	"2"	4059.558532312	4014.916142569	1.5	0.1
0.01	1	0.208889912999894	1	102	NA	72.4059210250002	0	0.4	0.64	1	44.4197483800003	44.6286382930002	"2"	4059.558532312	4014.916142569	1.5	0.1
0.01	1	0.207078442999773	1	102	NA	72.4059210250002	0	0.4	0.64	1	44.8538081670004	45.0608866100001	"2"	4059.558532312	4014.916142569	1.5	0.1
0.01	1	0.236159662000318	1	102	NA	72.4059210250002	0	0.4	0.64	1	45.2878516420001	45.5240113040004	"2"	4059.558532312	4014.916142569	1.5	0.1
0.01	1	0.240559184999711	1	102	NA	72.4059210250002	0	0.4	0.64	1	45.7553088920004	45.9958680770001	"2"	4059.558532312	4014.916142569	1.5	0.1
0.01	1	0.221593928999937	1	102	NA	72.4059210250002	0	0.4	0.64	1	46.2227187950002	46.4443127240002	"2"	4059.558532312	4014.916142569	1.5	0.1
0.01	1	0.273834657000407	1	102	NA	72.4059210250002	0	0.4	0.64	1	46.67348042	46.9473150770004	"2"	4059.558532312	4014.916142569	1.5	0.1
0.01	1	0.462770932999774	1	102	NA	72.4059210250002	0	0.4	0.64	1	47.1743281000004	47.6370990330001	"2"	4059.558532312	4014.916142569	1.5	0.1
0.01	1	0.369283713999721	1	102	NA	72.4059210250002	0	0.4	0.64	1	47.8588850600004	48.2281687740001	"2"	4059.558532312	4014.916142569	1.5	0.1
0.01	1	0.280538638000053	1	102	NA	72.4059210250002	0	0.4	0.64	1	48.4598916800001	48.7404303180001	"2"	4059.558532312	4014.916142569	1.5	0.1
0.01	1	0.291143334000026	1	102	NA	72.4059210250002	0	0.4	0.64	1	48.9774197520001	49.2685630860001	"2"	4059.558532312	4014.916142569	1.5	0.1
0.01	1	0.261516639999627	1	102	NA	72.4059210250002	0	0.4	0.64	1	49.4948242110004	49.756340851	"2"	4059.558532312	4014.916142569	1.5	0.1
0.01	1	0.266158175000328	1	102	NA	72.4059210250002	0	0.4	0.64	1	49.9790500300001	50.2452082050004	"2"	4059.558532312	4014.916142569	1.5	0.1
0.01	1	0.308127013999638	1	102	NA	72.4059210250002	0	0.4	0.64	1	50.4799100970004	50.788037111	"2"	4059.558532312	4014.916142569	1.5	0.1
0.01	1	0.254795614999693	1	102	NA	72.4059210250002	0	0.4	0.64	1	51.0141078220004	51.2689034370001	"2"	4059.558532312	4014.916142569	1.5	0.1
0.01	1	0.274200601999837	1	102	NA	72.4059210250002	0	0.4	0.64	1	51.4982947470003	51.7724953490001	"2"	4059.558532312	4014.916142569	1.5	0.1
0.01	1	0.228609546000371	1	102	NA	72.4059210250002	0	0.4	0.64	1	51.999125797	52.2277353430004	"2"	4059.558532312	4014.916142569	1.5	0.1
0.01	1	0.217737307999869	1	102	NA	72.4059210250002	0	0.4	0.64	1	52.4664617970002	52.6841991050001	"2"	4059.558532312	4014.916142569	1.5	0.1
0.01	1	0.583081544999914	1	102	NA	72.4059210250002	0	0.4	0.64	1	52.9173380320003	53.5004195770002	"2"	4059.558532312	4014.916142569	1.5	0.1
0.01	1	0.772992908000106	1	102	NA	72.4059210250002	0	0.4	0.64	1	53.735343802	54.5083367100001	"2"	4059.558532312	4014.916142569	1.5	0.1
0.01	1	0.514260111000112	1	102	NA	72.4059210250002	0	0.4	0.64	1	54.7369923900001	55.2512525010002	"2"	4059.558532312	4014.916142569	1.5	0.1
0.01	1	0.612171723999836	1	102	NA	72.4059210250002	0	0.4	0.64	1	55.4884251450003	56.1005968690001	"2"	4059.558532312	4014.916142569	1.5	0.1
0.01	1	0.465134121999654	1	102	NA	72.4059210250002	0	0.4	0.64	1	56.3230737350004	56.7882078570001	"2"	4059.558532312	4014.916142569	1.5	0.1
0.01	1	0.572300089999771	1	102	NA	72.4059210250002	0	0.4	0.64	1	57.0242216200004	57.5965217100002	"2"	4059.558532312	4014.916142569	1.5	0.1
0.01	1	0.499382275999778	1	102	NA	72.4059210250002	0	0.4	0.64	1	57.8255178450004	58.3249001210002	"2"	4059.558532312	4014.916142569	1.5	0.1
0.01	1	0.924485550000099	1	102	NA	72.4059210250002	0	0.4	0.64	1	58.5601334020002	59.4846189520003	"2"	4059.558532312	4014.916142569	1.5	0.1
0.01	1	0.788749382999868	1	102	NA	72.4059210250002	0	0.4	0.64	1	59.7121157800002	60.5008651630001	"2"	4059.558532312	4014.916142569	1.5	0.1
0.01	1	1.73852332199976	1	102	NA	72.4059210250002	0	0.4	0.64	1	60.7305612500004	62.4690845720002	"2"	4059.558532312	4014.916142569	1.5	0.1
0.01	1	1.3758065019997	1	102	NA	72.4059210250002	0	0.4	0.64	1	62.7003850250003	64.076191527	"2"	4059.558532312	4014.916142569	1.5	0.1
0.01	1	0.909446004000074	1	102	NA	72.4059210250002	0	0.4	0.64	1	64.3032202620002	65.2126662660003	"2"	4059.558532312	4014.916142569	1.5	0.1
0.01	1	1.10265789899995	1	102	NA	72.4059210250002	0	0.4	0.64	1	65.4383977450002	66.5410556440002	"2"	4059.558532312	4014.916142569	1.5	0.1
0.01	1	1.26961664600003	1	102	NA	72.4059210250002	0	0.4	0.64	1	66.773980252	68.043596898	"2"	4059.558532312	4014.916142569	1.5	0.1
0.01	1	1.40794703200027	1	102	NA	72.4059210250002	0	0.4	0.64	1	68.27658539	69.6845324220003	"2"	4059.558532312	4014.916142569	1.5	0.1
0.01	1	0.652322998000272	1	102	NA	72.4059210250002	0	0.4	0.64	1	69.912626111	70.5649491090003	"2"	4059.558532312	4014.916142569	1.5	0.1
0.01	1	0.575448945000062	1	102	NA	72.4059210250002	0	0.4	0.64	1	70.7974016600001	71.3728506050002	"2"	4059.558532312	4014.916142569	1.5	0.1
0.01	1	0.805614697999772	2	102	NA	72.4059210250002	0	0.4	0.64	1	71.5988021050002	72.404416803	"2"	4059.558532312	4014.916142569	1.5	0.1
0.01	1	1.69388949699987	1	97	NA	98.2619696720003	0	0.51	1.15	1	74.4535790100003	76.1474685070002	"3"	4059.558532312	4014.916142569	1.5	0.1
0.01	1	0.183520641999621	1	97	NA	98.2619696720003	0	0.51	1.15	1	76.3734843700004	76.557005012	"3"	4059.558532312	4014.916142569	1.5	0.1
0.01	1	0.00261877699995239	1	97	NA	98.2619696720003	0	0.51	1.15	1	76.7908429410004	76.7934617180003	"3"	4059.558532312	4014.916142569	1.5	0.1
0.01	1	0.138639368999975	1	97	NA	98.2619696720003	0	0.51	1.15	1	77.0245887600004	77.1632281290003	"3"	4059.558532312	4014.916142569	1.5	0.1
0.01	1	0.00204786399990553	1	97	NA	98.2619696720003	0	0.51	1.15	1	77.3918884540003	77.3939363180002	"3"	4059.558532312	4014.916142569	1.5	0.1
0.01	1	0.186764032000156	1	97	NA	98.2619696720003	0	0.51	1.15	1	77.6255637600002	77.8123277920004	"3"	4059.558532312	4014.916142569	1.5	0.1
0.01	1	0.00382118700008505	1	97	NA	98.2619696720003	0	0.51	1.15	1	78.0429573020001	78.0467784890002	"3"	4059.558532312	4014.916142569	1.5	0.1
0.01	1	0.150528962999942	1	97	NA	98.2619696720003	0	0.51	1.15	1	78.2766366100004	78.4271655730004	"3"	4059.558532312	4014.916142569	1.5	0.1
0.01	1	0.00457427200035454	1	97	NA	98.2619696720003	0	0.51	1.15	1	78.6606406450001	78.6652149170004	"3"	4059.558532312	4014.916142569	1.5	0.1
0.01	1	0.1340954530001	1	97	NA	98.2619696720003	0	0.51	1.15	1	78.8942743000002	79.0283697530003	"3"	4059.558532312	4014.916142569	1.5	0.1
0.01	1	0.00220342800002982	1	97	NA	98.2619696720003	0	0.51	1.15	1	79.2616589930003	79.2638624210003	"3"	4059.558532312	4014.916142569	1.5	0.1
0.01	1	0.245040404000065	1	97	NA	98.2619696720003	0	0.51	1.15	1	79.49538441	79.7404248140001	"3"	4059.558532312	4014.916142569	1.5	0.1
0.01	1	0.00254056199992192	1	97	NA	98.2619696720003	0	0.51	1.15	1	79.9795391490002	79.9820797110001	"3"	4059.558532312	4014.916142569	1.5	0.1
0.01	1	0.214746245000242	1	97	NA	98.2619696720003	0	0.51	1.15	1	80.213167545	80.4279137900003	"3"	4059.558532312	4014.916142569	1.5	0.1
0.01	1	0.00204170100005285	1	97	NA	98.2619696720003	0	0.51	1.15	1	80.6639846600001	80.6660263610001	"3"	4059.558532312	4014.916142569	1.5	0.1
0.01	1	0.194884122000076	1	97	NA	98.2619696720003	0	0.51	1.15	1	80.897662285	81.0925464070001	"3"	4059.558532312	4014.916142569	1.5	0.1
0.01	1	0.0039298870001403	1	97	NA	98.2619696720003	0	0.51	1.15	1	81.31506012	81.3189900070001	"3"	4059.558532312	4014.916142569	1.5	0.1
0.01	1	0.232150445000116	1	97	NA	98.2619696720003	0	0.51	1.15	1	81.5488498600002	81.7810003050004	"3"	4059.558532312	4014.916142569	1.5	0.1
0.01	1	0.00208543999997346	1	97	NA	98.2619696720003	0	0.51	1.15	1	82.0161855730003	82.0182710130002	"3"	4059.558532312	4014.916142569	1.5	0.1
0.01	1	0.146623509000165	1	97	NA	98.2619696720003	0	0.51	1.15	1	82.2500762700001	82.3966997790003	"3"	4059.558532312	4014.916142569	1.5	0.1
0.01	1	0.00295554600006653	1	97	NA	98.2619696720003	0	0.51	1.15	1	82.6339910350002	82.6369465810003	"3"	4059.558532312	4014.916142569	1.5	0.1
0.01	1	0.176763263999874	1	97	NA	98.2619696720003	0	0.51	1.15	1	82.8676692020003	83.0444324660002	"3"	4059.558532312	4014.916142569	1.5	0.1
0.01	1	0.00204264099966167	1	97	NA	98.2619696720003	0	0.51	1.15	1	83.2684139790003	83.27045662	"3"	4059.558532312	4014.916142569	1.5	0.1
0.01	1	0.253757429999951	1	97	NA	98.2619696720003	0	0.51	1.15	1	83.5021870820001	83.755944512	"3"	4059.558532312	4014.916142569	1.5	0.1
0.01	1	0.00237926199997673	1	97	NA	98.2619696720003	0	0.51	1.15	1	83.9861581190003	83.9885373810002	"3"	4059.558532312	4014.916142569	1.5	0.1
0.01	1	0.215890313999807	1	97	NA	98.2619696720003	0	0.51	1.15	1	84.2199483950003	84.4358387090001	"3"	4059.558532312	4014.916142569	1.5	0.1
0.01	1	0.00234976800038567	1	97	NA	98.2619696720003	0	0.51	1.15	1	84.670716737	84.6730665050004	"3"	4059.558532312	4014.916142569	1.5	0.1
0.01	1	0.32353038600013	1	97	NA	98.2619696720003	0	0.51	1.15	1	84.9044344170002	85.2279648030003	"3"	4059.558532312	4014.916142569	1.5	0.1
0.01	1	0.00249139600009585	1	97	NA	98.2619696720003	0	0.51	1.15	1	85.4553769230001	85.4578683190002	"3"	4059.558532312	4014.916142569	1.5	0.1
0.01	1	0.282488960000137	1	97	NA	98.2619696720003	0	0.51	1.15	1	85.6891314620002	85.9716204220003	"3"	4059.558532312	4014.916142569	1.5	0.1
0.01	1	0.0537364179999713	1	97	NA	98.2619696720003	0	0.51	1.15	1	86.2065934920001	86.2603299100001	"3"	4059.558532312	4014.916142569	1.5	0.1
0.01	1	0.0814868009997554	1	97	NA	98.2619696720003	0	0.51	1.15	1	86.4903982650003	86.571885066	"3"	4059.558532312	4014.916142569	1.5	0.1
0.01	1	0.148136326999975	1	97	NA	98.2619696720003	0	0.51	1.15	1	86.8076528420002	86.9557891690001	"3"	4059.558532312	4014.916142569	1.5	0.1
0.01	1	0.116511799999898	1	97	NA	98.2619696720003	0	0.51	1.15	1	87.1915800900001	87.30809189	"3"	4059.558532312	4014.916142569	1.5	0.1
0.01	1	0.229122560999713	1	97	NA	98.2619696720003	0	0.51	1.15	1	87.5422698670004	87.7713924280001	"3"	4059.558532312	4014.916142569	1.5	0.1
0.01	1	0.290785624999899	1	97	NA	98.2619696720003	0	0.51	1.15	1	88.0096298440003	88.3004154690002	"3"	4059.558532312	4014.916142569	1.5	0.1
0.01	1	0.253382103000149	1	97	NA	98.2619696720003	0	0.51	1.15	1	88.52733184	88.7807139430001	"3"	4059.558532312	4014.916142569	1.5	0.1
0.01	1	0.248759337999672	1	97	NA	98.2619696720003	0	0.51	1.15	1	89.0113523550003	89.260111693	"3"	4059.558532312	4014.916142569	1.5	0.1
0.01	1	0.292597504000241	1	97	NA	98.2619696720003	0	0.51	1.15	1	89.4955597650001	89.7881572690003	"3"	4059.558532312	4014.916142569	1.5	0.1
0.01	1	0.264159237000058	1	97	NA	98.2619696720003	0	0.51	1.15	1	90.0130086670001	90.2771679040002	"3"	4059.558532312	4014.916142569	1.5	0.1
0.01	1	0.249996312000349	1	97	NA	98.2619696720003	0	0.51	1.15	1	90.5138813250001	90.7638776370004	"3"	4059.558532312	4014.916142569	1.5	0.1
0.01	1	0.246676590000334	1	97	NA	98.2619696720003	0	0.51	1.15	1	90.99803023	91.2447068200004	"3"	4059.558532312	4014.916142569	1.5	0.1
0.01	1	0.265918026999771	1	97	NA	98.2619696720003	0	0.51	1.15	1	91.4822080400004	91.7481260670002	"3"	4059.558532312	4014.916142569	1.5	0.1
0.01	1	0.0845143319997987	1	97	NA	98.2619696720003	0	0.51	1.15	1	91.9830252400002	92.067539572	"3"	4059.558532312	4014.916142569	1.5	0.1
0.01	1	0.183364715000153	1	97	NA	98.2619696720003	0	0.51	1.15	1	92.300321615	92.4836863300002	"3"	4059.558532312	4014.916142569	1.5	0.1
0.01	1	0.87096465400009	1	97	NA	98.2619696720003	0	0.51	1.15	1	92.7176063970001	93.5885710510001	"3"	4059.558532312	4014.916142569	1.5	0.1
0.01	1	0.368216466999911	1	97	NA	98.2619696720003	0	0.51	1.15	1	93.8193783900001	94.187594857	"3"	4059.558532312	4014.916142569	1.5	0.1
0.01	1	0.432637646999865	1	97	NA	98.2619696720003	0	0.51	1.15	1	94.4204069900002	94.853044637	"3"	4059.558532312	4014.916142569	1.5	0.1
0.01	1	0.508218368000144	1	97	NA	98.2619696720003	0	0.51	1.15	1	95.088311642	95.5965300100002	"3"	4059.558532312	4014.916142569	1.5	0.1
0.01	1	0.501665293000315	1	97	NA	98.2619696720003	0	0.51	1.15	1	95.822823165	96.3244884580004	"3"	4059.558532312	4014.916142569	1.5	0.1
0.01	1	0.462116715999855	1	97	NA	98.2619696720003	0	0.51	1.15	1	96.5574058700004	97.0195225860002	"3"	4059.558532312	4014.916142569	1.5	0.1
0.01	1	1.01866869900005	2	97	NA	98.2619696720003	0	0.51	1.15	1	97.2418058550002	98.2604745540002	"3"	4059.558532312	4014.916142569	1.5	0.1
0.01	1	0.491394536999906	1	51	114.991376685	NA	1	0	1.15	1	100.313717783	100.80511232	"4"	4059.558532312	4014.916142569	1.5	0.1
0.01	1	0.0045480349999707	1	51	114.991376685	NA	1	0	1.15	1	101.03161509	101.036163125	"4"	4059.558532312	4014.916142569	1.5	0.1
0.01	1	0.0038997599999675	1	51	114.991376685	NA	1	0	1.15	1	101.265267635	101.269167395	"4"	4059.558532312	4014.916142569	1.5	0.1
0.01	1	0.00453944700029751	1	51	114.991376685	NA	1	0	1.15	1	101.49905867	101.503598117	"4"	4059.558532312	4014.916142569	1.5	0.1
0.01	1	0.0155927870000596	1	51	114.991376685	NA	1	0	1.15	1	101.732739723	101.74833251	"4"	4059.558532312	4014.916142569	1.5	0.1
0.01	1	0.00231244399992647	1	51	114.991376685	NA	1	0	1.15	1	101.983173027	101.985485471	"4"	4059.558532312	4014.916142569	1.5	0.1
0.01	1	0.00251981600013096	1	51	114.991376685	NA	1	0	1.15	1	102.216987401	102.219507217	"4"	4059.558532312	4014.916142569	1.5	0.1
0.01	1	0.00208333499995206	1	51	114.991376685	NA	1	0	1.15	1	102.450597709	102.452681044	"4"	4059.558532312	4014.916142569	1.5	0.1
0.01	1	0.00461513699974603	1	51	114.991376685	NA	1	0	1.15	1	102.68438442	102.688999557	"4"	4059.558532312	4014.916142569	1.5	0.1
0.01	1	0.00400664200014944	1	51	114.991376685	NA	1	0	1.15	1	102.918071885	102.922078527	"4"	4059.558532312	4014.916142569	1.5	0.1
0.01	1	0.0357735739999043	1	51	114.991376685	NA	1	0	1.15	1	103.15176375	103.187537324	"4"	4059.558532312	4014.916142569	1.5	0.1
0.01	1	0.0249244529995849	1	51	114.991376685	NA	1	0	1.15	1	103.41884188	103.443766333	"4"	4059.558532312	4014.916142569	1.5	0.1
0.01	1	0.0472102549997544	1	51	114.991376685	NA	1	0	1.15	1	103.669357545	103.7165678	"4"	4059.558532312	4014.916142569	1.5	0.1
0.01	1	0.0100498749998224	1	51	114.991376685	NA	1	0	1.15	1	103.953122643	103.963172518	"4"	4059.558532312	4014.916142569	1.5	0.1
0.01	1	0.0337489220000862	1	51	114.991376685	NA	1	0	1.15	1	104.18689072	104.220639642	"4"	4059.558532312	4014.916142569	1.5	0.1
0.01	1	0.00354732599998897	1	51	114.991376685	NA	1	0	1.15	1	104.453947565	104.457494891	"4"	4059.558532312	4014.916142569	1.5	0.1
0.01	1	0.00228614600018773	1	51	114.991376685	NA	1	0	1.15	1	104.687734037	104.690020183	"4"	4059.558532312	4014.916142569	1.5	0.1
0.01	1	0.00294482199979029	1	51	114.991376685	NA	1	0	1.15	1	104.921388299	104.924333121	"4"	4059.558532312	4014.916142569	1.5	0.1
0.01	1	0.00385851700002604	1	51	114.991376685	NA	1	0	1.15	1	105.155172672	105.159031189	"4"	4059.558532312	4014.916142569	1.5	0.1
0.01	1	0.00232529999993858	1	51	114.991376685	NA	1	0	1.15	1	105.388890035	105.391215335	"4"	4059.558532312	4014.916142569	1.5	0.1
0.01	1	0.00223714000003383	1	51	114.991376685	NA	1	0	1.15	1	105.622676397	105.624913537	"4"	4059.558532312	4014.916142569	1.5	0.1
0.01	1	0.00315552799975194	1	51	114.991376685	NA	1	0	1.15	1	105.856310537	105.859466065	"4"	4059.558532312	4014.916142569	1.5	0.1
0.01	1	0.00253026200016393	1	51	114.991376685	NA	1	0	1.15	1	106.090085491	106.092615753	"4"	4059.558532312	4014.916142569	1.5	0.1
0.01	1	0.0045246570002746	1	51	114.991376685	NA	1	0	1.15	1	106.323918555	106.328443212	"4"	4059.558532312	4014.916142569	1.5	0.1
0.01	1	0.00456860700023753	1	51	114.991376685	NA	1	0	1.15	1	106.557611225	106.562179832	"4"	4059.558532312	4014.916142569	1.5	0.1
0.01	1	0.00330245400027707	1	51	114.991376685	NA	1	0	1.15	1	106.791220865	106.794523319	"4"	4059.558532312	4014.916142569	1.5	0.1
0.01	1	0.0273456139998416	1	51	114.991376685	NA	1	0	1.15	1	107.02510774	107.052453354	"4"	4059.558532312	4014.916142569	1.5	0.1
0.01	1	0.0175655390003158	1	51	114.991376685	NA	1	0	1.15	1	107.275408722	107.292974261	"4"	4059.558532312	4014.916142569	1.5	0.1
0.01	1	0.0147706050001943	1	51	114.991376685	NA	1	0	1.15	1	107.52579748	107.540568085	"4"	4059.558532312	4014.916142569	1.5	0.1
0.01	1	0.00338977499995963	1	51	114.991376685	NA	1	0	1.15	1	107.77621007	107.779599845	"4"	4059.558532312	4014.916142569	1.5	0.1
0.01	1	0.0343444579998504	1	51	114.991376685	NA	1	0	1.15	1	108.010006495	108.044350953	"4"	4059.558532312	4014.916142569	1.5	0.1
0.01	1	0.0548246430003019	1	51	114.991376685	NA	1	0	1.15	1	108.27702919	108.331853833	"4"	4059.558532312	4014.916142569	1.5	0.1
0.01	1	0.0595949579997068	1	51	114.991376685	NA	1	0	1.15	1	108.560863805	108.620458763	"4"	4059.558532312	4014.916142569	1.5	0.1
0.01	1	0.087460240999917	1	51	114.991376685	NA	1	0	1.15	1	108.844701677	108.932161918	"4"	4059.558532312	4014.916142569	1.5	0.1
0.01	1	0.0984857379999085	1	51	114.991376685	NA	1	0	1.15	1	109.16193872	109.260424458	"4"	4059.558532312	4014.916142569	1.5	0.1
0.01	1	0.0848453530002189	1	51	114.991376685	NA	1	0	1.15	1	109.49573542	109.580580773	"4"	4059.558532312	4014.916142569	1.5	0.1
0.01	1	0.0547125809998761	1	51	114.991376685	NA	1	0	1.15	1	109.812988207	109.867700788	"4"	4059.558532312	4014.916142569	1.5	0.1
0.01	1	0.0681242880000354	1	51	114.991376685	NA	1	0	1.15	1	110.096838145	110.164962433	"4"	4059.558532312	4014.916142569	1.5	0.1
0.01	1	0.0634371090000059	1	51	114.991376685	NA	1	0	1.15	1	110.397310135	110.460747244	"4"	4059.558532312	4014.916142569	1.5	0.1
0.01	1	0.059108378000019	1	51	114.991376685	NA	1	0	1.15	1	110.69788932	110.756997698	"4"	4059.558532312	4014.916142569	1.5	0.1
0.01	1	0.0713324700000157	1	51	114.991376685	NA	1	0	1.15	1	110.98176145	111.05309392	"4"	4059.558532312	4014.916142569	1.5	0.1
0.01	1	0.0818613709998317	1	51	114.991376685	NA	1	0	1.15	1	111.282091061	111.363952432	"4"	4059.558532312	4014.916142569	1.5	0.1
0.01	1	0.0928817250000975	1	51	114.991376685	NA	1	0	1.15	1	111.599398975	111.6922807	"4"	4059.558532312	4014.916142569	1.5	0.1
0.01	1	0.0945732969998971	1	51	114.991376685	NA	1	0	1.15	1	111.916532092	112.011105389	"4"	4059.558532312	4014.916142569	1.5	0.1
0.01	1	0.442568650999874	1	51	114.991376685	NA	1	0	1.15	1	112.233851052	112.676419703	"4"	4059.558532312	4014.916142569	1.5	0.1
0.01	1	0.157947764000255	1	51	114.991376685	NA	1	0	1.15	1	112.901519943	113.059467707	"4"	4059.558532312	4014.916142569	1.5	0.1
0.01	1	0.0305671809996966	1	51	114.991376685	NA	1	0	1.15	1	113.285557202	113.316124383	"4"	4059.558532312	4014.916142569	1.5	0.1
0.01	1	0.0844496879999497	1	51	114.991376685	NA	1	0	1.15	1	113.55264959	113.637099278	"4"	4059.558532312	4014.916142569	1.5	0.1
0.01	1	0.0785540699998819	1	51	114.991376685	NA	1	0	1.15	1	113.86985792	113.94841199	"4"	4059.558532312	4014.916142569	1.5	0.1
0.01	1	0.120771963000152	1	51	114.991376685	NA	1	0	1.15	1	114.17035009	114.291122053	"4"	4059.558532312	4014.916142569	1.5	0.1
0.01	1	0.362846403000276	1	51	114.991376685	NA	1	0	1.15	1	114.520837677	114.88368408	"4"	4059.558532312	4014.916142569	1.5	0.1
0.01	1	0.130151224999736	1	116	NA	142.535314582	0	0.48	1.63	1	117.02513439	117.155285615	"5"	4059.558532312	4014.916142569	1.5	0.1
0.01	1	0.316482575000009	1	116	NA	142.535314582	0	0.48	1.63	1	117.392459552	117.708942127	"5"	4059.558532312	4014.916142569	1.5	0.1
0.01	1	0.00225552700021581	1	116	NA	142.535314582	0	0.48	1.63	1	117.94332174	117.945577267	"5"	4059.558532312	4014.916142569	1.5	0.1
0.01	1	0.00462884500029759	1	116	NA	142.535314582	0	0.48	1.63	1	118.17710136	118.181730205	"5"	4059.558532312	4014.916142569	1.5	0.1
0.01	1	0.0977972649998264	1	116	NA	142.535314582	0	0.48	1.63	1	118.410796705	118.50859397	"5"	4059.558532312	4014.916142569	1.5	0.1
0.01	1	0.0021282840002641	1	116	NA	142.535314582	0	0.48	1.63	1	118.74463619	118.746764474	"5"	4059.558532312	4014.916142569	1.5	0.1
0.01	1	0.00368922799998472	1	116	NA	142.535314582	0	0.48	1.63	1	118.978457555	118.982146783	"5"	4059.558532312	4014.916142569	1.5	0.1
0.01	1	0.128846887000236	1	116	NA	142.535314582	0	0.48	1.63	1	119.212117335	119.340964222	"5"	4059.558532312	4014.916142569	1.5	0.1
0.01	1	0.00319235400002071	1	116	NA	142.535314582	0	0.48	1.63	1	119.562714881	119.565907235	"5"	4059.558532312	4014.916142569	1.5	0.1
0.01	1	0.0023580319998473	1	116	NA	142.535314582	0	0.48	1.63	1	119.796447587	119.798805619	"5"	4059.558532312	4014.916142569	1.5	0.1
0.01	1	0.0149257150001176	1	116	NA	142.535314582	0	0.48	1.63	1	120.0301574	120.045083115	"5"	4059.558532312	4014.916142569	1.5	0.1
0.01	1	0.00302960800036089	1	116	NA	142.535314582	0	0.48	1.63	1	120.280590283	120.283619891	"5"	4059.558532312	4014.916142569	1.5	0.1
0.01	1	0.0263472339997861	1	116	NA	142.535314582	0	0.48	1.63	1	120.514265415	120.540612649	"5"	4059.558532312	4014.916142569	1.5	0.1
0.01	1	0.0396545570001763	1	116	NA	142.535314582	0	0.48	1.63	1	120.76464328	120.804297837	"5"	4059.558532312	4014.916142569	1.5	0.1
0.01	1	0.0119355769998037	1	116	NA	142.535314582	0	0.48	1.63	1	121.031787122	121.043722699	"5"	4059.558532312	4014.916142569	1.5	0.1
0.01	1	0.0114812120000352	1	116	NA	142.535314582	0	0.48	1.63	1	121.265496535	121.276977747	"5"	4059.558532312	4014.916142569	1.5	0.1
0.01	1	0.0335542990001159	1	116	NA	142.535314582	0	0.48	1.63	1	121.499216642	121.532770941	"5"	4059.558532312	4014.916142569	1.5	0.1
0.01	1	0.150213270999757	1	116	NA	142.535314582	0	0.48	1.63	1	121.766435961	121.916649232	"5"	4059.558532312	4014.916142569	1.5	0.1
0.01	1	0.0208129160000681	1	116	NA	142.535314582	0	0.48	1.63	1	122.150478512	122.171291428	"5"	4059.558532312	4014.916142569	1.5	0.1
0.01	1	0.0114977489997727	1	116	NA	142.535314582	0	0.48	1.63	1	122.400741942	122.412239691	"5"	4059.558532312	4014.916142569	1.5	0.1
0.01	1	0.0168750359998739	1	116	NA	142.535314582	0	0.48	1.63	1	122.63457297	122.651448006	"5"	4059.558532312	4014.916142569	1.5	0.1
0.01	1	0.003620815999966	1	116	NA	142.535314582	0	0.48	1.63	1	122.884963327	122.888584143	"5"	4059.558532312	4014.916142569	1.5	0.1
0.01	1	0.165574859000117	1	116	NA	142.535314582	0	0.48	1.63	1	123.118821505	123.284396364	"5"	4059.558532312	4014.916142569	1.5	0.1
0.01	1	0.133120080000026	1	116	NA	142.535314582	0	0.48	1.63	1	123.519339317	123.652459397	"5"	4059.558532312	4014.916142569	1.5	0.1
0.01	1	0.205437073999747	1	116	NA	142.535314582	0	0.48	1.63	1	123.886778752	124.092215826	"5"	4059.558532312	4014.916142569	1.5	0.1
0.01	1	0.148017728000013	1	116	NA	142.535314582	0	0.48	1.63	1	124.320657372	124.4686751	"5"	4059.558532312	4014.916142569	1.5	0.1
0.01	1	0.172034187999998	1	116	NA	142.535314582	0	0.48	1.63	1	124.704659385	124.876693573	"5"	4059.558532312	4014.916142569	1.5	0.1
0.01	1	0.18707679299996	1	116	NA	142.535314582	0	0.48	1.63	1	125.10545248	125.292529273	"5"	4059.558532312	4014.916142569	1.5	0.1
0.01	1	0.226120322000043	1	116	NA	142.535314582	0	0.48	1.63	1	125.52282304	125.748943362	"5"	4059.558532312	4014.916142569	1.5	0.1
0.01	1	0.27974481199999	1	116	NA	142.535314582	0	0.48	1.63	1	125.973433332	126.253178144	"5"	4059.558532312	4014.916142569	1.5	0.1
0.01	1	0.273757963000207	1	116	NA	142.535314582	0	0.48	1.63	1	126.49110606	126.764864023	"5"	4059.558532312	4014.916142569	1.5	0.1
0.01	1	0.267899734999901	1	116	NA	142.535314582	0	0.48	1.63	1	126.991959045	127.25985878	"5"	4059.558532312	4014.916142569	1.5	0.1
0.01	1	0.511027796000235	1	116	NA	142.535314582	0	0.48	1.63	1	127.492761335	128.003789131	"5"	4059.558532312	4014.916142569	1.5	0.1
0.01	1	0.433592474999841	1	116	NA	142.535314582	0	0.48	1.63	1	128.2272912	128.660883675	"5"	4059.558532312	4014.916142569	1.5	0.1
0.01	1	0.509366041999783	1	116	NA	142.535314582	0	0.48	1.63	1	128.895094915	129.404460957	"5"	4059.558532312	4014.916142569	1.5	0.1
0.01	1	0.598845735000396	1	116	NA	142.535314582	0	0.48	1.63	1	129.62971711	130.228562845	"5"	4059.558532312	4014.916142569	1.5	0.1
0.01	1	0.370890167000198	1	116	NA	142.535314582	0	0.48	1.63	1	130.46443378	130.835323947	"5"	4059.558532312	4014.916142569	1.5	0.1
0.01	1	0.385724646000199	1	116	NA	142.535314582	0	0.48	1.63	1	131.065350655	131.451075301	"5"	4059.558532312	4014.916142569	1.5	0.1
0.01	1	0.487972328000069	1	116	NA	142.535314582	0	0.48	1.63	1	131.683109345	132.171081673	"5"	4059.558532312	4014.916142569	1.5	0.1
0.01	1	0.426733087999764	1	116	NA	142.535314582	0	0.48	1.63	1	132.400957162	132.82769025	"5"	4059.558532312	4014.916142569	1.5	0.1
0.01	1	1.03121987800023	1	116	NA	142.535314582	0	0.48	1.63	1	133.052129091	134.083348969	"5"	4059.558532312	4014.916142569	1.5	0.1
0.01	1	0.627071549999982	1	116	NA	142.535314582	0	0.48	1.63	1	134.320910185	134.947981735	"5"	4059.558532312	4014.916142569	1.5	0.1
0.01	1	0.335379773999648	1	116	NA	142.535314582	0	0.48	1.63	1	135.172303035	135.507682809	"5"	4059.558532312	4014.916142569	1.5	0.1
0.01	1	0.399731086999964	1	116	NA	142.535314582	0	0.48	1.63	1	135.73990939	136.139640477	"5"	4059.558532312	4014.916142569	1.5	0.1
0.01	1	4.11199625499967	1	116	NA	142.535314582	0	0.48	1.63	1	136.374400543	140.486396798	"5"	4059.558532312	4014.916142569	1.5	0.1
0.01	1	0.0746902819996649	1	116	NA	142.535314582	0	0.48	1.63	1	140.71489514	140.789585422	"5"	4059.558532312	4014.916142569	1.5	0.1
0.01	1	0.00256934300023204	1	116	NA	142.535314582	0	0.48	1.63	1	141.015370635	141.017939978	"5"	4059.558532312	4014.916142569	1.5	0.1
0.01	1	0.292965503000232	1	116	NA	142.535314582	0	0.48	1.63	1	141.249205777	141.54217128	"5"	4059.558532312	4014.916142569	1.5	0.1
0.01	1	0.767098285999964	2	116	NA	142.535314582	0	0.48	1.63	1	141.766695837	142.533794123	"5"	4059.558532312	4014.916142569	1.5	0.1
0.01	1	0.498875006000162	1	118	NA	163.023131958	0	0.52	2.15	1	144.588167867	145.087042873	"6"	4059.558532312	4014.916142569	1.5	0.1
0.01	1	0.00324472400006925	1	118	NA	163.023131958	0	0.52	2.15	1	145.322671257	145.325915981	"6"	4059.558532312	4014.916142569	1.5	0.1
0.01	1	0.00237146600011329	1	118	NA	163.023131958	0	0.52	2.15	1	145.556395467	145.558766933	"6"	4059.558532312	4014.916142569	1.5	0.1
0.01	1	0.00383268699988548	1	118	NA	163.023131958	0	0.52	2.15	1	145.790120682	145.793953369	"6"	4059.558532312	4014.916142569	1.5	0.1
0.01	1	0.00383887499992852	1	118	NA	163.023131958	0	0.52	2.15	1	146.0238548	146.027693675	"6"	4059.558532312	4014.916142569	1.5	0.1
0.01	1	0.0279217800002698	1	118	NA	163.023131958	0	0.52	2.15	1	146.257623937	146.285545717	"6"	4059.558532312	4014.916142569	1.5	0.1
0.01	1	0.00308114800009207	1	118	NA	163.023131958	0	0.52	2.15	1	146.508007913	146.511089061	"6"	4059.558532312	4014.916142569	1.5	0.1
0.01	1	0.00233406799998193	1	118	NA	163.023131958	0	0.52	2.15	1	146.741775005	146.744109073	"6"	4059.558532312	4014.916142569	1.5	0.1
0.01	1	0.00456541499988816	1	118	NA	163.023131958	0	0.52	2.15	1	146.97549653	146.980061945	"6"	4059.558532312	4014.916142569	1.5	0.1
0.01	1	0.00390874499998972	1	118	NA	163.023131958	0	0.52	2.15	1	147.20921031	147.213119055	"6"	4059.558532312	4014.916142569	1.5	0.1
0.01	1	0.0195264919998408	1	118	NA	163.023131958	0	0.52	2.15	1	147.442914852	147.462441344	"6"	4059.558532312	4014.916142569	1.5	0.1
0.01	1	0.0032200659998125	1	118	NA	163.023131958	0	0.52	2.15	1	147.693385315	147.696605381	"6"	4059.558532312	4014.916142569	1.5	0.1
0.01	1	0.00331614800006719	1	118	NA	163.023131958	0	0.52	2.15	1	147.927162887	147.930479035	"6"	4059.558532312	4014.916142569	1.5	0.1
0.01	1	0.00247114400008286	1	118	NA	163.023131958	0	0.52	2.15	1	148.160829201	148.163300345	"6"	4059.558532312	4014.916142569	1.5	0.1
0.01	1	0.00269406600000366	1	118	NA	163.023131958	0	0.52	2.15	1	148.394608721	148.397302787	"6"	4059.558532312	4014.916142569	1.5	0.1
0.01	1	0.00380313200003002	1	118	NA	163.023131958	0	0.52	2.15	1	148.628280527	148.632083659	"6"	4059.558532312	4014.916142569	1.5	0.1
0.01	1	0.00373510500003249	1	118	NA	163.023131958	0	0.52	2.15	1	148.861915412	148.865650517	"6"	4059.558532312	4014.916142569	1.5	0.1
0.01	1	0.00456886699976167	1	118	NA	163.023131958	0	0.52	2.15	1	149.095770135	149.100339002	"6"	4059.558532312	4014.916142569	1.5	0.1
0.01	1	0.00456854000003659	1	118	NA	163.023131958	0	0.52	2.15	1	149.32937983	149.33394837	"6"	4059.558532312	4014.916142569	1.5	0.1
0.01	1	0.00372284300010506	1	118	NA	163.023131958	0	0.52	2.15	1	149.56313522	149.566858063	"6"	4059.558532312	4014.916142569	1.5	0.1
0.01	1	0.00376427999981388	1	118	NA	163.023131958	0	0.52	2.15	1	149.796924417	149.800688697	"6"	4059.558532312	4014.916142569	1.5	0.1
0.01	1	0.0043353300002309	1	118	NA	163.023131958	0	0.52	2.15	1	150.030621547	150.034956877	"6"	4059.558532312	4014.916142569	1.5	0.1
0.01	1	0.00385323499995138	1	118	NA	163.023131958	0	0.52	2.15	1	150.264401732	150.268254967	"6"	4059.558532312	4014.916142569	1.5	0.1
0.01	1	0.131750387000011	1	118	NA	163.023131958	0	0.52	2.15	1	150.498009077	150.629759464	"6"	4059.558532312	4014.916142569	1.5	0.1
0.01	1	0.0762171649998891	1	118	NA	163.023131958	0	0.52	2.15	1	150.86539625	150.941613415	"6"	4059.558532312	4014.916142569	1.5	0.1
0.01	1	0.00982151999960479	1	118	NA	163.023131958	0	0.52	2.15	1	151.165852397	151.175673917	"6"	4059.558532312	4014.916142569	1.5	0.1
0.01	1	0.0955659149999519	1	118	NA	163.023131958	0	0.52	2.15	1	151.39950026	151.495066175	"6"	4059.558532312	4014.916142569	1.5	0.1
0.01	1	0.0241369249997661	1	118	NA	163.023131958	0	0.52	2.15	1	151.733543645	151.75768057	"6"	4059.558532312	4014.916142569	1.5	0.1
0.01	1	0.0782418220001091	1	118	NA	163.023131958	0	0.52	2.15	1	151.984026155	152.062267977	"6"	4059.558532312	4014.916142569	1.5	0.1
0.01	1	0.0415148019997105	1	118	NA	163.023131958	0	0.52	2.15	1	152.284368582	152.325883384	"6"	4059.558532312	4014.916142569	1.5	0.1
0.01	1	0.030354449999777	1	118	NA	163.023131958	0	0.52	2.15	1	152.551496625	152.581851075	"6"	4059.558532312	4014.916142569	1.5	0.1
0.01	1	0.00332659800005786	1	118	NA	163.023131958	0	0.52	2.15	1	152.818519419	152.821846017	"6"	4059.558532312	4014.916142569	1.5	0.1
0.01	1	0.00456090499983475	1	118	NA	163.023131958	0	0.52	2.15	1	153.052451575	153.05701248	"6"	4059.558532312	4014.916142569	1.5	0.1
0.01	1	0.00331674800008841	1	118	NA	163.023131958	0	0.52	2.15	1	153.286100155	153.289416903	"6"	4059.558532312	4014.916142569	1.5	0.1
0.01	1	0.00331808200007799	1	118	NA	163.023131958	0	0.52	2.15	1	153.519859035	153.523177117	"6"	4059.558532312	4014.916142569	1.5	0.1
0.01	1	0.00696941599971979	1	118	NA	163.023131958	0	0.52	2.15	1	153.753551075	153.760520491	"6"	4059.558532312	4014.916142569	1.5	0.1
0.01	1	0.0268523309996453	1	118	NA	163.023131958	0	0.52	2.15	1	153.987259692	154.014112023	"6"	4059.558532312	4014.916142569	1.5	0.1
0.01	1	0.0492891240000972	1	118	NA	163.023131958	0	0.52	2.15	1	154.23767699	154.286966114	"6"	4059.558532312	4014.916142569	1.5	0.1
0.01	1	0.0128297100000054	1	118	NA	163.023131958	0	0.52	2.15	1	154.52143627	154.53426598	"6"	4059.558532312	4014.916142569	1.5	0.1
0.01	1	0.0175774379999893	1	118	NA	163.023131958	0	0.52	2.15	1	154.77191238	154.789489818	"6"	4059.558532312	4014.916142569	1.5	0.1
0.01	1	0.0807724229998712	1	118	NA	163.023131958	0	0.52	2.15	1	155.022280804	155.103053227	"6"	4059.558532312	4014.916142569	1.5	0.1
0.01	1	0.0265974399999322	1	118	NA	163.023131958	0	0.52	2.15	1	155.339576487	155.366173927	"6"	4059.558532312	4014.916142569	1.5	0.1
0.01	1	0.0646997179997015	1	118	NA	163.023131958	0	0.52	2.15	1	155.589921762	155.65462148	"6"	4059.558532312	4014.916142569	1.5	0.1
0.01	1	0.0362058020000404	1	118	NA	163.023131958	0	0.52	2.15	1	155.890506562	155.926712364	"6"	4059.558532312	4014.916142569	1.5	0.1
0.01	1	0.137662031000218	1	118	NA	163.023131958	0	0.52	2.15	1	156.157579532	156.295241563	"6"	4059.558532312	4014.916142569	1.5	0.1
0.01	1	0.385282662999998	1	118	NA	163.023131958	0	0.52	2.15	1	156.5248542	156.910136863	"6"	4059.558532312	4014.916142569	1.5	0.1
0.01	1	0.352493802000026	1	118	NA	163.023131958	0	0.52	2.15	1	157.142569772	157.495063574	"6"	4059.558532312	4014.916142569	1.5	0.1
0.01	1	0.271829492000052	1	118	NA	163.023131958	0	0.52	2.15	1	157.726893525	157.998723017	"6"	4059.558532312	4014.916142569	1.5	0.1
0.01	1	0.786558065999998	1	118	NA	163.023131958	0	0.52	2.15	1	158.227747965	159.014306031	"6"	4059.558532312	4014.916142569	1.5	0.1
0.01	1	0.52934612900026	1	118	NA	163.023131958	0	0.52	2.15	1	159.246062475	159.775408604	"6"	4059.558532312	4014.916142569	1.5	0.1
0.01	1	0.849364461999812	1	118	NA	163.023131958	0	0.52	2.15	1	159.99739547	160.846759932	"6"	4059.558532312	4014.916142569	1.5	0.1
0.01	1	0.843330351000077	1	118	NA	163.023131958	0	0.52	2.15	1	161.082531035	161.925861386	"6"	4059.558532312	4014.916142569	1.5	0.1
0.01	1	0.870633009999892	2	118	NA	163.023131958	0	0.52	2.15	1	162.15096733	163.02160034	"6"	4059.558532312	4014.916142569	1.5	0.1
0.01	1	0.422441671000342	1	87	NA	185.656835881	0	0.64	2.79	1	165.07261715	165.495058821	"7"	4059.558532312	4014.916142569	1.5	0.1
0.01	1	0.0119999670000652	1	87	NA	185.656835881	0	0.64	2.79	1	165.723671937	165.735671904	"7"	4059.558532312	4014.916142569	1.5	0.1
0.01	1	0.00458200000002762	1	87	NA	185.656835881	0	0.64	2.79	1	165.97411952	165.97870152	"7"	4059.558532312	4014.916142569	1.5	0.1
0.01	1	0.00385901099980401	1	87	NA	185.656835881	0	0.64	2.79	1	166.20782702	166.211686031	"7"	4059.558532312	4014.916142569	1.5	0.1
0.01	1	0.00215829899980235	1	87	NA	185.656835881	0	0.64	2.79	1	166.441632324	166.443790623	"7"	4059.558532312	4014.916142569	1.5	0.1
0.01	1	0.0756499700000859	1	87	NA	185.656835881	0	0.64	2.79	1	166.675309331	166.750959301	"7"	4059.558532312	4014.916142569	1.5	0.1
0.01	1	0.00240557400002217	1	87	NA	185.656835881	0	0.64	2.79	1	166.975737011	166.978142585	"7"	4059.558532312	4014.916142569	1.5	0.1
0.01	1	0.00376220299995111	1	87	NA	185.656835881	0	0.64	2.79	1	167.20950456	167.213266763	"7"	4059.558532312	4014.916142569	1.5	0.1
0.01	1	0.0990789299999051	1	87	NA	185.656835881	0	0.64	2.79	1	167.44320161	167.54228054	"7"	4059.558532312	4014.916142569	1.5	0.1
0.01	1	0.0024011900000005	1	87	NA	185.656835881	0	0.64	2.79	1	167.777097875	167.779499065	"7"	4059.558532312	4014.916142569	1.5	0.1
0.01	1	0.00300013200012472	1	87	NA	185.656835881	0	0.64	2.79	1	168.010812943	168.013813075	"7"	4059.558532312	4014.916142569	1.5	0.1
0.01	1	0.00258703100007551	1	87	NA	185.656835881	0	0.64	2.79	1	168.244655287	168.247242318	"7"	4059.558532312	4014.916142569	1.5	0.1
0.01	1	0.00380432299971289	1	87	NA	185.656835881	0	0.64	2.79	1	168.47829465	168.482098973	"7"	4059.558532312	4014.916142569	1.5	0.1
0.01	1	0.0226623090002249	1	87	NA	185.656835881	0	0.64	2.79	1	168.712124642	168.734786951	"7"	4059.558532312	4014.916142569	1.5	0.1
0.01	1	0.0282384249999268	1	87	NA	185.656835881	0	0.64	2.79	1	168.96265489	168.990893315	"7"	4059.558532312	4014.916142569	1.5	0.1
0.01	1	0.00300884199987195	1	87	NA	185.656835881	0	0.64	2.79	1	169.229535143	169.232543985	"7"	4059.558532312	4014.916142569	1.5	0.1
0.01	1	0.00457630700020673	1	87	NA	185.656835881	0	0.64	2.79	1	169.463318335	169.467894642	"7"	4059.558532312	4014.916142569	1.5	0.1
0.01	1	0.00395343299987871	1	87	NA	185.656835881	0	0.64	2.79	1	169.69696511	169.700918543	"7"	4059.558532312	4014.916142569	1.5	0.1
0.01	1	0.00328403999992588	1	87	NA	185.656835881	0	0.64	2.79	1	169.930760421	169.934044461	"7"	4059.558532312	4014.916142569	1.5	0.1
0.01	1	0.0907225829996605	1	87	NA	185.656835881	0	0.64	2.79	1	170.164426372	170.255148955	"7"	4059.558532312	4014.916142569	1.5	0.1
0.01	1	0.0358488390002094	1	87	NA	185.656835881	0	0.64	2.79	1	170.481611045	170.517459884	"7"	4059.558532312	4014.916142569	1.5	0.1
0.01	1	0.00389317500003017	1	87	NA	185.656835881	0	0.64	2.79	1	170.748849252	170.752742427	"7"	4059.558532312	4014.916142569	1.5	0.1
0.01	1	0.00399427599995761	1	87	NA	185.656835881	0	0.64	2.79	1	170.982478545	170.986472821	"7"	4059.558532312	4014.916142569	1.5	0.1
0.01	1	0.00250126799983263	1	87	NA	185.656835881	0	0.64	2.79	1	171.216301105	171.218802373	"7"	4059.558532312	4014.916142569	1.5	0.1
0.01	1	0.00325975000032486	1	87	NA	185.656835881	0	0.64	2.79	1	171.449894235	171.453153985	"7"	4059.558532312	4014.916142569	1.5	0.1
0.01	1	0.0111933860002864	1	87	NA	185.656835881	0	0.64	2.79	1	171.683799075	171.694992461	"7"	4059.558532312	4014.916142569	1.5	0.1
0.01	1	0.0168772359998002	1	87	NA	185.656835881	0	0.64	2.79	1	171.917454397	171.934331633	"7"	4059.558532312	4014.916142569	1.5	0.1
0.01	1	0.0381790629999159	1	87	NA	185.656835881	0	0.64	2.79	1	172.167884132	172.206063195	"7"	4059.558532312	4014.916142569	1.5	0.1
0.01	1	0.0272067470000366	1	87	NA	185.656835881	0	0.64	2.79	1	172.435054685	172.462261432	"7"	4059.558532312	4014.916142569	1.5	0.1
0.01	1	0.00270418199988853	1	87	NA	185.656835881	0	0.64	2.79	1	172.685299389	172.688003571	"7"	4059.558532312	4014.916142569	1.5	0.1
0.01	1	0.00205532300014966	1	87	NA	185.656835881	0	0.64	2.79	1	172.919099049	172.921154372	"7"	4059.558532312	4014.916142569	1.5	0.1
0.01	1	0.00307180000027074	1	87	NA	185.656835881	0	0.64	2.79	1	173.152860477	173.155932277	"7"	4059.558532312	4014.916142569	1.5	0.1
0.01	1	0.00400439699978961	1	87	NA	185.656835881	0	0.64	2.79	1	173.3865211	173.390525497	"7"	4059.558532312	4014.916142569	1.5	0.1
0.01	1	0.0170611339999596	1	87	NA	185.656835881	0	0.64	2.79	1	173.620361392	173.637422526	"7"	4059.558532312	4014.916142569	1.5	0.1
0.01	1	0.00363560799996776	1	87	NA	185.656835881	0	0.64	2.79	1	173.870632545	173.874268153	"7"	4059.558532312	4014.916142569	1.5	0.1
0.01	1	0.00334320000001753	1	87	NA	185.656835881	0	0.64	2.79	1	174.104333837	174.107677037	"7"	4059.558532312	4014.916142569	1.5	0.1
0.01	1	0.0290526940002565	1	87	NA	185.656835881	0	0.64	2.79	1	174.338189895	174.367242589	"7"	4059.558532312	4014.916142569	1.5	0.1
0.01	1	0.00235842599977332	1	87	NA	185.656835881	0	0.64	2.79	1	174.605200129	174.607558555	"7"	4059.558532312	4014.916142569	1.5	0.1
0.01	1	0.00323105200004647	1	87	NA	185.656835881	0	0.64	2.79	1	174.839072983	174.842304035	"7"	4059.558532312	4014.916142569	1.5	0.1
0.01	1	0.00334022600009121	1	87	NA	185.656835881	0	0.64	2.79	1	175.072658753	175.075998979	"7"	4059.558532312	4014.916142569	1.5	0.1
0.01	1	0.00721781700030988	1	87	NA	185.656835881	0	0.64	2.79	1	175.306499532	175.313717349	"7"	4059.558532312	4014.916142569	1.5	0.1
0.01	1	0.0430702450003082	1	87	NA	185.656835881	0	0.64	2.79	1	175.54018937	175.583259615	"7"	4059.558532312	4014.916142569	1.5	0.1
0.01	1	0.00384377000000313	1	87	NA	185.656835881	0	0.64	2.79	1	175.807329665	175.811173435	"7"	4059.558532312	4014.916142569	1.5	0.1
0.01	1	0.0212964219999776	1	87	NA	185.656835881	0	0.64	2.79	1	176.04093448	176.062230902	"7"	4059.558532312	4014.916142569	1.5	0.1
0.01	1	0.0358505030003471	1	87	NA	185.656835881	0	0.64	2.79	1	176.291353732	176.327204235	"7"	4059.558532312	4014.916142569	1.5	0.1
0.01	1	0.024534236999898	1	87	NA	185.656835881	0	0.64	2.79	1	176.558577005	176.583111242	"7"	4059.558532312	4014.916142569	1.5	0.1
0.01	1	0.0445123219997186	1	87	NA	185.656835881	0	0.64	2.79	1	176.808910795	176.853423117	"7"	4059.558532312	4014.916142569	1.5	0.1
0.01	1	0.186230401000103	1	87	NA	185.656835881	0	0.64	2.79	1	177.076118662	177.262349063	"7"	4059.558532312	4014.916142569	1.5	0.1
0.01	1	0.344363102999978	1	87	NA	185.656835881	0	0.64	2.79	1	177.49344722	177.837810323	"7"	4059.558532312	4014.916142569	1.5	0.1
0.01	1	0.248960287000045	1	87	NA	185.656835881	0	0.64	2.79	1	178.077823817	178.326784104	"7"	4059.558532312	4014.916142569	1.5	0.1
0.01	1	0.0276210600000013	1	87	NA	185.656835881	0	0.64	2.79	1	178.561951832	178.589572892	"7"	4059.558532312	4014.916142569	1.5	0.1
0.01	1	0.0330765160001647	1	87	NA	185.656835881	0	0.64	2.79	1	178.812406677	178.845483193	"7"	4059.558532312	4014.916142569	1.5	0.1
0.01	1	0.0158866990000206	1	87	NA	185.656835881	0	0.64	2.79	1	179.079482545	179.095369244	"7"	4059.558532312	4014.916142569	1.5	0.1
0.01	1	0.00673157199980778	1	87	NA	185.656835881	0	0.64	2.79	1	179.329949957	179.336681529	"7"	4059.558532312	4014.916142569	1.5	0.1
0.01	1	0.146829026999967	1	87	NA	185.656835881	0	0.64	2.79	1	179.56364489	179.710473917	"7"	4059.558532312	4014.916142569	1.5	0.1
0.01	1	0.00315826199994262	1	87	NA	185.656835881	0	0.64	2.79	1	179.947516511	179.950674773	"7"	4059.558532312	4014.916142569	1.5	0.1
0.01	1	0.00425216399980854	1	87	NA	185.656835881	0	0.64	2.79	1	180.181342821	180.185594985	"7"	4059.558532312	4014.916142569	1.5	0.1
0.01	1	0.00376118699978178	1	87	NA	185.656835881	0	0.64	2.79	1	180.415005122	180.418766309	"7"	4059.558532312	4014.916142569	1.5	0.1
0.01	1	0.142194180999923	1	87	NA	185.656835881	0	0.64	2.79	1	180.64880372	180.790997901	"7"	4059.558532312	4014.916142569	1.5	0.1
0.01	1	0.182849282000006	1	87	NA	185.656835881	0	0.64	2.79	1	181.01605516	181.198904442	"7"	4059.558532312	4014.916142569	1.5	0.1
0.01	1	1.13370067899996	1	87	NA	185.656835881	0	0.64	2.79	1	181.433423692	182.567124371	"7"	4059.558532312	4014.916142569	1.5	0.1
0.01	1	0.524716138999793	1	87	NA	185.656835881	0	0.64	2.79	1	182.802397015	183.327113154	"7"	4059.558532312	4014.916142569	1.5	0.1
0.01	1	0.363940622999962	1	87	NA	185.656835881	0	0.64	2.79	1	183.55376571	183.917706333	"7"	4059.558532312	4014.916142569	1.5	0.1
0.01	1	0.676586897000107	1	87	NA	185.656835881	0	0.64	2.79	1	184.154668805	184.831255702	"7"	4059.558532312	4014.916142569	1.5	0.1
0.01	1	0.599094332000277	2	87	NA	185.656835881	0	0.64	2.79	1	185.05622708	185.655321412	"7"	4059.558532312	4014.916142569	1.5	0.1
0.01	1	0.415260104000026	1	6	189.48337558	NA	1	0	2.79	1	187.71069606	188.125956164	"8"	4059.558532312	4014.916142569	1.5	0.1
0.01	1	0.00303655599964259	1	6	189.48337558	NA	1	0	2.79	1	188.361745195	188.364781751	"8"	4059.558532312	4014.916142569	1.5	0.1
0.01	1	0.00426670300021215	1	6	189.48337558	NA	1	0	2.79	1	188.595494394	188.599761097	"8"	4059.558532312	4014.916142569	1.5	0.1
0.01	1	0.0650984900003095	1	6	189.48337558	NA	1	0	2.79	1	188.82923226	188.89433075	"8"	4059.558532312	4014.916142569	1.5	0.1
0.01	1	0.00330802799999219	1	6	189.48337558	NA	1	0	2.79	1	189.129755283	189.133063311	"8"	4059.558532312	4014.916142569	1.5	0.1
0.01	1	0.00452803500002119	1	6	189.48337558	NA	1	0	2.79	1	189.36343685	189.367964885	"8"	4059.558532312	4014.916142569	1.5	0.1
0.01	1	0.345195239000077	1	106	NA	212.775603389	0	0.72	3.51	1	191.516995854	191.862191093	"9"	4059.558532312	4014.916142569	1.5	0.1
0.01	1	0.00204708799992659	1	106	NA	212.775603389	0	0.72	3.51	1	192.101380311	192.103427399	"9"	4059.558532312	4014.916142569	1.5	0.1
0.01	1	0.00331211999991865	1	106	NA	212.775603389	0	0.72	3.51	1	192.335085587	192.338397707	"9"	4059.558532312	4014.916142569	1.5	0.1
0.01	1	0.00390870199998972	1	106	NA	212.775603389	0	0.72	3.51	1	192.568805077	192.572713779	"9"	4059.558532312	4014.916142569	1.5	0.1
0.01	1	0.00403099000004659	1	106	NA	212.775603389	0	0.72	3.51	1	192.802602375	192.806633365	"9"	4059.558532312	4014.916142569	1.5	0.1
0.01	1	0.13728739499993	1	106	NA	212.775603389	0	0.72	3.51	1	193.036333912	193.173621307	"9"	4059.558532312	4014.916142569	1.5	0.1
0.01	1	0.00372858499986251	1	106	NA	212.775603389	0	0.72	3.51	1	193.403469	193.407197585	"9"	4059.558532312	4014.916142569	1.5	0.1
0.01	1	0.00249065800016979	1	106	NA	212.775603389	0	0.72	3.51	1	193.637242195	193.639732853	"9"	4059.558532312	4014.916142569	1.5	0.1
0.01	1	0.00401200599981166	1	106	NA	212.775603389	0	0.72	3.51	1	193.870990217	193.875002223	"9"	4059.558532312	4014.916142569	1.5	0.1
0.01	1	0.00248865999992631	1	106	NA	212.775603389	0	0.72	3.51	1	194.104724811	194.107213471	"9"	4059.558532312	4014.916142569	1.5	0.1
0.01	1	0.0020578209996529	1	106	NA	212.775603389	0	0.72	3.51	1	194.33845729	194.340515111	"9"	4059.558532312	4014.916142569	1.5	0.1
0.01	1	0.00273246800043125	1	106	NA	212.775603389	0	0.72	3.51	1	194.572128625	194.574861093	"9"	4059.558532312	4014.916142569	1.5	0.1
0.01	1	0.00462540499984243	1	106	NA	212.775603389	0	0.72	3.51	1	194.805930485	194.81055589	"9"	4059.558532312	4014.916142569	1.5	0.1
0.01	1	0.00208679999968808	1	106	NA	212.775603389	0	0.72	3.51	1	195.039611024	195.041697824	"9"	4059.558532312	4014.916142569	1.5	0.1
0.01	1	0.00205369600007543	1	106	NA	212.775603389	0	0.72	3.51	1	195.273398345	195.275452041	"9"	4059.558532312	4014.916142569	1.5	0.1
0.01	1	0.0044231460001356	1	106	NA	212.775603389	0	0.72	3.51	1	195.507055371	195.511478517	"9"	4059.558532312	4014.916142569	1.5	0.1
0.01	1	0.145720646999962	1	106	NA	212.775603389	0	0.72	3.51	1	195.740750272	195.886470919	"9"	4059.558532312	4014.916142569	1.5	0.1
0.01	1	0.00333078200037562	1	106	NA	212.775603389	0	0.72	3.51	1	196.108074965	196.111405747	"9"	4059.558532312	4014.916142569	1.5	0.1
0.01	1	0.0816491939999651	1	106	NA	212.775603389	0	0.72	3.51	1	196.34188647	196.423535664	"9"	4059.558532312	4014.916142569	1.5	0.1
0.01	1	0.00324941200005924	1	106	NA	212.775603389	0	0.72	3.51	1	196.658986537	196.662235949	"9"	4059.558532312	4014.916142569	1.5	0.1
0.01	1	0.00216606699996191	1	106	NA	212.775603389	0	0.72	3.51	1	196.892812925	196.894978992	"9"	4059.558532312	4014.916142569	1.5	0.1
0.01	1	0.0022010939997017	1	106	NA	212.775603389	0	0.72	3.51	1	197.126362517	197.128563611	"9"	4059.558532312	4014.916142569	1.5	0.1
0.01	1	0.00369350299979487	1	106	NA	212.775603389	0	0.72	3.51	1	197.36018991	197.363883413	"9"	4059.558532312	4014.916142569	1.5	0.1
0.01	1	0.00400519200002236	1	106	NA	212.775603389	0	0.72	3.51	1	197.593922771	197.597927963	"9"	4059.558532312	4014.916142569	1.5	0.1
0.01	1	0.130408491999788	1	106	NA	212.775603389	0	0.72	3.51	1	197.827665	197.958073492	"9"	4059.558532312	4014.916142569	1.5	0.1
0.01	1	0.0360737339997286	1	106	NA	212.775603389	0	0.72	3.51	1	198.19498786	198.231061594	"9"	4059.558532312	4014.916142569	1.5	0.1
0.01	1	0.0476565730000402	1	106	NA	212.775603389	0	0.72	3.51	1	198.46203159	198.509688163	"9"	4059.558532312	4014.916142569	1.5	0.1
0.01	1	0.0211589460000141	1	106	NA	212.775603389	0	0.72	3.51	1	198.745888087	198.767047033	"9"	4059.558532312	4014.916142569	1.5	0.1
0.01	1	0.00462419999985286	1	106	NA	212.775603389	0	0.72	3.51	1	198.99638287	199.00100707	"9"	4059.558532312	4014.916142569	1.5	0.1
0.01	1	0.00458804200025043	1	106	NA	212.775603389	0	0.72	3.51	1	199.23010981	199.234697852	"9"	4059.558532312	4014.916142569	1.5	0.1
0.01	1	0.0153320029999122	1	106	NA	212.775603389	0	0.72	3.51	1	199.463772124	199.479104127	"9"	4059.558532312	4014.916142569	1.5	0.1
0.01	1	0.0354407589998118	1	106	NA	212.775603389	0	0.72	3.51	1	199.714125448	199.749566207	"9"	4059.558532312	4014.916142569	1.5	0.1
0.01	1	0.0976519929999995	1	106	NA	212.775603389	0	0.72	3.51	1	199.981338542	200.078990535	"9"	4059.558532312	4014.916142569	1.5	0.1
0.01	1	0.00328201000002082	1	106	NA	212.775603389	0	0.72	3.51	1	200.315160611	200.318442621	"9"	4059.558532312	4014.916142569	1.5	0.1
0.01	1	0.00444156200001089	1	106	NA	212.775603389	0	0.72	3.51	1	200.54893089	200.553372452	"9"	4059.558532312	4014.916142569	1.5	0.1
0.01	1	0.00446290000036242	1	106	NA	212.775603389	0	0.72	3.51	1	200.782753205	200.787216105	"9"	4059.558532312	4014.916142569	1.5	0.1
0.01	1	0.00396203799982686	1	106	NA	212.775603389	0	0.72	3.51	1	201.016394775	201.020356813	"9"	4059.558532312	4014.916142569	1.5	0.1
0.01	1	0.00384303500004535	1	106	NA	212.775603389	0	0.72	3.51	1	201.250079162	201.253922197	"9"	4059.558532312	4014.916142569	1.5	0.1
0.01	1	0.00399053799992544	1	106	NA	212.775603389	0	0.72	3.51	1	201.483763285	201.487753823	"9"	4059.558532312	4014.916142569	1.5	0.1
0.01	1	0.113844688999961	1	106	NA	212.775603389	0	0.72	3.51	1	201.717465357	201.831310046	"9"	4059.558532312	4014.916142569	1.5	0.1
0.01	1	0.0336486960000002	1	106	NA	212.775603389	0	0.72	3.51	1	202.068131327	202.101780023	"9"	4059.558532312	4014.916142569	1.5	0.1
0.01	1	0.0155357739999999	1	106	NA	212.775603389	0	0.72	3.51	1	202.33513167	202.350667444	"9"	4059.558532312	4014.916142569	1.5	0.1
0.01	1	0.021850405999885	1	106	NA	212.775603389	0	0.72	3.51	1	202.585634595	202.607485001	"9"	4059.558532312	4014.916142569	1.5	0.1
0.01	1	0.041376030000265	1	106	NA	212.775603389	0	0.72	3.51	1	202.83612514	202.87750117	"9"	4059.558532312	4014.916142569	1.5	0.1
0.01	1	0.062322826000127	1	106	NA	212.775603389	0	0.72	3.51	1	203.103250695	203.165573521	"9"	4059.558532312	4014.916142569	1.5	0.1
0.01	1	0.0115957699999854	1	106	NA	212.775603389	0	0.72	3.51	1	203.40373347	203.41532924	"9"	4059.558532312	4014.916142569	1.5	0.1
0.01	1	0.0174780319998717	1	106	NA	212.775603389	0	0.72	3.51	1	203.63745598	203.654934012	"9"	4059.558532312	4014.916142569	1.5	0.1
0.01	1	0.0151148539998758	1	106	NA	212.775603389	0	0.72	3.51	1	203.887909272	203.903024126	"9"	4059.558532312	4014.916142569	1.5	0.1
0.01	1	0.091926543000227	1	106	NA	212.775603389	0	0.72	3.51	1	204.138250082	204.230176625	"9"	4059.558532312	4014.916142569	1.5	0.1
0.01	1	0.03901211099992	1	106	NA	212.775603389	0	0.72	3.51	1	204.455426412	204.494438523	"9"	4059.558532312	4014.916142569	1.5	0.1
0.01	1	0.162927742999727	1	106	NA	212.775603389	0	0.72	3.51	1	204.722577052	204.885504795	"9"	4059.558532312	4014.916142569	1.5	0.1
0.01	1	0.0431697730000451	1	106	NA	212.775603389	0	0.72	3.51	1	205.1231976	205.166367373	"9"	4059.558532312	4014.916142569	1.5	0.1
0.01	1	0.0649770319996605	1	106	NA	212.775603389	0	0.72	3.51	1	205.390362835	205.455339867	"9"	4059.558532312	4014.916142569	1.5	0.1
0.01	1	0.00329811600022367	1	106	NA	212.775603389	0	0.72	3.51	1	205.690804835	205.694102951	"9"	4059.558532312	4014.916142569	1.5	0.1
0.01	1	0.049263461999999	1	106	NA	212.775603389	0	0.72	3.51	1	205.92454599	205.973809452	"9"	4059.558532312	4014.916142569	1.5	0.1
0.01	1	0.00796392600022955	1	106	NA	212.775603389	0	0.72	3.51	1	206.208448587	206.216412513	"9"	4059.558532312	4014.916142569	1.5	0.1
0.01	1	0.0285533169999326	1	106	NA	212.775603389	0	0.72	3.51	1	206.44212106	206.470674377	"9"	4059.558532312	4014.916142569	1.5	0.1
0.01	1	0.00960513500012894	1	106	NA	212.775603389	0	0.72	3.51	1	206.692526022	206.702131157	"9"	4059.558532312	4014.916142569	1.5	0.1
0.01	1	0.0410358760000236	1	106	NA	212.775603389	0	0.72	3.51	1	206.926250017	206.967285893	"9"	4059.558532312	4014.916142569	1.5	0.1
0.01	1	0.00706258900027024	1	106	NA	212.775603389	0	0.72	3.51	1	207.19347215	207.200534739	"9"	4059.558532312	4014.916142569	1.5	0.1
0.01	1	0.0116824320002706	1	106	NA	212.775603389	0	0.72	3.51	1	207.42706765	207.438750082	"9"	4059.558532312	4014.916142569	1.5	0.1
0.01	1	0.0503028690000065	1	106	NA	212.775603389	0	0.72	3.51	1	207.66088918	207.711192049	"9"	4059.558532312	4014.916142569	1.5	0.1
0.01	1	0.0210572419996424	1	106	NA	212.775603389	0	0.72	3.51	1	207.94486534	207.965922582	"9"	4059.558532312	4014.916142569	1.5	0.1
0.01	1	0.242867177999869	1	106	NA	212.775603389	0	0.72	3.51	1	208.195148432	208.43801561	"9"	4059.558532312	4014.916142569	1.5	0.1
0.01	1	0.263292378000187	1	106	NA	212.775603389	0	0.72	3.51	1	208.66257666	208.925869038	"9"	4059.558532312	4014.916142569	1.5	0.1
0.01	1	0.306694243000038	1	106	NA	212.775603389	0	0.72	3.51	1	209.163472457	209.4701667	"9"	4059.558532312	4014.916142569	1.5	0.1
0.01	1	0.252912235999702	1	106	NA	212.775603389	0	0.72	3.51	1	209.697585602	209.950497838	"9"	4059.558532312	4014.916142569	1.5	0.1
0.01	1	0.257595257999583	1	106	NA	212.775603389	0	0.72	3.51	1	210.181790185	210.439385443	"9"	4059.558532312	4014.916142569	1.5	0.1
0.01	1	0.188453775000198	1	106	NA	212.775603389	0	0.72	3.51	1	210.66594316	210.854396935	"9"	4059.558532312	4014.916142569	1.5	0.1
0.01	1	0.0354740130001119	1	106	NA	212.775603389	0	0.72	3.51	1	211.08320957	211.118683583	"9"	4059.558532312	4014.916142569	1.5	0.1
0.01	1	0.0968016810002155	1	106	NA	212.775603389	0	0.72	3.51	1	211.350393857	211.447195538	"9"	4059.558532312	4014.916142569	1.5	0.1
0.01	1	0.00231153599997924	1	106	NA	212.775603389	0	0.72	3.51	1	211.684286925	211.686598461	"9"	4059.558532312	4014.916142569	1.5	0.1
0.01	1	0.856064815000082	2	106	NA	212.775603389	0	0.72	3.51	1	211.91801643	212.774081245	"9"	4059.558532312	4014.916142569	1.5	0.1
0.01	1	0.391764199000136	1	21	220.23573253	NA	1	0	3.51	1	214.822863665	215.214627864	"10"	4059.558532312	4014.916142569	1.5	0.1
0.01	1	0.00328997199994774	1	21	220.23573253	NA	1	0	3.51	1	215.440628691	215.443918663	"10"	4059.558532312	4014.916142569	1.5	0.1
0.01	1	0.00372479500038025	1	21	220.23573253	NA	1	0	3.51	1	215.67439732	215.678122115	"10"	4059.558532312	4014.916142569	1.5	0.1
0.01	1	0.0831617530002404	1	21	220.23573253	NA	1	0	3.51	1	215.90806271	215.991224463	"10"	4059.558532312	4014.916142569	1.5	0.1
0.01	1	0.0045744620001642	1	21	220.23573253	NA	1	0	3.51	1	216.225343635	216.229918097	"10"	4059.558532312	4014.916142569	1.5	0.1
0.01	1	0.00426883000000089	1	21	220.23573253	NA	1	0	3.51	1	216.45894276	216.46321159	"10"	4059.558532312	4014.916142569	1.5	0.1
0.01	1	0.113359875000242	1	21	220.23573253	NA	1	0	3.51	1	216.692610737	216.805970612	"10"	4059.558532312	4014.916142569	1.5	0.1
0.01	1	0.0116855799997211	1	21	220.23573253	NA	1	0	3.51	1	217.04327153	217.05495711	"10"	4059.558532312	4014.916142569	1.5	0.1
0.01	1	0.00439589899997372	1	21	220.23573253	NA	1	0	3.51	1	217.277022581	217.28141848	"10"	4059.558532312	4014.916142569	1.5	0.1
0.01	1	0.00465213200004655	1	21	220.23573253	NA	1	0	3.51	1	217.51080712	217.515459252	"10"	4059.558532312	4014.916142569	1.5	0.1
0.01	1	0.00395621699999538	1	21	220.23573253	NA	1	0	3.51	1	217.744437032	217.748393249	"10"	4059.558532312	4014.916142569	1.5	0.1
0.01	1	0.00377026300020589	1	21	220.23573253	NA	1	0	3.51	1	217.97823999	217.982010253	"10"	4059.558532312	4014.916142569	1.5	0.1
0.01	1	0.00395558299987897	1	21	220.23573253	NA	1	0	3.51	1	218.21195078	218.215906363	"10"	4059.558532312	4014.916142569	1.5	0.1
0.01	1	0.00454424999998082	1	21	220.23573253	NA	1	0	3.51	1	218.44557785	218.4501221	"10"	4059.558532312	4014.916142569	1.5	0.1
0.01	1	0.00211688999979742	1	21	220.23573253	NA	1	0	3.51	1	218.679299015	218.681415905	"10"	4059.558532312	4014.916142569	1.5	0.1
0.01	1	0.00382592699997986	1	21	220.23573253	NA	1	0	3.51	1	218.913072212	218.916898139	"10"	4059.558532312	4014.916142569	1.5	0.1
0.01	1	0.00388307799994436	1	21	220.23573253	NA	1	0	3.51	1	219.146867365	219.150750443	"10"	4059.558532312	4014.916142569	1.5	0.1
0.01	1	0.00377652299994224	1	21	220.23573253	NA	1	0	3.51	1	219.380560912	219.384337435	"10"	4059.558532312	4014.916142569	1.5	0.1
0.01	1	0.0320468189997882	1	21	220.23573253	NA	1	0	3.51	1	219.61433541	219.646382229	"10"	4059.558532312	4014.916142569	1.5	0.1
0.01	1	0.00257109500034858	1	21	220.23573253	NA	1	0	3.51	1	219.881432655	219.88400375	"10"	4059.558532312	4014.916142569	1.5	0.1
0.01	1	0.00248266899961891	1	21	220.23573253	NA	1	0	3.51	1	220.115077345	220.117560014	"10"	4059.558532312	4014.916142569	1.5	0.1
0.01	1	0.328163130000121	1	19	228.215828165	NA	1	0	3.51	1	222.285494062	222.613657192	"11"	4059.558532312	4014.916142569	1.5	0.1
0.01	1	0.00233248799986541	1	19	228.215828165	NA	1	0	3.51	1	222.853015723	222.855348211	"11"	4059.558532312	4014.916142569	1.5	0.1
0.01	1	0.00377883299961468	1	19	228.215828165	NA	1	0	3.51	1	223.08674123	223.090520063	"11"	4059.558532312	4014.916142569	1.5	0.1
0.01	1	0.133173153999905	1	19	228.215828165	NA	1	0	3.51	1	223.32064788	223.453821034	"11"	4059.558532312	4014.916142569	1.5	0.1
0.01	1	0.00226613699987865	1	19	228.215828165	NA	1	0	3.51	1	223.687835003	223.69010114	"11"	4059.558532312	4014.916142569	1.5	0.1
0.01	1	0.187853872999767	1	19	228.215828165	NA	1	0	3.51	1	223.921595457	224.10944933	"11"	4059.558532312	4014.916142569	1.5	0.1
0.01	1	0.00324305400044977	1	19	228.215828165	NA	1	0	3.51	1	224.338870521	224.342113575	"11"	4059.558532312	4014.916142569	1.5	0.1
0.01	1	0.00208445799989931	1	19	228.215828165	NA	1	0	3.51	1	224.572672784	224.574757242	"11"	4059.558532312	4014.916142569	1.5	0.1
0.01	1	0.00279482500036465	1	19	228.215828165	NA	1	0	3.51	1	224.806379091	224.809173916	"11"	4059.558532312	4014.916142569	1.5	0.1
0.01	1	0.0388296299997819	1	19	228.215828165	NA	1	0	3.51	1	225.04011739	225.07894702	"11"	4059.558532312	4014.916142569	1.5	0.1
0.01	1	0.195138647000022	1	19	228.215828165	NA	1	0	3.51	1	225.307182155	225.502320802	"11"	4059.558532312	4014.916142569	1.5	0.1
0.01	1	0.144716742000128	1	19	228.215828165	NA	1	0	3.51	1	225.741217897	225.885934639	"11"	4059.558532312	4014.916142569	1.5	0.1
0.01	1	0.0185978320000686	1	19	228.215828165	NA	1	0	3.51	1	226.1086135	226.127211332	"11"	4059.558532312	4014.916142569	1.5	0.1
0.01	1	0.0042527529999461	1	19	228.215828165	NA	1	0	3.51	1	226.359032964	226.363285717	"11"	4059.558532312	4014.916142569	1.5	0.1
0.01	1	0.477698865000093	1	19	228.215828165	NA	1	0	3.51	1	226.59274209	227.070440955	"11"	4059.558532312	4014.916142569	1.5	0.1
0.01	1	0.0032514499998797	1	19	228.215828165	NA	1	0	3.51	1	227.293749575	227.297001025	"11"	4059.558532312	4014.916142569	1.5	0.1
0.01	1	0.00263402100017629	1	19	228.215828165	NA	1	0	3.51	1	227.527662105	227.530296126	"11"	4059.558532312	4014.916142569	1.5	0.1
0.01	1	0.108976029999667	1	19	228.215828165	NA	1	0	3.51	1	227.761337087	227.870313117	"11"	4059.558532312	4014.916142569	1.5	0.1
0.01	1	0.00976451799988354	1	19	228.215828165	NA	1	0	3.51	1	228.095159237	228.104923755	"11"	4059.558532312	4014.916142569	1.5	0.1
0.01	1	0.356292596000003	1	63	NA	235.670987023	0	0.17	3.68	1	230.265529757	230.621822353	"12"	4059.558532312	4014.916142569	1.5	0.1
0.01	1	0.00238548900006208	1	63	NA	235.670987023	0	0.17	3.68	1	230.849910285	230.852295774	"12"	4059.558532312	4014.916142569	1.5	0.1
0.01	1	0.00451647699992463	1	63	NA	235.670987023	0	0.17	3.68	1	231.08361154	231.088128017	"12"	4059.558532312	4014.916142569	1.5	0.1
0.01	1	0.00391668300017045	1	63	NA	235.670987023	0	0.17	3.68	1	231.31721263	231.321129313	"12"	4059.558532312	4014.916142569	1.5	0.1
0.01	1	0.00437615300006655	1	63	NA	235.670987023	0	0.17	3.68	1	231.551027467	231.55540362	"12"	4059.558532312	4014.916142569	1.5	0.1
0.01	1	0.00367592299971875	1	63	NA	235.670987023	0	0.17	3.68	1	231.784692712	231.788368635	"12"	4059.558532312	4014.916142569	1.5	0.1
0.01	1	0.0285140889996001	1	63	NA	235.670987023	0	0.17	3.68	1	232.0184872	232.047001289	"12"	4059.558532312	4014.916142569	1.5	0.1
0.01	1	0.033307749999949	1	63	NA	235.670987023	0	0.17	3.68	1	232.268865275	232.302173025	"12"	4059.558532312	4014.916142569	1.5	0.1
0.01	1	0.0034934020000037	1	63	NA	235.670987023	0	0.17	3.68	1	232.535938425	232.539431827	"12"	4059.558532312	4014.916142569	1.5	0.1
0.01	1	0.00322405599990816	1	63	NA	235.670987023	0	0.17	3.68	1	232.769742243	232.772966299	"12"	4059.558532312	4014.916142569	1.5	0.1
0.01	1	0.0425514240000666	1	63	NA	235.670987023	0	0.17	3.68	1	233.003471265	233.046022689	"12"	4059.558532312	4014.916142569	1.5	0.1
0.01	1	0.0320442920001369	1	63	NA	235.670987023	0	0.17	3.68	1	233.270609042	233.302653334	"12"	4059.558532312	4014.916142569	1.5	0.1
0.01	1	0.0284751660001348	1	63	NA	235.670987023	0	0.17	3.68	1	233.537785075	233.566260241	"12"	4059.558532312	4014.916142569	1.5	0.1
0.01	1	0.033491371999844	1	63	NA	235.670987023	0	0.17	3.68	1	233.788143325	233.821634697	"12"	4059.558532312	4014.916142569	1.5	0.1
0.01	1	0.0226134929998807	1	63	NA	235.670987023	0	0.17	3.68	1	234.055209425	234.077822918	"12"	4059.558532312	4014.916142569	1.5	0.1
0.01	1	0.0769784369999797	1	63	NA	235.670987023	0	0.17	3.68	1	234.305711652	234.382690089	"12"	4059.558532312	4014.916142569	1.5	0.1
0.01	1	0.184009683000113	1	63	NA	235.670987023	0	0.17	3.68	1	234.60614431	234.790153993	"12"	4059.558532312	4014.916142569	1.5	0.1
0.01	1	0.645921139000166	2	63	NA	235.670987023	0	0.17	3.68	1	235.02353407	235.669455209	"12"	4059.558532312	4014.916142569	1.5	0.1
0.01	1	0.327531392999845	1	54	NA	246.672298705	0	0.29	3.97	1	237.711337725	238.038869118	"13"	4059.558532312	4014.916142569	1.5	0.1
0.01	1	0.0025737079999999	1	54	NA	246.672298705	0	0.29	3.97	1	238.279066523	238.281640231	"13"	4059.558532312	4014.916142569	1.5	0.1
0.01	1	0.00385721700013164	1	54	NA	246.672298705	0	0.29	3.97	1	238.512789362	238.516646579	"13"	4059.558532312	4014.916142569	1.5	0.1
0.01	1	0.0991363830003138	1	54	NA	246.672298705	0	0.29	3.97	1	238.74657225	238.845708633	"13"	4059.558532312	4014.916142569	1.5	0.1
0.01	1	0.00322232999997141	1	54	NA	246.672298705	0	0.29	3.97	1	239.080349011	239.083571341	"13"	4059.558532312	4014.916142569	1.5	0.1
0.01	1	0.00198562300010963	1	54	NA	246.672298705	0	0.29	3.97	1	239.314068521	239.316054144	"13"	4059.558532312	4014.916142569	1.5	0.1
0.01	1	0.00458877999972174	1	54	NA	246.672298705	0	0.29	3.97	1	239.547805245	239.552394025	"13"	4059.558532312	4014.916142569	1.5	0.1
0.01	1	0.00385815299978276	1	54	NA	246.672298705	0	0.29	3.97	1	239.78157063	239.785428783	"13"	4059.558532312	4014.916142569	1.5	0.1
0.01	1	0.118347057000392	1	54	NA	246.672298705	0	0.29	3.97	1	240.01524479	240.133591847	"13"	4059.558532312	4014.916142569	1.5	0.1
0.01	1	0.00417781700025444	1	54	NA	246.672298705	0	0.29	3.97	1	240.365755405	240.369933222	"13"	4059.558532312	4014.916142569	1.5	0.1
0.01	1	0.167111074999866	1	54	NA	246.672298705	0	0.29	3.97	1	240.599633225	240.7667443	"13"	4059.558532312	4014.916142569	1.5	0.1
0.01	1	0.00329722400010724	1	54	NA	246.672298705	0	0.29	3.97	1	241.000274893	241.003572117	"13"	4059.558532312	4014.916142569	1.5	0.1
0.01	1	0.00208210899972983	1	54	NA	246.672298705	0	0.29	3.97	1	241.234058272	241.236140381	"13"	4059.558532312	4014.916142569	1.5	0.1
0.01	1	0.00237317099981738	1	54	NA	246.672298705	0	0.29	3.97	1	241.467665805	241.470038976	"13"	4059.558532312	4014.916142569	1.5	0.1
0.01	1	0.128582403000109	1	54	NA	246.672298705	0	0.29	3.97	1	241.701294377	241.82987678	"13"	4059.558532312	4014.916142569	1.5	0.1
0.01	1	0.0040504849998797	1	54	NA	246.672298705	0	0.29	3.97	1	242.052039112	242.056089597	"13"	4059.558532312	4014.916142569	1.5	0.1
0.01	1	0.0575995640001565	1	54	NA	246.672298705	0	0.29	3.97	1	242.28576129	242.343360854	"13"	4059.558532312	4014.916142569	1.5	0.1
0.01	1	0.333146096999826	1	54	NA	246.672298705	0	0.29	3.97	1	242.569545742	242.902691839	"13"	4059.558532312	4014.916142569	1.5	0.1
0.01	1	0.0371752070000184	1	54	NA	246.672298705	0	0.29	3.97	1	243.13723564	243.174410847	"13"	4059.558532312	4014.916142569	1.5	0.1
0.01	1	0.00323745800005781	1	54	NA	246.672298705	0	0.29	3.97	1	243.404217049	243.407454507	"13"	4059.558532312	4014.916142569	1.5	0.1
0.01	1	0.0398341979998804	1	54	NA	246.672298705	0	0.29	3.97	1	243.637966599	243.677800797	"13"	4059.558532312	4014.916142569	1.5	0.1
0.01	1	0.0132606170000145	1	54	NA	246.672298705	0	0.29	3.97	1	243.905037457	243.918298074	"13"	4059.558532312	4014.916142569	1.5	0.1
0.01	1	0.0036417349997464	1	54	NA	246.672298705	0	0.29	3.97	1	244.15558243	244.159224165	"13"	4059.558532312	4014.916142569	1.5	0.1
0.01	1	0.00999064899997393	1	54	NA	246.672298705	0	0.29	3.97	1	244.389334661	244.39932531	"13"	4059.558532312	4014.916142569	1.5	0.1
0.01	1	0.0147514939999382	1	54	NA	246.672298705	0	0.29	3.97	1	244.623022419	244.637773913	"13"	4059.558532312	4014.916142569	1.5	0.1
0.01	1	0.00328542399984144	1	54	NA	246.672298705	0	0.29	3.97	1	244.873403783	244.876689207	"13"	4059.558532312	4014.916142569	1.5	0.1
0.01	1	0.00326964599980784	1	54	NA	246.672298705	0	0.29	3.97	1	245.107160843	245.110430489	"13"	4059.558532312	4014.916142569	1.5	0.1
0.01	1	0.00262806999990062	1	54	NA	246.672298705	0	0.29	3.97	1	245.340776653	245.343404723	"13"	4059.558532312	4014.916142569	1.5	0.1
0.01	1	0.160067984000307	1	54	NA	246.672298705	0	0.29	3.97	1	245.57461211	245.734680094	"13"	4059.558532312	4014.916142569	1.5	0.1
0.01	1	0.712215598000057	2	54	NA	246.672298705	0	0.29	3.97	1	245.958555874	246.670771472	"13"	4059.558532312	4014.916142569	1.5	0.1
0.01	1	0.413793921999968	1	103	NA	264.66478724	0	0.48	4.45	1	248.713172432	249.126966354	"14"	4059.558532312	4014.916142569	1.5	0.1
0.01	1	0.00379885699976512	1	103	NA	264.66478724	0	0.48	4.45	1	249.364322352	249.368121209	"14"	4059.558532312	4014.916142569	1.5	0.1
0.01	1	0.0892007020001984	1	103	NA	264.66478724	0	0.48	4.45	1	249.598020837	249.687221539	"14"	4059.558532312	4014.916142569	1.5	0.1
0.01	1	0.00337156000023242	1	103	NA	264.66478724	0	0.48	4.45	1	249.915272785	249.918644345	"14"	4059.558532312	4014.916142569	1.5	0.1
0.01	1	0.00398921900023197	1	103	NA	264.66478724	0	0.48	4.45	1	250.1489612	250.152950419	"14"	4059.558532312	4014.916142569	1.5	0.1
0.01	1	0.103336302000116	1	103	NA	264.66478724	0	0.48	4.45	1	250.382694392	250.486030694	"14"	4059.558532312	4014.916142569	1.5	0.1
0.01	1	0.0020565700001498	1	103	NA	264.66478724	0	0.48	4.45	1	250.716604361	250.718660931	"14"	4059.558532312	4014.916142569	1.5	0.1
0.01	1	0.232597317	1	103	NA	264.66478724	0	0.48	4.45	1	250.950354642	251.182951959	"14"	4059.558532312	4014.916142569	1.5	0.1
0.01	1	0.0133190669998839	1	103	NA	264.66478724	0	0.48	4.45	1	251.417772392	251.431091459	"14"	4059.558532312	4014.916142569	1.5	0.1
0.01	1	0.00273273000038898	1	103	NA	264.66478724	0	0.48	4.45	1	251.668132753	251.670865483	"14"	4059.558532312	4014.916142569	1.5	0.1
0.01	1	0.00328186200022174	1	103	NA	264.66478724	0	0.48	4.45	1	251.901964733	251.905246595	"14"	4059.558532312	4014.916142569	1.5	0.1
0.01	1	0.00218619099996431	1	103	NA	264.66478724	0	0.48	4.45	1	252.135784023	252.137970214	"14"	4059.558532312	4014.916142569	1.5	0.1
0.01	1	0.00694419699993887	1	103	NA	264.66478724	0	0.48	4.45	1	252.369282752	252.376226949	"14"	4059.558532312	4014.916142569	1.5	0.1
0.01	1	0.0120541450000928	1	103	NA	264.66478724	0	0.48	4.45	1	252.603085435	252.61513958	"14"	4059.558532312	4014.916142569	1.5	0.1
0.01	1	0.0254347359996245	1	103	NA	264.66478724	0	0.48	4.45	1	252.836762337	252.862197073	"14"	4059.558532312	4014.916142569	1.5	0.1
0.01	1	0.022758690000046	1	103	NA	264.66478724	0	0.48	4.45	1	253.087222362	253.109981052	"14"	4059.558532312	4014.916142569	1.5	0.1
0.01	1	0.0373944799998753	1	103	NA	264.66478724	0	0.48	4.45	1	253.33772406	253.37511854	"14"	4059.558532312	4014.916142569	1.5	0.1
0.01	1	0.0486889779999728	1	103	NA	264.66478724	0	0.48	4.45	1	253.60480408	253.653493058	"14"	4059.558532312	4014.916142569	1.5	0.1
0.01	1	0.0295718289999058	1	103	NA	264.66478724	0	0.48	4.45	1	253.88864218	253.918214009	"14"	4059.558532312	4014.916142569	1.5	0.1
0.01	1	0.0507376000000477	1	103	NA	264.66478724	0	0.48	4.45	1	254.155789122	254.206526722	"14"	4059.558532312	4014.916142569	1.5	0.1
0.01	1	0.0463488480004344	1	103	NA	264.66478724	0	0.48	4.45	1	254.439519347	254.485868195	"14"	4059.558532312	4014.916142569	1.5	0.1
0.01	1	0.0510083900003337	1	103	NA	264.66478724	0	0.48	4.45	1	254.723410432	254.774418822	"14"	4059.558532312	4014.916142569	1.5	0.1
0.01	1	0.0318261369998254	1	103	NA	264.66478724	0	0.48	4.45	1	255.007209725	255.039035862	"14"	4059.558532312	4014.916142569	1.5	0.1
0.01	1	0.0612316489996374	1	103	NA	264.66478724	0	0.48	4.45	1	255.27418911	255.335420759	"14"	4059.558532312	4014.916142569	1.5	0.1
0.01	1	0.0653661299998021	1	103	NA	264.66478724	0	0.48	4.45	1	255.558003025	255.623369155	"14"	4059.558532312	4014.916142569	1.5	0.1
0.01	1	0.0117221900000004	1	103	NA	264.66478724	0	0.48	4.45	1	255.858560505	255.870282695	"14"	4059.558532312	4014.916142569	1.5	0.1
0.01	1	0.0175923180004247	1	103	NA	264.66478724	0	0.48	4.45	1	256.092339542	256.10993186	"14"	4059.558532312	4014.916142569	1.5	0.1
0.01	1	0.00324507999994239	1	103	NA	264.66478724	0	0.48	4.45	1	256.342693915	256.345938995	"14"	4059.558532312	4014.916142569	1.5	0.1
0.01	1	0.00246221199995489	1	103	NA	264.66478724	0	0.48	4.45	1	256.576446201	256.578908413	"14"	4059.558532312	4014.916142569	1.5	0.1
0.01	1	0.00309444599997732	1	103	NA	264.66478724	0	0.48	4.45	1	256.810128813	256.813223259	"14"	4059.558532312	4014.916142569	1.5	0.1
0.01	1	0.00330417799978022	1	103	NA	264.66478724	0	0.48	4.45	1	257.043907597	257.047211775	"14"	4059.558532312	4014.916142569	1.5	0.1
0.01	1	0.0725920089998908	1	103	NA	264.66478724	0	0.48	4.45	1	257.27767658	257.350268589	"14"	4059.558532312	4014.916142569	1.5	0.1
0.01	1	0.0112787529997149	1	103	NA	264.66478724	0	0.48	4.45	1	257.57817618	257.589454933	"14"	4059.558532312	4014.916142569	1.5	0.1
0.01	1	0.0338118780000514	1	103	NA	264.66478724	0	0.48	4.45	1	257.811849002	257.84566088	"14"	4059.558532312	4014.916142569	1.5	0.1
0.01	1	0.0402581120001742	1	103	NA	264.66478724	0	0.48	4.45	1	258.078923282	258.119181394	"14"	4059.558532312	4014.916142569	1.5	0.1
0.01	1	0.0353732160001528	1	103	NA	264.66478724	0	0.48	4.45	1	258.346078497	258.381451713	"14"	4059.558532312	4014.916142569	1.5	0.1
0.01	1	0.0810218860001441	1	103	NA	264.66478724	0	0.48	4.45	1	258.613255432	258.694277318	"14"	4059.558532312	4014.916142569	1.5	0.1
0.01	1	0.0529062030000205	1	103	NA	264.66478724	0	0.48	4.45	1	258.93036778	258.983273983	"14"	4059.558532312	4014.916142569	1.5	0.1
0.01	1	0.00442969699997775	1	103	NA	264.66478724	0	0.48	4.45	1	259.21420641	259.218636107	"14"	4059.558532312	4014.916142569	1.5	0.1
0.01	1	0.278661605999787	1	103	NA	264.66478724	0	0.48	4.45	1	259.44799583	259.726657436	"14"	4059.558532312	4014.916142569	1.5	0.1
0.01	1	0.298145193999972	1	103	NA	264.66478724	0	0.48	4.45	1	259.948820724	260.246965918	"14"	4059.558532312	4014.916142569	1.5	0.1
0.01	1	0.298586180000257	1	103	NA	264.66478724	0	0.48	4.45	1	260.48301704	260.78160322	"14"	4059.558532312	4014.916142569	1.5	0.1
0.01	1	0.300259756000287	1	103	NA	264.66478724	0	0.48	4.45	1	261.017250842	261.317510598	"14"	4059.558532312	4014.916142569	1.5	0.1
0.01	1	0.295402184999602	1	103	NA	264.66478724	0	0.48	4.45	1	261.551395815	261.846798	"14"	4059.558532312	4014.916142569	1.5	0.1
0.01	1	0.273150990999966	1	103	NA	264.66478724	0	0.48	4.45	1	262.06892334	262.342074331	"14"	4059.558532312	4014.916142569	1.5	0.1
0.01	1	0.388282457000059	1	103	NA	264.66478724	0	0.48	4.45	1	262.569913155	262.958195612	"14"	4059.558532312	4014.916142569	1.5	0.1
0.01	1	0.274774001999958	1	103	NA	264.66478724	0	0.48	4.45	1	263.187783855	263.462557857	"14"	4059.558532312	4014.916142569	1.5	0.1
0.01	1	0.310320239999783	1	103	NA	264.66478724	0	0.48	4.45	1	263.6884403	263.99876054	"14"	4059.558532312	4014.916142569	1.5	0.1
0.01	1	0.440664893999838	2	103	NA	264.66478724	0	0.48	4.45	1	264.222618677	264.663283571	"14"	4059.558532312	4014.916142569	1.5	0.1
0.01	1	0.335200739000356	1	120	NA	284.696056988	0	0.57	5.02	1	266.710239342	267.045440081	"15"	4059.558532312	4014.916142569	1.5	0.1
0.01	1	0.00382446699995853	1	120	NA	284.696056988	0	0.57	5.02	1	267.27770895	267.281533417	"15"	4059.558532312	4014.916142569	1.5	0.1
0.01	1	0.00454220999972677	1	120	NA	284.696056988	0	0.57	5.02	1	267.511504955	267.516047165	"15"	4059.558532312	4014.916142569	1.5	0.1
0.01	1	0.00300535799988211	1	120	NA	284.696056988	0	0.57	5.02	1	267.745218979	267.748224337	"15"	4059.558532312	4014.916142569	1.5	0.1
0.01	1	0.0278625690002627	1	120	NA	284.696056988	0	0.57	5.02	1	267.978930277	268.006792846	"15"	4059.558532312	4014.916142569	1.5	0.1
0.01	1	0.00419253800009756	1	120	NA	284.696056988	0	0.57	5.02	1	268.229357294	268.233549832	"15"	4059.558532312	4014.916142569	1.5	0.1
0.01	1	0.00209203499980504	1	120	NA	284.696056988	0	0.57	5.02	1	268.463062938	268.465154973	"15"	4059.558532312	4014.916142569	1.5	0.1
0.01	1	0.00463557000011861	1	120	NA	284.696056988	0	0.57	5.02	1	268.69685419	268.70148976	"15"	4059.558532312	4014.916142569	1.5	0.1
0.01	1	0.00198887699980332	1	120	NA	284.696056988	0	0.57	5.02	1	268.930566435	268.932555312	"15"	4059.558532312	4014.916142569	1.5	0.1
0.01	1	0.00383104000002277	1	120	NA	284.696056988	0	0.57	5.02	1	269.164259325	269.168090365	"15"	4059.558532312	4014.916142569	1.5	0.1
0.01	1	0.00457978700023887	1	120	NA	284.696056988	0	0.57	5.02	1	269.398027565	269.402607352	"15"	4059.558532312	4014.916142569	1.5	0.1
0.01	1	0.00460460000022067	1	120	NA	284.696056988	0	0.57	5.02	1	269.63178808	269.63639268	"15"	4059.558532312	4014.916142569	1.5	0.1
0.01	1	0.117698571999881	1	120	NA	284.696056988	0	0.57	5.02	1	269.865389417	269.983087989	"15"	4059.558532312	4014.916142569	1.5	0.1
0.01	1	0.00270621599975129	1	120	NA	284.696056988	0	0.57	5.02	1	270.216087157	270.218793373	"15"	4059.558532312	4014.916142569	1.5	0.1
0.01	1	0.0033229439995921	1	120	NA	284.696056988	0	0.57	5.02	1	270.449778663	270.453101607	"15"	4059.558532312	4014.916142569	1.5	0.1
0.01	1	0.00325889800024015	1	120	NA	284.696056988	0	0.57	5.02	1	270.683481381	270.686740279	"15"	4059.558532312	4014.916142569	1.5	0.1
0.01	1	0.00252384200030065	1	120	NA	284.696056988	0	0.57	5.02	1	270.917174011	270.919697853	"15"	4059.558532312	4014.916142569	1.5	0.1
0.01	1	0.00202155299984952	1	120	NA	284.696056988	0	0.57	5.02	1	271.15097752	271.152999073	"15"	4059.558532312	4014.916142569	1.5	0.1
0.01	1	0.00397816199983936	1	120	NA	284.696056988	0	0.57	5.02	1	271.384648855	271.388627017	"15"	4059.558532312	4014.916142569	1.5	0.1
0.01	1	0.0032154319997062	1	120	NA	284.696056988	0	0.57	5.02	1	271.618366715	271.621582147	"15"	4059.558532312	4014.916142569	1.5	0.1
0.01	1	0.0119518020001124	1	120	NA	284.696056988	0	0.57	5.02	1	271.852116042	271.864067844	"15"	4059.558532312	4014.916142569	1.5	0.1
0.01	1	0.0568692209999426	1	120	NA	284.696056988	0	0.57	5.02	1	272.085880974	272.142750195	"15"	4059.558532312	4014.916142569	1.5	0.1
0.01	1	0.0287672740000744	1	120	NA	284.696056988	0	0.57	5.02	1	272.369644735	272.398412009	"15"	4059.558532312	4014.916142569	1.5	0.1
0.01	1	0.122045942000113	1	120	NA	284.696056988	0	0.57	5.02	1	272.636779932	272.758825874	"15"	4059.558532312	4014.916142569	1.5	0.1
0.01	1	0.652068268999756	1	120	NA	284.696056988	0	0.57	5.02	1	272.98738147	273.639449739	"15"	4059.558532312	4014.916142569	1.5	0.1
0.01	1	0.0538264019996859	1	120	NA	284.696056988	0	0.57	5.02	1	273.87228122	273.926107622	"15"	4059.558532312	4014.916142569	1.5	0.1
0.01	1	0.0117765980003242	1	120	NA	284.696056988	0	0.57	5.02	1	274.156077775	274.167854373	"15"	4059.558532312	4014.916142569	1.5	0.1
0.01	1	0.0337268309999672	1	120	NA	284.696056988	0	0.57	5.02	1	274.389745304	274.423472135	"15"	4059.558532312	4014.916142569	1.5	0.1
0.01	1	0.0209948729998359	1	120	NA	284.696056988	0	0.57	5.02	1	274.656775017	274.67776989	"15"	4059.558532312	4014.916142569	1.5	0.1
0.01	1	0.0115607329998966	1	120	NA	284.696056988	0	0.57	5.02	1	274.907249055	274.918809788	"15"	4059.558532312	4014.916142569	1.5	0.1
0.01	1	0.00961262099963278	1	120	NA	284.696056988	0	0.57	5.02	1	275.14092588	275.150538501	"15"	4059.558532312	4014.916142569	1.5	0.1
0.01	1	0.0247963329998129	1	120	NA	284.696056988	0	0.57	5.02	1	275.374747002	275.399543335	"15"	4059.558532312	4014.916142569	1.5	0.1
0.01	1	0.0607721520000268	1	120	NA	284.696056988	0	0.57	5.02	1	275.625187105	275.685959257	"15"	4059.558532312	4014.916142569	1.5	0.1
0.01	1	0.0567292699997779	1	120	NA	284.696056988	0	0.57	5.02	1	275.90899095	275.96572022	"15"	4059.558532312	4014.916142569	1.5	0.1
0.01	1	0.0374523089999457	1	120	NA	284.696056988	0	0.57	5.02	1	276.19279692	276.230249229	"15"	4059.558532312	4014.916142569	1.5	0.1
0.01	1	0.0195495919997484	1	120	NA	284.696056988	0	0.57	5.02	1	276.4598984	276.479447992	"15"	4059.558532312	4014.916142569	1.5	0.1
0.01	1	0.00248345399995742	1	120	NA	284.696056988	0	0.57	5.02	1	276.710347635	276.712831089	"15"	4059.558532312	4014.916142569	1.5	0.1
0.01	1	0.0299630610002168	1	120	NA	284.696056988	0	0.57	5.02	1	276.94399469	276.973957751	"15"	4059.558532312	4014.916142569	1.5	0.1
0.01	1	0.0506544539998686	1	120	NA	284.696056988	0	0.57	5.02	1	277.21118129	277.261835744	"15"	4059.558532312	4014.916142569	1.5	0.1
0.01	1	0.00263415299968983	1	120	NA	284.696056988	0	0.57	5.02	1	277.494990027	277.49762418	"15"	4059.558532312	4014.916142569	1.5	0.1
0.01	1	0.0131455710002228	1	120	NA	284.696056988	0	0.57	5.02	1	277.728733115	277.741878686	"15"	4059.558532312	4014.916142569	1.5	0.1
0.01	1	0.00327301600009378	1	120	NA	284.696056988	0	0.57	5.02	1	277.979079345	277.982352361	"15"	4059.558532312	4014.916142569	1.5	0.1
0.01	1	0.017422274999717	1	120	NA	284.696056988	0	0.57	5.02	1	278.21292744	278.230349715	"15"	4059.558532312	4014.916142569	1.5	0.1
0.01	1	0.303464592999717	1	120	NA	284.696056988	0	0.57	5.02	1	278.46321064	278.766675233	"15"	4059.558532312	4014.916142569	1.5	0.1
0.01	1	0.207964542999889	1	120	NA	284.696056988	0	0.57	5.02	1	278.99760985	279.205574393	"15"	4059.558532312	4014.916142569	1.5	0.1
0.01	1	0.0711780560000079	1	120	NA	284.696056988	0	0.57	5.02	1	279.431483057	279.502661113	"15"	4059.558532312	4014.916142569	1.5	0.1
0.01	1	0.00449359699996421	1	120	NA	284.696056988	0	0.57	5.02	1	279.732218465	279.736712062	"15"	4059.558532312	4014.916142569	1.5	0.1
0.01	1	0.00380994799979817	1	120	NA	284.696056988	0	0.57	5.02	1	279.965713095	279.969523043	"15"	4059.558532312	4014.916142569	1.5	0.1
0.01	1	0.0027075469997726	1	120	NA	284.696056988	0	0.57	5.02	1	280.199584127	280.202291674	"15"	4059.558532312	4014.916142569	1.5	0.1
0.01	1	0.0370029979999345	1	120	NA	284.696056988	0	0.57	5.02	1	280.433195015	280.470198013	"15"	4059.558532312	4014.916142569	1.5	0.1
0.01	1	0.0174804099997345	1	120	NA	284.696056988	0	0.57	5.02	1	280.70037078	280.71785119	"15"	4059.558532312	4014.916142569	1.5	0.1
0.01	1	0.166952802999731	1	120	NA	284.696056988	0	0.57	5.02	1	280.9507497	281.117702503	"15"	4059.558532312	4014.916142569	1.5	0.1
0.01	1	0.447907597000267	1	120	NA	284.696056988	0	0.57	5.02	1	281.351491577	281.799399174	"15"	4059.558532312	4014.916142569	1.5	0.1
0.01	1	0.290885801000059	1	120	NA	284.696056988	0	0.57	5.02	1	282.035910515	282.326796316	"15"	4059.558532312	4014.916142569	1.5	0.1
0.01	1	0.301819638000325	1	120	NA	284.696056988	0	0.57	5.02	1	282.55351689	282.855336528	"15"	4059.558532312	4014.916142569	1.5	0.1
0.01	1	0.303465941000013	1	120	NA	284.696056988	0	0.57	5.02	1	283.087658112	283.391124053	"15"	4059.558532312	4014.916142569	1.5	0.1
0.01	1	0.344563785999981	1	120	NA	284.696056988	0	0.57	5.02	1	283.621979545	283.966543331	"15"	4059.558532312	4014.916142569	1.5	0.1
0.01	1	0.504977052999948	2	120	NA	284.696056988	0	0.57	5.02	1	284.189524125	284.694501178	"15"	4059.558532312	4014.916142569	1.5	0.1
0.01	1	0.343153120000352	1	109	NA	306.168486734	0	0.74	5.76	1	286.743808532	287.086961652	"16"	4059.558532312	4014.916142569	1.5	0.1
0.01	1	0.00453308199985258	1	109	NA	306.168486734	0	0.74	5.76	1	287.31143098	287.315964062	"16"	4059.558532312	4014.916142569	1.5	0.1
0.01	1	0.00403324299986707	1	109	NA	306.168486734	0	0.74	5.76	1	287.54515834	287.549191583	"16"	4059.558532312	4014.916142569	1.5	0.1
0.01	1	0.00376583900015248	1	109	NA	306.168486734	0	0.74	5.76	1	287.778983872	287.782749711	"16"	4059.558532312	4014.916142569	1.5	0.1
0.01	1	0.0029898999996476	1	109	NA	306.168486734	0	0.74	5.76	1	288.012665713	288.015655613	"16"	4059.558532312	4014.916142569	1.5	0.1
0.01	1	0.00393255400013004	1	109	NA	306.168486734	0	0.74	5.76	1	288.246421695	288.250354249	"16"	4059.558532312	4014.916142569	1.5	0.1
0.01	1	0.00208340100016358	1	109	NA	306.168486734	0	0.74	5.76	1	288.480085862	288.482169263	"16"	4059.558532312	4014.916142569	1.5	0.1
0.01	1	0.00420059199996103	1	109	NA	306.168486734	0	0.74	5.76	1	288.713794	288.717994592	"16"	4059.558532312	4014.916142569	1.5	0.1
0.01	1	0.00374565700030871	1	109	NA	306.168486734	0	0.74	5.76	1	288.947571522	288.951317179	"16"	4059.558532312	4014.916142569	1.5	0.1
0.01	1	0.00348525100025654	1	109	NA	306.168486734	0	0.74	5.76	1	289.181225912	289.184711163	"16"	4059.558532312	4014.916142569	1.5	0.1
0.01	1	0.00426472700019076	1	109	NA	306.168486734	0	0.74	5.76	1	289.414958758	289.419223485	"16"	4059.558532312	4014.916142569	1.5	0.1
0.01	1	0.00383779799994954	1	109	NA	306.168486734	0	0.74	5.76	1	289.648809615	289.652647413	"16"	4059.558532312	4014.916142569	1.5	0.1
0.01	1	0.00434110700007295	1	109	NA	306.168486734	0	0.74	5.76	1	289.882380098	289.886721205	"16"	4059.558532312	4014.916142569	1.5	0.1
0.01	1	0.00389618999997765	1	109	NA	306.168486734	0	0.74	5.76	1	290.116171345	290.120067535	"16"	4059.558532312	4014.916142569	1.5	0.1
0.01	1	0.00359446400034358	1	109	NA	306.168486734	0	0.74	5.76	1	290.349914247	290.353508711	"16"	4059.558532312	4014.916142569	1.5	0.1
0.01	1	0.00352721100034614	1	109	NA	306.168486734	0	0.74	5.76	1	290.583741502	290.587268713	"16"	4059.558532312	4014.916142569	1.5	0.1
0.01	1	0.00288828000020658	1	109	NA	306.168486734	0	0.74	5.76	1	290.817349793	290.820238073	"16"	4059.558532312	4014.916142569	1.5	0.1
0.01	1	0.266996415999984	1	109	NA	306.168486734	0	0.74	5.76	1	291.051141927	291.318138343	"16"	4059.558532312	4014.916142569	1.5	0.1
0.01	1	0.0036807259998568	1	109	NA	306.168486734	0	0.74	5.76	1	291.551850427	291.555531153	"16"	4059.558532312	4014.916142569	1.5	0.1
0.01	1	0.00448367200033317	1	109	NA	306.168486734	0	0.74	5.76	1	291.78567359	291.790157262	"16"	4059.558532312	4014.916142569	1.5	0.1
0.01	1	0.00389312599963887	1	109	NA	306.168486734	0	0.74	5.76	1	292.019452045	292.023345171	"16"	4059.558532312	4014.916142569	1.5	0.1
0.01	1	0.00385402199981399	1	109	NA	306.168486734	0	0.74	5.76	1	292.253147645	292.257001667	"16"	4059.558532312	4014.916142569	1.5	0.1
0.01	1	0.00388317599981747	1	109	NA	306.168486734	0	0.74	5.76	1	292.486860437	292.490743613	"16"	4059.558532312	4014.916142569	1.5	0.1
0.01	1	0.00375819300006697	1	109	NA	306.168486734	0	0.74	5.76	1	292.720519952	292.724278145	"16"	4059.558532312	4014.916142569	1.5	0.1
0.01	1	0.00391155099987373	1	109	NA	306.168486734	0	0.74	5.76	1	292.954297472	292.958209023	"16"	4059.558532312	4014.916142569	1.5	0.1
0.01	1	0.113589456000227	1	109	NA	306.168486734	0	0.74	5.76	1	293.187918725	293.301508181	"16"	4059.558532312	4014.916142569	1.5	0.1
0.01	1	0.00458634000005986	1	109	NA	306.168486734	0	0.74	5.76	1	293.538587555	293.543173895	"16"	4059.558532312	4014.916142569	1.5	0.1
0.01	1	0.00255381399983889	1	109	NA	306.168486734	0	0.74	5.76	1	293.772413807	293.774967621	"16"	4059.558532312	4014.916142569	1.5	0.1
0.01	1	0.00388715100007175	1	109	NA	306.168486734	0	0.74	5.76	1	294.006003792	294.009890943	"16"	4059.558532312	4014.916142569	1.5	0.1
0.01	1	0.00458221200005937	1	109	NA	306.168486734	0	0.74	5.76	1	294.23977835	294.244360562	"16"	4059.558532312	4014.916142569	1.5	0.1
0.01	1	0.00392462799982241	1	109	NA	306.168486734	0	0.74	5.76	1	294.473472065	294.477396693	"16"	4059.558532312	4014.916142569	1.5	0.1
0.01	1	0.122741645000133	1	109	NA	306.168486734	0	0.74	5.76	1	294.70718555	294.829927195	"16"	4059.558532312	4014.916142569	1.5	0.1
0.01	1	0.00327563400014697	1	109	NA	306.168486734	0	0.74	5.76	1	295.057781791	295.061057425	"16"	4059.558532312	4014.916142569	1.5	0.1
0.01	1	0.00424453699997684	1	109	NA	306.168486734	0	0.74	5.76	1	295.291532928	295.295777465	"16"	4059.558532312	4014.916142569	1.5	0.1
0.01	1	0.0023803159997442	1	109	NA	306.168486734	0	0.74	5.76	1	295.525252817	295.527633133	"16"	4059.558532312	4014.916142569	1.5	0.1
0.01	1	0.00371702799975537	1	109	NA	306.168486734	0	0.74	5.76	1	295.758999275	295.762716303	"16"	4059.558532312	4014.916142569	1.5	0.1
0.01	1	0.0038663909999741	1	109	NA	306.168486734	0	0.74	5.76	1	295.992719852	295.996586243	"16"	4059.558532312	4014.916142569	1.5	0.1
0.01	1	0.00386527099999512	1	109	NA	306.168486734	0	0.74	5.76	1	296.22651134	296.230376611	"16"	4059.558532312	4014.916142569	1.5	0.1
0.01	1	0.00366102099997079	1	109	NA	306.168486734	0	0.74	5.76	1	296.46013392	296.463794941	"16"	4059.558532312	4014.916142569	1.5	0.1
0.01	1	0.00457253199965635	1	109	NA	306.168486734	0	0.74	5.76	1	296.69390136	296.698473892	"16"	4059.558532312	4014.916142569	1.5	0.1
0.01	1	0.00398076300007233	1	109	NA	306.168486734	0	0.74	5.76	1	296.927585992	296.931566755	"16"	4059.558532312	4014.916142569	1.5	0.1
0.01	1	0.00426186000004236	1	109	NA	306.168486734	0	0.74	5.76	1	297.16137839	297.16564025	"16"	4059.558532312	4014.916142569	1.5	0.1
0.01	1	0.00236092100021779	1	109	NA	306.168486734	0	0.74	5.76	1	297.395059107	297.397420028	"16"	4059.558532312	4014.916142569	1.5	0.1
0.01	1	0.00342326600002707	1	109	NA	306.168486734	0	0.74	5.76	1	297.628880615	297.632303881	"16"	4059.558532312	4014.916142569	1.5	0.1
0.01	1	0.0038170729999365	1	109	NA	306.168486734	0	0.74	5.76	1	297.86256048	297.866377553	"16"	4059.558532312	4014.916142569	1.5	0.1
0.01	1	0.00253617499993197	1	109	NA	306.168486734	0	0.74	5.76	1	298.096196775	298.09873295	"16"	4059.558532312	4014.916142569	1.5	0.1
0.01	1	0.00207918799969775	1	109	NA	306.168486734	0	0.74	5.76	1	298.330069149	298.332148337	"16"	4059.558532312	4014.916142569	1.5	0.1
0.01	1	0.00245602799986955	1	109	NA	306.168486734	0	0.74	5.76	1	298.563744935	298.566200963	"16"	4059.558532312	4014.916142569	1.5	0.1
0.01	1	0.00259611000001314	1	109	NA	306.168486734	0	0.74	5.76	1	298.797419543	298.800015653	"16"	4059.558532312	4014.916142569	1.5	0.1
0.01	1	0.0035772219998762	1	109	NA	306.168486734	0	0.74	5.76	1	299.031139665	299.034716887	"16"	4059.558532312	4014.916142569	1.5	0.1
0.01	1	0.00365605800016056	1	109	NA	306.168486734	0	0.74	5.76	1	299.264883585	299.268539643	"16"	4059.558532312	4014.916142569	1.5	0.1
0.01	1	0.00703198100018199	1	109	NA	306.168486734	0	0.74	5.76	1	299.498599372	299.505631353	"16"	4059.558532312	4014.916142569	1.5	0.1
0.01	1	0.0421599979999883	1	109	NA	306.168486734	0	0.74	5.76	1	299.732369205	299.774529203	"16"	4059.558532312	4014.916142569	1.5	0.1
0.01	1	0.00377780400003758	1	109	NA	306.168486734	0	0.74	5.76	1	299.999368677	300.003146481	"16"	4059.558532312	4014.916142569	1.5	0.1
0.01	1	0.0286272620001	1	109	NA	306.168486734	0	0.74	5.76	1	300.233240195	300.261867457	"16"	4059.558532312	4014.916142569	1.5	0.1
0.01	1	0.00411564800015185	1	109	NA	306.168486734	0	0.74	5.76	1	300.483616685	300.487732333	"16"	4059.558532312	4014.916142569	1.5	0.1
0.01	1	0.00391501900003277	1	109	NA	306.168486734	0	0.74	5.76	1	300.71743	300.721345019	"16"	4059.558532312	4014.916142569	1.5	0.1
0.01	1	0.00330120199987505	1	109	NA	306.168486734	0	0.74	5.76	1	300.951089549	300.954390751	"16"	4059.558532312	4014.916142569	1.5	0.1
0.01	1	0.00390157299989369	1	109	NA	306.168486734	0	0.74	5.76	1	301.184805122	301.188706695	"16"	4059.558532312	4014.916142569	1.5	0.1
0.01	1	0.00405062699974224	1	109	NA	306.168486734	0	0.74	5.76	1	301.4184324	301.422483027	"16"	4059.558532312	4014.916142569	1.5	0.1
0.01	1	0.00394229299990911	1	109	NA	306.168486734	0	0.74	5.76	1	301.652286012	301.656228305	"16"	4059.558532312	4014.916142569	1.5	0.1
0.01	1	0.0034380140000394	1	109	NA	306.168486734	0	0.74	5.76	1	301.885892907	301.889330921	"16"	4059.558532312	4014.916142569	1.5	0.1
0.01	1	0.00404125300019587	1	109	NA	306.168486734	0	0.74	5.76	1	302.11975109	302.123792343	"16"	4059.558532312	4014.916142569	1.5	0.1
0.01	1	0.00397390200032532	1	109	NA	306.168486734	0	0.74	5.76	1	302.353479415	302.357453317	"16"	4059.558532312	4014.916142569	1.5	0.1
0.01	1	0.00389547399981893	1	109	NA	306.168486734	0	0.74	5.76	1	302.587197785	302.591093259	"16"	4059.558532312	4014.916142569	1.5	0.1
0.01	1	0.00375955699973929	1	109	NA	306.168486734	0	0.74	5.76	1	302.82095141	302.824710967	"16"	4059.558532312	4014.916142569	1.5	0.1
0.01	1	0.120643790000031	1	109	NA	306.168486734	0	0.74	5.76	1	303.05467237	303.17531616	"16"	4059.558532312	4014.916142569	1.5	0.1
0.01	1	0.0176517580002837	1	109	NA	306.168486734	0	0.74	5.76	1	303.405259265	303.422911023	"16"	4059.558532312	4014.916142569	1.5	0.1
0.01	1	0.00712907000024643	1	109	NA	306.168486734	0	0.74	5.76	1	303.655595515	303.662724585	"16"	4059.558532312	4014.916142569	1.5	0.1
0.01	1	0.00462904999994862	1	109	NA	306.168486734	0	0.74	5.76	1	303.88937465	303.8940037	"16"	4059.558532312	4014.916142569	1.5	0.1
0.01	1	0.0117290680000224	1	109	NA	306.168486734	0	0.74	5.76	1	304.12305376	304.134782828	"16"	4059.558532312	4014.916142569	1.5	0.1
0.01	1	0.0267578439998033	1	109	NA	306.168486734	0	0.74	5.76	1	304.356757445	304.383515289	"16"	4059.558532312	4014.916142569	1.5	0.1
0.01	1	0.464286081999944	1	109	NA	306.168486734	0	0.74	5.76	1	304.607180535	305.071466617	"16"	4059.558532312	4014.916142569	1.5	0.1
0.01	1	0.299050492999868	1	109	NA	306.168486734	0	0.74	5.76	1	305.30835082	305.607401313	"16"	4059.558532312	4014.916142569	1.5	0.1
0.01	1	0.324246887999834	2	109	NA	306.168486734	0	0.74	5.76	1	305.842673162	306.16692005	"16"	4059.558532312	4014.916142569	1.5	0.1
0.01	1	0.440658045000418	1	71	325.61206725	NA	1	0	5.76	1	308.21324069	308.653898735	"17"	4059.558532312	4014.916142569	1.5	0.1
0.01	1	0.00368263600012142	1	71	325.61206725	NA	1	0	5.76	1	308.880993895	308.884676531	"17"	4059.558532312	4014.916142569	1.5	0.1
0.01	1	0.00373721400001159	1	71	325.61206725	NA	1	0	5.76	1	309.114753797	309.118491011	"17"	4059.558532312	4014.916142569	1.5	0.1
0.01	1	0.00455187500028842	1	71	325.61206725	NA	1	0	5.76	1	309.34847532	309.353027195	"17"	4059.558532312	4014.916142569	1.5	0.1
0.01	1	0.00376257100015209	1	71	325.61206725	NA	1	0	5.76	1	309.58219579	309.585958361	"17"	4059.558532312	4014.916142569	1.5	0.1
0.01	1	0.00458676500011279	1	71	325.61206725	NA	1	0	5.76	1	309.81601579	309.820602555	"17"	4059.558532312	4014.916142569	1.5	0.1
0.01	1	0.00399473299967212	1	71	325.61206725	NA	1	0	5.76	1	310.049675282	310.053670015	"17"	4059.558532312	4014.916142569	1.5	0.1
0.01	1	0.00370852400010335	1	71	325.61206725	NA	1	0	5.76	1	310.283456435	310.287164959	"17"	4059.558532312	4014.916142569	1.5	0.1
0.01	1	0.00346318899983089	1	71	325.61206725	NA	1	0	5.76	1	310.517223872	310.520687061	"17"	4059.558532312	4014.916142569	1.5	0.1
0.01	1	0.00358979000020554	1	71	325.61206725	NA	1	0	5.76	1	310.750898185	310.754487975	"17"	4059.558532312	4014.916142569	1.5	0.1
0.01	1	0.00382264900008522	1	71	325.61206725	NA	1	0	5.76	1	310.98461897	310.988441619	"17"	4059.558532312	4014.916142569	1.5	0.1
0.01	1	0.00385838400006833	1	71	325.61206725	NA	1	0	5.76	1	311.218281237	311.222139621	"17"	4059.558532312	4014.916142569	1.5	0.1
0.01	1	0.003881148000346	1	71	325.61206725	NA	1	0	5.76	1	311.452036477	311.455917625	"17"	4059.558532312	4014.916142569	1.5	0.1
0.01	1	0.00386892000005901	1	71	325.61206725	NA	1	0	5.76	1	311.685773617	311.689642537	"17"	4059.558532312	4014.916142569	1.5	0.1
0.01	1	0.00402026299980207	1	71	325.61206725	NA	1	0	5.76	1	311.91944264	311.923462903	"17"	4059.558532312	4014.916142569	1.5	0.1
0.01	1	0.0038677499996993	1	71	325.61206725	NA	1	0	5.76	1	312.153244405	312.157112155	"17"	4059.558532312	4014.916142569	1.5	0.1
0.01	1	0.00454294200017102	1	71	325.61206725	NA	1	0	5.76	1	312.386996315	312.391539257	"17"	4059.558532312	4014.916142569	1.5	0.1
0.01	1	0.00345484499985105	1	71	325.61206725	NA	1	0	5.76	1	312.620745922	312.624200767	"17"	4059.558532312	4014.916142569	1.5	0.1
0.01	1	0.00378142499994283	1	71	325.61206725	NA	1	0	5.76	1	312.85438755	312.858168975	"17"	4059.558532312	4014.916142569	1.5	0.1
0.01	1	0.00403288999996221	1	71	325.61206725	NA	1	0	5.76	1	313.088163197	313.092196087	"17"	4059.558532312	4014.916142569	1.5	0.1
0.01	1	0.00403865499993117	1	71	325.61206725	NA	1	0	5.76	1	313.321878072	313.325916727	"17"	4059.558532312	4014.916142569	1.5	0.1
0.01	1	0.00398814500022127	1	71	325.61206725	NA	1	0	5.76	1	313.555674472	313.559662617	"17"	4059.558532312	4014.916142569	1.5	0.1
0.01	1	0.00326400199992349	1	71	325.61206725	NA	1	0	5.76	1	313.789220235	313.792484237	"17"	4059.558532312	4014.916142569	1.5	0.1
0.01	1	0.00388001299961616	1	71	325.61206725	NA	1	0	5.76	1	314.02304375	314.026923763	"17"	4059.558532312	4014.916142569	1.5	0.1
0.01	1	0.00397511900018799	1	71	325.61206725	NA	1	0	5.76	1	314.256753172	314.260728291	"17"	4059.558532312	4014.916142569	1.5	0.1
0.01	1	0.00455092200036233	1	71	325.61206725	NA	1	0	5.76	1	314.49051293	314.495063852	"17"	4059.558532312	4014.916142569	1.5	0.1
0.01	1	0.00487399200028449	1	71	325.61206725	NA	1	0	5.76	1	314.72433833	314.729212322	"17"	4059.558532312	4014.916142569	1.5	0.1
0.01	1	0.00360063199968863	1	71	325.61206725	NA	1	0	5.76	1	314.957881715	314.961482347	"17"	4059.558532312	4014.916142569	1.5	0.1
0.01	1	0.00371106900001905	1	71	325.61206725	NA	1	0	5.76	1	315.191591572	315.195302641	"17"	4059.558532312	4014.916142569	1.5	0.1
0.01	1	0.00382904100024462	1	71	325.61206725	NA	1	0	5.76	1	315.42546247	315.429291511	"17"	4059.558532312	4014.916142569	1.5	0.1
0.01	1	0.0046904670002732	1	71	325.61206725	NA	1	0	5.76	1	315.65924051	315.663930977	"17"	4059.558532312	4014.916142569	1.5	0.1
0.01	1	0.00351144700016448	1	71	325.61206725	NA	1	0	5.76	1	315.89292951	315.896440957	"17"	4059.558532312	4014.916142569	1.5	0.1
0.01	1	0.00367839099999401	1	71	325.61206725	NA	1	0	5.76	1	316.126576882	316.130255273	"17"	4059.558532312	4014.916142569	1.5	0.1
0.01	1	0.00463005500023428	1	71	325.61206725	NA	1	0	5.76	1	316.360232975	316.36486303	"17"	4059.558532312	4014.916142569	1.5	0.1
0.01	1	0.00374697899997045	1	71	325.61206725	NA	1	0	5.76	1	316.593976082	316.597723061	"17"	4059.558532312	4014.916142569	1.5	0.1
0.01	1	0.00386950799975239	1	71	325.61206725	NA	1	0	5.76	1	316.827738475	316.831607983	"17"	4059.558532312	4014.916142569	1.5	0.1
0.01	1	0.00352813600011359	1	71	325.61206725	NA	1	0	5.76	1	317.061573197	317.065101333	"17"	4059.558532312	4014.916142569	1.5	0.1
0.01	1	0.00351495999984763	1	71	325.61206725	NA	1	0	5.76	1	317.295290535	317.298805495	"17"	4059.558532312	4014.916142569	1.5	0.1
0.01	1	0.00465569600009985	1	71	325.61206725	NA	1	0	5.76	1	317.528961494	317.53361719	"17"	4059.558532312	4014.916142569	1.5	0.1
0.01	1	0.00369259100034469	1	71	325.61206725	NA	1	0	5.76	1	317.762716142	317.766408733	"17"	4059.558532312	4014.916142569	1.5	0.1
0.01	1	0.00395945900027073	1	71	325.61206725	NA	1	0	5.76	1	317.996390922	318.000350381	"17"	4059.558532312	4014.916142569	1.5	0.1
0.01	1	0.0045935000002828	1	71	325.61206725	NA	1	0	5.76	1	318.230298285	318.234891785	"17"	4059.558532312	4014.916142569	1.5	0.1
0.01	1	0.0037596859997393	1	71	325.61206725	NA	1	0	5.76	1	318.463897365	318.467657051	"17"	4059.558532312	4014.916142569	1.5	0.1
0.01	1	0.0037957629997436	1	71	325.61206725	NA	1	0	5.76	1	318.697583672	318.701379435	"17"	4059.558532312	4014.916142569	1.5	0.1
0.01	1	0.0021416039999167	1	71	325.61206725	NA	1	0	5.76	1	318.931257759	318.933399363	"17"	4059.558532312	4014.916142569	1.5	0.1
0.01	1	0.002099685000303	1	71	325.61206725	NA	1	0	5.76	1	319.165030949	319.167130634	"17"	4059.558532312	4014.916142569	1.5	0.1
0.01	1	0.00397216999999728	1	71	325.61206725	NA	1	0	5.76	1	319.398720757	319.402692927	"17"	4059.558532312	4014.916142569	1.5	0.1
0.01	1	0.00377195400005803	1	71	325.61206725	NA	1	0	5.76	1	319.632462375	319.636234329	"17"	4059.558532312	4014.916142569	1.5	0.1
0.01	1	0.00357974100006686	1	71	325.61206725	NA	1	0	5.76	1	319.866196572	319.869776313	"17"	4059.558532312	4014.916142569	1.5	0.1
0.01	1	0.0036906249997628	1	71	325.61206725	NA	1	0	5.76	1	320.09989195	320.103582575	"17"	4059.558532312	4014.916142569	1.5	0.1
0.01	1	0.00378190899982656	1	71	325.61206725	NA	1	0	5.76	1	320.3336719	320.337453809	"17"	4059.558532312	4014.916142569	1.5	0.1
0.01	1	0.00460388199962836	1	71	325.61206725	NA	1	0	5.76	1	320.56735751	320.571961392	"17"	4059.558532312	4014.916142569	1.5	0.1
0.01	1	0.00397269099994446	1	71	325.61206725	NA	1	0	5.76	1	320.80108402	320.805056711	"17"	4059.558532312	4014.916142569	1.5	0.1
0.01	1	0.00382722600033958	1	71	325.61206725	NA	1	0	5.76	1	321.034863795	321.038691021	"17"	4059.558532312	4014.916142569	1.5	0.1
0.01	1	0.00432193500000722	1	71	325.61206725	NA	1	0	5.76	1	321.268582485	321.27290442	"17"	4059.558532312	4014.916142569	1.5	0.1
0.01	1	0.00381814499996835	1	71	325.61206725	NA	1	0	5.76	1	321.50229561	321.506113755	"17"	4059.558532312	4014.916142569	1.5	0.1
0.01	1	0.00361596399989139	1	71	325.61206725	NA	1	0	5.76	1	321.736033845	321.739649809	"17"	4059.558532312	4014.916142569	1.5	0.1
0.01	1	0.00464902699968661	1	71	325.61206725	NA	1	0	5.76	1	321.969862425	321.974511452	"17"	4059.558532312	4014.916142569	1.5	0.1
0.01	1	0.00385333500025808	1	71	325.61206725	NA	1	0	5.76	1	322.203522012	322.207375347	"17"	4059.558532312	4014.916142569	1.5	0.1
0.01	1	0.00389406699969186	1	71	325.61206725	NA	1	0	5.76	1	322.437238912	322.441132979	"17"	4059.558532312	4014.916142569	1.5	0.1
0.01	1	0.0032915720003075	1	71	325.61206725	NA	1	0	5.76	1	322.670946223	322.674237795	"17"	4059.558532312	4014.916142569	1.5	0.1
0.01	1	0.00377010100010011	1	71	325.61206725	NA	1	0	5.76	1	322.90468415	322.908454251	"17"	4059.558532312	4014.916142569	1.5	0.1
0.01	1	0.0042544790003376	1	71	325.61206725	NA	1	0	5.76	1	323.138491481	323.14274596	"17"	4059.558532312	4014.916142569	1.5	0.1
0.01	1	0.483447996999985	1	71	325.61206725	NA	1	0	5.76	1	323.37204685	323.855494847	"17"	4059.558532312	4014.916142569	1.5	0.1
0.01	1	0.00329036199991606	1	71	325.61206725	NA	1	0	5.76	1	324.089880007	324.093170369	"17"	4059.558532312	4014.916142569	1.5	0.1
