"payoff.level"	"balloon"	"rt"	"resp"	"explode.trial"	"explode.time"	"finish.time"	"exploded"	"trial.total"	"cumulative.total"	"finished"	"trial.start"	"trial.end"	"trial.num"	"secs"	"start.time"	"iti"	"isi"
0.01	1	0.976212979000024	1	64	NA	40.704399342	0	0.32	0.32	1	0.0137413119999792	0.989954291000004	"1"	959.48244581	953.053047919	1.5	0.1
0.01	1	0.441501915999993	1	64	NA	40.704399342	0	0.32	0.32	1	1.34897443899996	1.79047635499995	"1"	959.48244581	953.053047919	1.5	0.1
0.01	1	0.453413100000034	1	64	NA	40.704399342	0	0.32	0.32	1	2.01677984699995	2.47019294699999	"1"	959.48244581	953.053047919	1.5	0.1
0.01	1	0.817660051000018	1	64	NA	40.704399342	0	0.32	0.32	1	2.70128649599997	3.51894654699998	"1"	959.48244581	953.053047919	1.5	0.1
0.01	1	0.636144918000014	1	64	NA	40.704399342	0	0.32	0.32	1	3.75312655599998	4.389271474	"1"	959.48244581	953.053047919	1.5	0.1
0.01	1	1.08821009600001	1	64	NA	40.704399342	0	0.32	0.32	1	4.62121272399997	5.70942281999999	"1"	959.48244581	953.053047919	1.5	0.1
0.01	1	0.841654606999953	1	64	NA	40.704399342	0	0.32	0.32	1	5.940054648	6.78170925499995	"1"	959.48244581	953.053047919	1.5	0.1
0.01	1	1.52569825900002	1	64	NA	40.704399342	0	0.32	0.32	1	7.00860184199996	8.53430010099999	"1"	959.48244581	953.053047919	1.5	0.1
0.01	1	1.605460908	1	64	NA	40.704399342	0	0.32	0.32	1	8.76150734199996	10.36696825	"1"	959.48244581	953.053047919	1.5	0.1
0.01	1	2.51957228800001	1	64	NA	40.704399342	0	0.32	0.32	1	10.598029427	13.117601715	"1"	959.48244581	953.053047919	1.5	0.1
0.01	1	0.828695296000035	1	64	NA	40.704399342	0	0.32	0.32	1	13.352581637	14.181276933	"1"	959.48244581	953.053047919	1.5	0.1
0.01	1	0.985279929000001	1	64	NA	40.704399342	0	0.32	0.32	1	14.421136842	15.406416771	"1"	959.48244581	953.053047919	1.5	0.1
0.01	1	0.669471059999978	1	64	NA	40.704399342	0	0.32	0.32	1	15.639693644	16.309164704	"1"	959.48244581	953.053047919	1.5	0.1
0.01	1	1.28797817999998	1	64	NA	40.704399342	0	0.32	0.32	1	16.541351262	17.829329442	"1"	959.48244581	953.053047919	1.5	0.1
0.01	1	1.720885297	1	64	NA	40.704399342	0	0.32	0.32	1	18.06061304	19.781498337	"1"	959.48244581	953.053047919	1.5	0.1
0.01	1	0.808219359999953	1	64	NA	40.704399342	0	0.32	0.32	1	20.013824747	20.822044107	"1"	959.48244581	953.053047919	1.5	0.1
0.01	1	1.58828510299998	1	64	NA	40.704399342	0	0.32	0.32	1	21.048881472	22.637166575	"1"	959.48244581	953.053047919	1.5	0.1
0.01	1	0.721062598000003	1	64	NA	40.704399342	0	0.32	0.32	1	22.868595967	23.589658565	"1"	959.48244581	953.053047919	1.5	0.1
0.01	1	1.97865927700002	1	64	NA	40.704399342	0	0.32	0.32	1	23.820166872	25.798826149	"1"	959.48244581	953.053047919	1.5	0.1
0.01	1	1.35835055999996	1	64	NA	40.704399342	0	0.32	0.32	1	26.023911807	27.382262367	"1"	959.48244581	953.053047919	1.5	0.1
0.01	1	0.859662560000004	1	64	NA	40.704399342	0	0.32	0.32	1	27.609962922	28.469625482	"1"	959.48244581	953.053047919	1.5	0.1
0.01	1	0.486854362999964	1	64	NA	40.704399342	0	0.32	0.32	1	28.695159527	29.18201389	"1"	959.48244581	953.053047919	1.5	0.1
0.01	1	0.977706785000009	1	64	NA	40.704399342	0	0.32	0.32	1	29.413030339	30.390737124	"1"	959.48244581	953.053047919	1.5	0.1
0.01	1	0.935186151999972	1	64	NA	40.704399342	0	0.32	0.32	1	30.614892952	31.550079104	"1"	959.48244581	953.053047919	1.5	0.1
0.01	1	0.598765533000005	1	64	NA	40.704399342	0	0.32	0.32	1	31.783607537	32.38237307	"1"	959.48244581	953.053047919	1.5	0.1
0.01	1	0.659467326999959	1	64	NA	40.704399342	0	0.32	0.32	1	32.618347712	33.277815039	"1"	959.48244581	953.053047919	1.5	0.1
0.01	1	0.502272114999982	1	64	NA	40.704399342	0	0.32	0.32	1	33.503102646	34.005374761	"1"	959.48244581	953.053047919	1.5	0.1
0.01	1	1.72869307799999	1	64	NA	40.704399342	0	0.32	0.32	1	34.237805272	35.96649835	"1"	959.48244581	953.053047919	1.5	0.1
0.01	1	0.558614452999961	1	64	NA	40.704399342	0	0.32	0.32	1	36.207709717	36.76632417	"1"	959.48244581	953.053047919	1.5	0.1
0.01	1	0.74274819499999	1	64	NA	40.704399342	0	0.32	0.32	1	36.992432572	37.735180767	"1"	959.48244581	953.053047919	1.5	0.1
0.01	1	0.830167334000009	1	64	NA	40.704399342	0	0.32	0.32	1	37.960571624	38.790738958	"1"	959.48244581	953.053047919	1.5	0.1
0.01	1	0.40206058800004	1	64	NA	40.704399342	0	0.32	0.32	1	39.012429859	39.414490447	"1"	959.48244581	953.053047919	1.5	0.1
0.01	1	1.05599072899997	2	64	NA	40.704399342	0	0.32	0.32	1	39.6467202	40.702710929	"1"	959.48244581	953.053047919	1.5	0.1
0.01	1	0.710619158000043	1	102	115.427061517	NA	1	0	0.32	1	42.752071182	43.46269034	"2"	959.48244581	953.053047919	1.5	0.1
0.01	1	0.511037793000014	1	102	115.427061517	NA	1	0	0.32	1	43.703712105	44.214749898	"2"	959.48244581	953.053047919	1.5	0.1
0.01	1	0.44720116100001	1	102	115.427061517	NA	1	0	0.32	1	44.438174897	44.885376058	"2"	959.48244581	953.053047919	1.5	0.1
0.01	1	0.371354069999995	1	102	115.427061517	NA	1	0	0.32	1	45.122644537	45.493998607	"2"	959.48244581	953.053047919	1.5	0.1
0.01	1	0.355310194999959	1	102	115.427061517	NA	1	0	0.32	1	45.723724232	46.079034427	"2"	959.48244581	953.053047919	1.5	0.1
0.01	1	0.363083395000046	1	102	115.427061517	NA	1	0	0.32	1	46.307979627	46.671063022	"2"	959.48244581	953.053047919	1.5	0.1
0.01	1	0.480650307000019	1	102	115.427061517	NA	1	0	0.32	1	46.909072389	47.389722696	"2"	959.48244581	953.053047919	1.5	0.1
0.01	1	0.339297584000008	1	102	115.427061517	NA	1	0	0.32	1	47.626929277	47.966226861	"2"	959.48244581	953.053047919	1.5	0.1
0.01	1	0.395240159000025	1	102	115.427061517	NA	1	0	0.32	1	48.19454029	48.589780449	"2"	959.48244581	953.053047919	1.5	0.1
0.01	1	0.426684132999981	1	102	115.427061517	NA	1	0	0.32	1	48.812209884	49.238894017	"2"	959.48244581	953.053047919	1.5	0.1
0.01	1	0.382833409999989	1	102	115.427061517	NA	1	0	0.32	1	49.463354557	49.846187967	"2"	959.48244581	953.053047919	1.5	0.1
0.01	1	0.509049919000006	1	102	115.427061517	NA	1	0	0.32	1	50.081076057	50.590125976	"2"	959.48244581	953.053047919	1.5	0.1
0.01	1	0.55774526700003	1	102	115.427061517	NA	1	0	0.32	1	50.8156641469999	51.373409414	"2"	959.48244581	953.053047919	1.5	0.1
0.01	1	0.645542522000028	1	102	115.427061517	NA	1	0	0.32	1	51.600259159	52.245801681	"2"	959.48244581	953.053047919	1.5	0.1
0.01	1	0.49851252000002	1	102	115.427061517	NA	1	0	0.32	1	52.468312377	52.966824897	"2"	959.48244581	953.053047919	1.5	0.1
0.01	1	0.540230989999998	1	102	115.427061517	NA	1	0	0.32	1	53.203007234	53.743238224	"2"	959.48244581	953.053047919	1.5	0.1
0.01	1	0.899517907000018	1	102	115.427061517	NA	1	0	0.32	1	53.970847432	54.870365339	"2"	959.48244581	953.053047919	1.5	0.1
0.01	1	0.916668658999981	1	102	115.427061517	NA	1	0	0.32	1	55.106142359	56.022811018	"2"	959.48244581	953.053047919	1.5	0.1
0.01	1	0.812611589000028	1	102	115.427061517	NA	1	0	0.32	1	56.258191392	57.070802981	"2"	959.48244581	953.053047919	1.5	0.1
0.01	1	0.544636328000024	1	102	115.427061517	NA	1	0	0.32	1	57.293241559	57.837877887	"2"	959.48244581	953.053047919	1.5	0.1
0.01	1	0.832384370999989	1	102	115.427061517	NA	1	0	0.32	1	58.061158259	58.89354263	"2"	959.48244581	953.053047919	1.5	0.1
0.01	1	0.38892187700003	1	102	115.427061517	NA	1	0	0.32	1	59.129721135	59.518643012	"2"	959.48244581	953.053047919	1.5	0.1
0.01	1	0.338339580000024	1	102	115.427061517	NA	1	0	0.32	1	59.747278787	60.085618367	"2"	959.48244581	953.053047919	1.5	0.1
0.01	1	0.387701091999986	1	102	115.427061517	NA	1	0	0.32	1	60.314909319	60.702610411	"2"	959.48244581	953.053047919	1.5	0.1
0.01	1	0.554431617999967	1	102	115.427061517	NA	1	0	0.32	1	60.932659222	61.48709084	"2"	959.48244581	953.053047919	1.5	0.1
0.01	1	1.14501873400002	1	102	115.427061517	NA	1	0	0.32	1	61.717278257	62.862296991	"2"	959.48244581	953.053047919	1.5	0.1
0.01	1	0.61490085500003	1	102	115.427061517	NA	1	0	0.32	1	63.103068327	63.717969182	"2"	959.48244581	953.053047919	1.5	0.1
0.01	1	0.675272775999986	1	102	115.427061517	NA	1	0	0.32	1	63.954323904	64.62959668	"2"	959.48244581	953.053047919	1.5	0.1
0.01	1	0.366413987000044	1	102	115.427061517	NA	1	0	0.32	1	64.856037747	65.222451734	"2"	959.48244581	953.053047919	1.5	0.1
0.01	1	0.508961224000018	1	102	115.427061517	NA	1	0	0.32	1	65.457017907	65.965979131	"2"	959.48244581	953.053047919	1.5	0.1
0.01	1	0.42172010400003	1	102	115.427061517	NA	1	0	0.32	1	66.191431387	66.613151491	"2"	959.48244581	953.053047919	1.5	0.1
0.01	1	0.394700763000003	1	102	115.427061517	NA	1	0	0.32	1	66.8427260019999	67.237426765	"2"	959.48244581	953.053047919	1.5	0.1
0.01	1	0.385916794999957	1	102	115.427061517	NA	1	0	0.32	1	67.476979572	67.862896367	"2"	959.48244581	953.053047919	1.5	0.1
0.01	1	0.512056954000002	1	102	115.427061517	NA	1	0	0.32	1	68.094669297	68.606726251	"2"	959.48244581	953.053047919	1.5	0.1
0.01	1	0.672951855999997	1	102	115.427061517	NA	1	0	0.32	1	68.82929924	69.502251096	"2"	959.48244581	953.053047919	1.5	0.1
0.01	1	0.435868195000012	1	102	115.427061517	NA	1	0	0.32	1	69.730760302	70.166628497	"2"	959.48244581	953.053047919	1.5	0.1
0.01	1	0.472457538000015	1	102	115.427061517	NA	1	0	0.32	1	70.398613339	70.871070877	"2"	959.48244581	953.053047919	1.5	0.1
0.01	1	0.418007172999978	1	102	115.427061517	NA	1	0	0.32	1	71.099763392	71.517770565	"2"	959.48244581	953.053047919	1.5	0.1
0.01	1	0.390920967	1	102	115.427061517	NA	1	0	0.32	1	71.750824007	72.141744974	"2"	959.48244581	953.053047919	1.5	0.1
0.01	1	0.397416202999977	1	102	115.427061517	NA	1	0	0.32	1	72.368567909	72.765984112	"2"	959.48244581	953.053047919	1.5	0.1
0.01	1	0.435384037000006	1	102	115.427061517	NA	1	0	0.32	1	73.002920538	73.438304575	"2"	959.48244581	953.053047919	1.5	0.1
0.01	1	0.536207481000019	1	102	115.427061517	NA	1	0	0.32	1	73.6707990519999	74.207006533	"2"	959.48244581	953.053047919	1.5	0.1
0.01	1	0.447987458	1	102	115.427061517	NA	1	0	0.32	1	74.438796522	74.88678398	"2"	959.48244581	953.053047919	1.5	0.1
0.01	1	0.419275507000009	1	102	115.427061517	NA	1	0	0.32	1	75.1232013589999	75.542476866	"2"	959.48244581	953.053047919	1.5	0.1
0.01	1	0.447618009999985	1	102	115.427061517	NA	1	0	0.32	1	75.774201652	76.221819662	"2"	959.48244581	953.053047919	1.5	0.1
0.01	1	0.436385905000009	1	102	115.427061517	NA	1	0	0.32	1	76.458683002	76.895068907	"2"	959.48244581	953.053047919	1.5	0.1
0.01	1	0.446999702000028	1	102	115.427061517	NA	1	0	0.32	1	77.126550892	77.573550594	"2"	959.48244581	953.053047919	1.5	0.1
0.01	1	0.418783730999962	1	102	115.427061517	NA	1	0	0.32	1	77.810996247	78.229779978	"2"	959.48244581	953.053047919	1.5	0.1
0.01	1	0.392070184999966	1	102	115.427061517	NA	1	0	0.32	1	78.462121002	78.854191187	"2"	959.48244581	953.053047919	1.5	0.1
0.01	1	0.463200906999987	1	102	115.427061517	NA	1	0	0.32	1	79.079777849	79.542978756	"2"	959.48244581	953.053047919	1.5	0.1
0.01	1	0.689229458	1	102	115.427061517	NA	1	0	0.32	1	79.764259979	80.453489437	"2"	959.48244581	953.053047919	1.5	0.1
0.01	1	0.436782000999983	1	102	115.427061517	NA	1	0	0.32	1	80.682562942	81.119344943	"2"	959.48244581	953.053047919	1.5	0.1
0.01	1	0.35114809800001	1	102	115.427061517	NA	1	0	0.32	1	81.350278589	81.701426687	"2"	959.48244581	953.053047919	1.5	0.1
0.01	1	0.391988158000004	1	102	115.427061517	NA	1	0	0.32	1	81.934611487	82.326599645	"2"	959.48244581	953.053047919	1.5	0.1
0.01	1	0.396823003999998	1	102	115.427061517	NA	1	0	0.32	1	82.552399409	82.949222413	"2"	959.48244581	953.053047919	1.5	0.1
0.01	1	0.426603851999971	1	102	115.427061517	NA	1	0	0.32	1	83.186743924	83.613347776	"2"	959.48244581	953.053047919	1.5	0.1
0.01	1	0.400184092000018	1	102	115.427061517	NA	1	0	0.32	1	83.837827744	84.238011836	"2"	959.48244581	953.053047919	1.5	0.1
0.01	1	0.357484907000014	1	102	115.427061517	NA	1	0	0.32	1	84.472225757	84.829710664	"2"	959.48244581	953.053047919	1.5	0.1
0.01	1	0.366388694000022	1	102	115.427061517	NA	1	0	0.32	1	85.056588862	85.422977556	"2"	959.48244581	953.053047919	1.5	0.1
0.01	1	0.372260615000016	1	102	115.427061517	NA	1	0	0.32	1	85.657603087	86.029863702	"2"	959.48244581	953.053047919	1.5	0.1
0.01	1	0.827850452999996	1	102	115.427061517	NA	1	0	0.32	1	86.25861738	87.086467833	"2"	959.48244581	953.053047919	1.5	0.1
0.01	1	0.326839794999955	1	102	115.427061517	NA	1	0	0.32	1	87.310416729	87.637256524	"2"	959.48244581	953.053047919	1.5	0.1
0.01	1	0.343908355000053	1	102	115.427061517	NA	1	0	0.32	1	87.878025352	88.221933707	"2"	959.48244581	953.053047919	1.5	0.1
0.01	1	0.336290247999955	1	102	115.427061517	NA	1	0	0.32	1	88.445591557	88.781881805	"2"	959.48244581	953.053047919	1.5	0.1
0.01	1	0.321377958000028	1	102	115.427061517	NA	1	0	0.32	1	89.013199539	89.334577497	"2"	959.48244581	953.053047919	1.5	0.1
0.01	1	0.353330930000027	1	102	115.427061517	NA	1	0	0.32	1	89.564032617	89.917363547	"2"	959.48244581	953.053047919	1.5	0.1
0.01	1	0.328676056000006	1	102	115.427061517	NA	1	0	0.32	1	90.148547009	90.477223065	"2"	959.48244581	953.053047919	1.5	0.1
0.01	1	0.298478924999984	1	102	115.427061517	NA	1	0	0.32	1	90.716009977	91.014488902	"2"	959.48244581	953.053047919	1.5	0.1
0.01	1	0.340115655000034	1	102	115.427061517	NA	1	0	0.32	1	91.250266892	91.590382547	"2"	959.48244581	953.053047919	1.5	0.1
0.01	1	0.468992694999997	1	102	115.427061517	NA	1	0	0.32	1	91.817967622	92.286960317	"2"	959.48244581	953.053047919	1.5	0.1
0.01	1	0.790364101000023	1	102	115.427061517	NA	1	0	0.32	1	92.519109909	93.30947401	"2"	959.48244581	953.053047919	1.5	0.1
0.01	1	0.333351809000021	1	102	115.427061517	NA	1	0	0.32	1	93.537647369	93.870999178	"2"	959.48244581	953.053047919	1.5	0.1
0.01	1	0.260203529000023	1	102	115.427061517	NA	1	0	0.32	1	94.105045898	94.365249427	"2"	959.48244581	953.053047919	1.5	0.1
0.01	1	0.225625226999966	1	102	115.427061517	NA	1	0	0.32	1	94.589186887	94.8148121139999	"2"	959.48244581	953.053047919	1.5	0.1
0.01	1	0.254121438000027	1	102	115.427061517	NA	1	0	0.32	1	95.040057809	95.294179247	"2"	959.48244581	953.053047919	1.5	0.1
0.01	1	2.21046732299999	1	102	115.427061517	NA	1	0	0.32	1	95.524247204	97.734714527	"2"	959.48244581	953.053047919	1.5	0.1
0.01	1	0.73161094400001	1	102	115.427061517	NA	1	0	0.32	1	97.961559124	98.693170068	"2"	959.48244581	953.053047919	1.5	0.1
0.01	1	0.347957027999996	1	102	115.427061517	NA	1	0	0.32	1	98.929967022	99.27792405	"2"	959.48244581	953.053047919	1.5	0.1
0.01	1	0.355159445999959	1	102	115.427061517	NA	1	0	0.32	1	99.514229752	99.869389198	"2"	959.48244581	953.053047919	1.5	0.1
0.01	1	0.620521251000014	1	102	115.427061517	NA	1	0	0.32	1	100.098596379	100.71911763	"2"	959.48244581	953.053047919	1.5	0.1
0.01	1	0.872854453999992	1	102	115.427061517	NA	1	0	0.32	1	100.949984517	101.822838971	"2"	959.48244581	953.053047919	1.5	0.1
0.01	1	0.409814770000025	1	102	115.427061517	NA	1	0	0.32	1	102.051854492	102.461669262	"2"	959.48244581	953.053047919	1.5	0.1
0.01	1	0.318567879	1	102	115.427061517	NA	1	0	0.32	1	102.702893792	103.021461671	"2"	959.48244581	953.053047919	1.5	0.1
0.01	1	0.295622846000015	1	102	115.427061517	NA	1	0	0.32	1	103.253835044	103.54945789	"2"	959.48244581	953.053047919	1.5	0.1
0.01	1	0.465834647000008	1	102	115.427061517	NA	1	0	0.32	1	103.788075799	104.253910446	"2"	959.48244581	953.053047919	1.5	0.1
0.01	1	0.492496346999985	1	102	115.427061517	NA	1	0	0.32	1	104.489225607	104.981721954	"2"	959.48244581	953.053047919	1.5	0.1
0.01	1	0.919078845999991	1	102	115.427061517	NA	1	0	0.32	1	105.207056642	106.126135488	"2"	959.48244581	953.053047919	1.5	0.1
0.01	1	0.575084052000022	1	102	115.427061517	NA	1	0	0.32	1	106.359145804	106.934229856	"2"	959.48244581	953.053047919	1.5	0.1
0.01	1	0.494242640999971	1	102	115.427061517	NA	1	0	0.32	1	107.160364899	107.65460754	"2"	959.48244581	953.053047919	1.5	0.1
0.01	1	0.320866786000011	1	102	115.427061517	NA	1	0	0.32	1	107.878343787	108.199210573	"2"	959.48244581	953.053047919	1.5	0.1
0.01	1	0.473880925000003	1	102	115.427061517	NA	1	0	0.32	1	108.429199322	108.903080247	"2"	959.48244581	953.053047919	1.5	0.1
0.01	1	0.284504215000027	1	102	115.427061517	NA	1	0	0.32	1	109.130421262	109.414925477	"2"	959.48244581	953.053047919	1.5	0.1
0.01	1	0.285186087	1	102	115.427061517	NA	1	0	0.32	1	109.648001352	109.933187439	"2"	959.48244581	953.053047919	1.5	0.1
0.01	1	0.249001497000052	1	102	115.427061517	NA	1	0	0.32	1	110.165436472	110.414437969	"2"	959.48244581	953.053047919	1.5	0.1
0.01	1	0.293324791999964	1	102	115.427061517	NA	1	0	0.32	1	110.649572879	110.942897671	"2"	959.48244581	953.053047919	1.5	0.1
0.01	1	1.03875144	1	102	115.427061517	NA	1	0	0.32	1	111.167245642	112.205997082	"2"	959.48244581	953.053047919	1.5	0.1
0.01	1	0.202815341000019	1	102	115.427061517	NA	1	0	0.32	1	112.435959645	112.638774986	"2"	959.48244581	953.053047919	1.5	0.1
0.01	1	0.407182335000016	1	102	115.427061517	NA	1	0	0.32	1	112.870025359	113.277207694	"2"	959.48244581	953.053047919	1.5	0.1
0.01	1	0.236855229000014	1	102	115.427061517	NA	1	0	0.32	1	113.504440184	113.741295413	"2"	959.48244581	953.053047919	1.5	0.1
0.01	1	0.466637934999994	1	102	115.427061517	NA	1	0	0.32	1	113.971971337	114.438609272	"2"	959.48244581	953.053047919	1.5	0.1
0.01	1	0.253683548000026	1	102	115.427061517	NA	1	0	0.32	1	114.673038839	114.926722387	"2"	959.48244581	953.053047919	1.5	0.1
0.01	1	0.160027412000034	1	102	115.427061517	NA	1	0	0.32	1	115.157323372	115.317350784	"2"	959.48244581	953.053047919	1.5	0.1
0.01	1	0.561143162999997	1	97	NA	128.696446014	0	0.39	0.71	1	117.477795347	118.03893851	"3"	959.48244581	953.053047919	1.5	0.1
0.01	1	0.255929761000004	1	97	NA	128.696446014	0	0.39	0.71	1	118.279020547	118.534950308	"3"	959.48244581	953.053047919	1.5	0.1
0.01	1	0.0738587589999611	1	97	NA	128.696446014	0	0.39	0.71	1	118.763242752	118.837101511	"3"	959.48244581	953.053047919	1.5	0.1
0.01	1	0.0066204569999968	1	97	NA	128.696446014	0	0.39	0.71	1	119.063811749	119.070432206	"3"	959.48244581	953.053047919	1.5	0.1
0.01	1	0.00690604900000835	1	97	NA	128.696446014	0	0.39	0.71	1	119.297404549	119.304310598	"3"	959.48244581	953.053047919	1.5	0.1
0.01	1	0.0680292690000215	1	97	NA	128.696446014	0	0.39	0.71	1	119.531170467	119.599199736	"3"	959.48244581	953.053047919	1.5	0.1
0.01	1	0.0393516119999617	1	97	NA	128.696446014	0	0.39	0.71	1	119.831798817	119.871150429	"3"	959.48244581	953.053047919	1.5	0.1
0.01	1	0.035607089999985	1	97	NA	128.696446014	0	0.39	0.71	1	120.098806527	120.134413617	"3"	959.48244581	953.053047919	1.5	0.1
0.01	1	0.00295279200003051	1	97	NA	128.696446014	0	0.39	0.71	1	120.365877822	120.368830614	"3"	959.48244581	953.053047919	1.5	0.1
0.01	1	0.166249090999997	1	97	NA	128.696446014	0	0.39	0.71	1	120.599772197	120.766021288	"3"	959.48244581	953.053047919	1.5	0.1
0.01	1	0.00662934099995027	1	97	NA	128.696446014	0	0.39	0.71	1	121.000320687	121.006950028	"3"	959.48244581	953.053047919	1.5	0.1
0.01	1	0.0133978139999726	1	97	NA	128.696446014	0	0.39	0.71	1	121.234210857	121.247608671	"3"	959.48244581	953.053047919	1.5	0.1
0.01	1	0.0112363190000337	1	97	NA	128.696446014	0	0.39	0.71	1	121.484585287	121.495821606	"3"	959.48244581	953.053047919	1.5	0.1
0.01	1	0.0489134099999546	1	97	NA	128.696446014	0	0.39	0.71	1	121.718217848	121.767131258	"3"	959.48244581	953.053047919	1.5	0.1
0.01	1	0.0113035839999611	1	97	NA	128.696446014	0	0.39	0.71	1	122.002042544	122.013346128	"3"	959.48244581	953.053047919	1.5	0.1
0.01	1	0.00457676999997148	1	97	NA	128.696446014	0	0.39	0.71	1	122.235850052	122.240426822	"3"	959.48244581	953.053047919	1.5	0.1
0.01	1	0.00200979699997106	1	97	NA	128.696446014	0	0.39	0.71	1	122.469511007	122.471520804	"3"	959.48244581	953.053047919	1.5	0.1
0.01	1	0.0788959999999861	1	97	NA	128.696446014	0	0.39	0.71	1	122.703231722	122.782127722	"3"	959.48244581	953.053047919	1.5	0.1
0.01	1	0.00329114800001662	1	97	NA	128.696446014	0	0.39	0.71	1	123.02044702	123.023738168	"3"	959.48244581	953.053047919	1.5	0.1
0.01	1	0.00230774000004885	1	97	NA	128.696446014	0	0.39	0.71	1	123.254108394	123.256416134	"3"	959.48244581	953.053047919	1.5	0.1
0.01	1	0.00196972199995571	1	97	NA	128.696446014	0	0.39	0.71	1	123.487964122	123.489933844	"3"	959.48244581	953.053047919	1.5	0.1
0.01	1	0.00393568999999161	1	97	NA	128.696446014	0	0.39	0.71	1	123.721574044	123.725509734	"3"	959.48244581	953.053047919	1.5	0.1
0.01	1	0.00372603499999968	1	97	NA	128.696446014	0	0.39	0.71	1	123.955287699	123.959013734	"3"	959.48244581	953.053047919	1.5	0.1
0.01	1	0.00396095000002106	1	97	NA	128.696446014	0	0.39	0.71	1	124.188996424	124.192957374	"3"	959.48244581	953.053047919	1.5	0.1
0.01	1	0.11932450200004	1	97	NA	128.696446014	0	0.39	0.71	1	124.422795602	124.542120104	"3"	959.48244581	953.053047919	1.5	0.1
0.01	1	0.00977730400001064	1	97	NA	128.696446014	0	0.39	0.71	1	124.773432812	124.783210116	"3"	959.48244581	953.053047919	1.5	0.1
0.01	1	0.143744992999984	1	97	NA	128.696446014	0	0.39	0.71	1	125.007178917	125.15092391	"3"	959.48244581	953.053047919	1.5	0.1
0.01	1	0.0322525400000018	1	97	NA	128.696446014	0	0.39	0.71	1	125.374312867	125.406565407	"3"	959.48244581	953.053047919	1.5	0.1
0.01	1	0.00230238000000327	1	97	NA	128.696446014	0	0.39	0.71	1	125.641477752	125.643780132	"3"	959.48244581	953.053047919	1.5	0.1
0.01	1	0.138851810999995	1	97	NA	128.696446014	0	0.39	0.71	1	125.875245889	126.0140977	"3"	959.48244581	953.053047919	1.5	0.1
0.01	1	0.00200840299999072	1	97	NA	128.696446014	0	0.39	0.71	1	126.24249364	126.244502043	"3"	959.48244581	953.053047919	1.5	0.1
0.01	1	0.00387186300002895	1	97	NA	128.696446014	0	0.39	0.71	1	126.476159739	126.480031602	"3"	959.48244581	953.053047919	1.5	0.1
0.01	1	0.00384332700002687	1	97	NA	128.696446014	0	0.39	0.71	1	126.709914247	126.713757574	"3"	959.48244581	953.053047919	1.5	0.1
0.01	1	0.00386060499999985	1	97	NA	128.696446014	0	0.39	0.71	1	126.943797647	126.947658252	"3"	959.48244581	953.053047919	1.5	0.1
0.01	1	0.0690625619999992	1	97	NA	128.696446014	0	0.39	0.71	1	127.177502892	127.246565454	"3"	959.48244581	953.053047919	1.5	0.1
0.01	1	0.00388091999997187	1	97	NA	128.696446014	0	0.39	0.71	1	127.477853602	127.481734522	"3"	959.48244581	953.053047919	1.5	0.1
0.01	1	0.00200456900000745	1	97	NA	128.696446014	0	0.39	0.71	1	127.71167926	127.713683829	"3"	959.48244581	953.053047919	1.5	0.1
0.01	1	0.00203983299996935	1	97	NA	128.696446014	0	0.39	0.71	1	127.945354436	127.947394269	"3"	959.48244581	953.053047919	1.5	0.1
0.01	1	0.00398353200000656	1	97	NA	128.696446014	0	0.39	0.71	1	128.179081272	128.183064804	"3"	959.48244581	953.053047919	1.5	0.1
0.01	1	0.282045041000003	2	97	NA	128.696446014	0	0.39	0.71	1	128.412836312	128.694881353	"3"	959.48244581	953.053047919	1.5	0.1
0.01	1	0.504460816999995	1	51	NA	144.248743417	0	0.49	1.2	1	130.733437999	131.237898816	"4"	959.48244581	953.053047919	1.5	0.1
0.01	1	0.00397993299998234	1	51	NA	144.248743417	0	0.49	1.2	1	131.467917717	131.47189765	"4"	959.48244581	953.053047919	1.5	0.1
0.01	1	0.0044511899999975	1	51	NA	144.248743417	0	0.49	1.2	1	131.701675707	131.706126897	"4"	959.48244581	953.053047919	1.5	0.1
0.01	1	0.206818708999947	1	51	NA	144.248743417	0	0.49	1.2	1	131.935412842	132.142231551	"4"	959.48244581	953.053047919	1.5	0.1
0.01	1	0.0210706720000076	1	51	NA	144.248743417	0	0.49	1.2	1	132.369492952	132.390563624	"4"	959.48244581	953.053047919	1.5	0.1
0.01	1	0.00447080700001834	1	51	NA	144.248743417	0	0.49	1.2	1	132.619973777	132.624444584	"4"	959.48244581	953.053047919	1.5	0.1
0.01	1	0.0804082420000327	1	51	NA	144.248743417	0	0.49	1.2	1	132.853601989	132.934010231	"4"	959.48244581	953.053047919	1.5	0.1
0.01	1	0.00222873500001697	1	51	NA	144.248743417	0	0.49	1.2	1	133.170838841	133.173067576	"4"	959.48244581	953.053047919	1.5	0.1
0.01	1	0.0809988650000264	1	51	NA	144.248743417	0	0.49	1.2	1	133.404564262	133.485563127	"4"	959.48244581	953.053047919	1.5	0.1
0.01	1	0.117288963000021	1	51	NA	144.248743417	0	0.49	1.2	1	133.721725587	133.83901455	"4"	959.48244581	953.053047919	1.5	0.1
0.01	1	0.00201609300000882	1	51	NA	144.248743417	0	0.49	1.2	1	134.072352718	134.074368811	"4"	959.48244581	953.053047919	1.5	0.1
0.01	1	0.00196259399996279	1	51	NA	144.248743417	0	0.49	1.2	1	134.306147662	134.308110256	"4"	959.48244581	953.053047919	1.5	0.1
0.01	1	0.00456014200000254	1	51	NA	144.248743417	0	0.49	1.2	1	134.539843147	134.544403289	"4"	959.48244581	953.053047919	1.5	0.1
0.01	1	0.135720444000015	1	51	NA	144.248743417	0	0.49	1.2	1	134.773542522	134.909262966	"4"	959.48244581	953.053047919	1.5	0.1
0.01	1	0.00453735500002495	1	51	NA	144.248743417	0	0.49	1.2	1	135.140842617	135.145379972	"4"	959.48244581	953.053047919	1.5	0.1
0.01	1	0.00452796000001854	1	51	NA	144.248743417	0	0.49	1.2	1	135.374504897	135.379032857	"4"	959.48244581	953.053047919	1.5	0.1
0.01	1	0.00390403500000502	1	51	NA	144.248743417	0	0.49	1.2	1	135.608189227	135.612093262	"4"	959.48244581	953.053047919	1.5	0.1
0.01	1	0.00459412700001849	1	51	NA	144.248743417	0	0.49	1.2	1	135.842000027	135.846594154	"4"	959.48244581	953.053047919	1.5	0.1
0.01	1	0.107055477000017	1	51	NA	144.248743417	0	0.49	1.2	1	136.075743022	136.182798499	"4"	959.48244581	953.053047919	1.5	0.1
0.01	1	0.00206638299999895	1	51	NA	144.248743417	0	0.49	1.2	1	136.409652926	136.411719309	"4"	959.48244581	953.053047919	1.5	0.1
0.01	1	0.0021544580000068	1	51	NA	144.248743417	0	0.49	1.2	1	136.643408038	136.645562496	"4"	959.48244581	953.053047919	1.5	0.1
0.01	1	0.00393854799995097	1	51	NA	144.248743417	0	0.49	1.2	1	136.877057804	136.880996352	"4"	959.48244581	953.053047919	1.5	0.1
0.01	1	0.00384507100000064	1	51	NA	144.248743417	0	0.49	1.2	1	137.110824889	137.11466996	"4"	959.48244581	953.053047919	1.5	0.1
0.01	1	0.00397929899997962	1	51	NA	144.248743417	0	0.49	1.2	1	137.344559817	137.348539116	"4"	959.48244581	953.053047919	1.5	0.1
0.01	1	0.00198809900001606	1	51	NA	144.248743417	0	0.49	1.2	1	137.57827495	137.580263049	"4"	959.48244581	953.053047919	1.5	0.1
0.01	1	0.0417649549999624	1	51	NA	144.248743417	0	0.49	1.2	1	137.811961882	137.853726837	"4"	959.48244581	953.053047919	1.5	0.1
0.01	1	0.0787954520000085	1	51	NA	144.248743417	0	0.49	1.2	1	138.079106004	138.157901456	"4"	959.48244581	953.053047919	1.5	0.1
0.01	1	0.0749345080000126	1	51	NA	144.248743417	0	0.49	1.2	1	138.379546557	138.454481065	"4"	959.48244581	953.053047919	1.5	0.1
0.01	1	0.0537964100000181	1	51	NA	144.248743417	0	0.49	1.2	1	138.680162347	138.733958757	"4"	959.48244581	953.053047919	1.5	0.1
0.01	1	0.0426799879999749	1	51	NA	144.248743417	0	0.49	1.2	1	138.963851688	139.006531676	"4"	959.48244581	953.053047919	1.5	0.1
0.01	1	0.0635391710000022	1	51	NA	144.248743417	0	0.49	1.2	1	139.230972307	139.294511478	"4"	959.48244581	953.053047919	1.5	0.1
0.01	1	0.0497884000000113	1	51	NA	144.248743417	0	0.49	1.2	1	139.531493569	139.581281969	"4"	959.48244581	953.053047919	1.5	0.1
0.01	1	0.0541230659999883	1	51	NA	144.248743417	0	0.49	1.2	1	139.815275252	139.869398318	"4"	959.48244581	953.053047919	1.5	0.1
0.01	1	0.051771365000036	1	51	NA	144.248743417	0	0.49	1.2	1	140.099095647	140.150867012	"4"	959.48244581	953.053047919	1.5	0.1
0.01	1	0.054393980000043	1	51	NA	144.248743417	0	0.49	1.2	1	140.382982544	140.437376524	"4"	959.48244581	953.053047919	1.5	0.1
0.01	1	0.0284241030000203	1	51	NA	144.248743417	0	0.49	1.2	1	140.666761309	140.695185412	"4"	959.48244581	953.053047919	1.5	0.1
0.01	1	0.024943124999993	1	51	NA	144.248743417	0	0.49	1.2	1	140.917230182	140.942173307	"4"	959.48244581	953.053047919	1.5	0.1
0.01	1	0.0315897979999704	1	51	NA	144.248743417	0	0.49	1.2	1	141.167576564	141.199166362	"4"	959.48244581	953.053047919	1.5	0.1
0.01	1	0.019146418000048	1	51	NA	144.248743417	0	0.49	1.2	1	141.434783949	141.453930367	"4"	959.48244581	953.053047919	1.5	0.1
0.01	1	0.00949584400001413	1	51	NA	144.248743417	0	0.49	1.2	1	141.685205624	141.694701468	"4"	959.48244581	953.053047919	1.5	0.1
0.01	1	0.00394091700002264	1	51	NA	144.248743417	0	0.49	1.2	1	141.918846609	141.922787526	"4"	959.48244581	953.053047919	1.5	0.1
0.01	1	0.00220980400001736	1	51	NA	144.248743417	0	0.49	1.2	1	142.152506591	142.154716395	"4"	959.48244581	953.053047919	1.5	0.1
0.01	1	0.00396645199998602	1	51	NA	144.248743417	0	0.49	1.2	1	142.386291592	142.390258044	"4"	959.48244581	953.053047919	1.5	0.1
0.01	1	0.00385470300000179	1	51	NA	144.248743417	0	0.49	1.2	1	142.620119907	142.62397461	"4"	959.48244581	953.053047919	1.5	0.1
0.01	1	0.00379443999997875	1	51	NA	144.248743417	0	0.49	1.2	1	142.853759692	142.857554132	"4"	959.48244581	953.053047919	1.5	0.1
0.01	1	0.00368136399998775	1	51	NA	144.248743417	0	0.49	1.2	1	143.087449722	143.091131086	"4"	959.48244581	953.053047919	1.5	0.1
0.01	1	0.116714994000006	1	51	NA	144.248743417	0	0.49	1.2	1	143.321271022	143.437986016	"4"	959.48244581	953.053047919	1.5	0.1
0.01	1	0.00207592399999612	1	51	NA	144.248743417	0	0.49	1.2	1	143.671800494	143.673876418	"4"	959.48244581	953.053047919	1.5	0.1
0.01	1	0.00398424200000136	1	51	NA	144.248743417	0	0.49	1.2	1	143.905594552	143.909578794	"4"	959.48244581	953.053047919	1.5	0.1
0.01	1	0.107907203000025	2	51	NA	144.248743417	0	0.49	1.2	1	144.139284087	144.24719129	"4"	959.48244581	953.053047919	1.5	0.1
0.01	1	0.458729290999997	1	116	NA	163.406943427	0	0.64	1.84	1	146.276235747	146.734965038	"5"	959.48244581	953.053047919	1.5	0.1
0.01	1	0.00367624599999772	1	116	NA	163.406943427	0	0.64	1.84	1	146.960716822	146.964393068	"5"	959.48244581	953.053047919	1.5	0.1
0.01	1	0.00259599999998272	1	116	NA	163.406943427	0	0.64	1.84	1	147.194488806	147.197084806	"5"	959.48244581	953.053047919	1.5	0.1
0.01	1	0.00987985300002947	1	116	NA	163.406943427	0	0.64	1.84	1	147.428232899	147.438112752	"5"	959.48244581	953.053047919	1.5	0.1
0.01	1	0.0650343939999516	1	116	NA	163.406943427	0	0.64	1.84	1	147.661851082	147.726885476	"5"	959.48244581	953.053047919	1.5	0.1
0.01	1	0.0510724110000069	1	116	NA	163.406943427	0	0.64	1.84	1	147.962526822	148.013599233	"5"	959.48244581	953.053047919	1.5	0.1
0.01	1	0.0319899090000035	1	116	NA	163.406943427	0	0.64	1.84	1	148.246243362	148.278233271	"5"	959.48244581	953.053047919	1.5	0.1
0.01	1	0.00211555900000349	1	116	NA	163.406943427	0	0.64	1.84	1	148.51333874	148.515454299	"5"	959.48244581	953.053047919	1.5	0.1
0.01	1	0.00332445799995185	1	116	NA	163.406943427	0	0.64	1.84	1	148.74693643	148.750260888	"5"	959.48244581	953.053047919	1.5	0.1
0.01	1	0.0570545269999911	1	116	NA	163.406943427	0	0.64	1.84	1	148.980727529	149.037782056	"5"	959.48244581	953.053047919	1.5	0.1
0.01	1	0.0465420470000026	1	116	NA	163.406943427	0	0.64	1.84	1	149.264580498	149.311122545	"5"	959.48244581	953.053047919	1.5	0.1
0.01	1	0.0174962789999995	1	116	NA	163.406943427	0	0.64	1.84	1	149.548545092	149.566041371	"5"	959.48244581	953.053047919	1.5	0.1
0.01	1	0.0385867249999592	1	116	NA	163.406943427	0	0.64	1.84	1	149.798867052	149.837453777	"5"	959.48244581	953.053047919	1.5	0.1
0.01	1	0.0432089909999718	1	116	NA	163.406943427	0	0.64	1.84	1	150.066004057	150.109213048	"5"	959.48244581	953.053047919	1.5	0.1
0.01	1	0.0644137940000178	1	116	NA	163.406943427	0	0.64	1.84	1	150.349687822	150.414101616	"5"	959.48244581	953.053047919	1.5	0.1
0.01	1	0.0428933649999976	1	116	NA	163.406943427	0	0.64	1.84	1	150.650343367	150.693236732	"5"	959.48244581	953.053047919	1.5	0.1
0.01	1	0.0337064029999965	1	116	NA	163.406943427	0	0.64	1.84	1	150.917372459	150.951078862	"5"	959.48244581	953.053047919	1.5	0.1
0.01	1	0.0863275020000174	1	116	NA	163.406943427	0	0.64	1.84	1	151.184494889	151.270822391	"5"	959.48244581	953.053047919	1.5	0.1
0.01	1	0.0644621380000103	1	116	NA	163.406943427	0	0.64	1.84	1	151.501724219	151.566186357	"5"	959.48244581	953.053047919	1.5	0.1
0.01	1	0.0676000579999823	1	116	NA	163.406943427	0	0.64	1.84	1	151.802221162	151.86982122	"5"	959.48244581	953.053047919	1.5	0.1
0.01	1	0.0556896530000017	1	116	NA	163.406943427	0	0.64	1.84	1	152.102852937	152.15854259	"5"	959.48244581	953.053047919	1.5	0.1
0.01	1	0.0207076639999855	1	116	NA	163.406943427	0	0.64	1.84	1	152.386458164	152.407165828	"5"	959.48244581	953.053047919	1.5	0.1
0.01	1	0.0499194469999793	1	116	NA	163.406943427	0	0.64	1.84	1	152.636979279	152.686898726	"5"	959.48244581	953.053047919	1.5	0.1
0.01	1	0.0294897969999965	1	116	NA	163.406943427	0	0.64	1.84	1	152.92071375	152.950203547	"5"	959.48244581	953.053047919	1.5	0.1
0.01	1	0.00390499799999589	1	116	NA	163.406943427	0	0.64	1.84	1	153.187784802	153.1916898	"5"	959.48244581	953.053047919	1.5	0.1
0.01	1	0.0109332600000016	1	116	NA	163.406943427	0	0.64	1.84	1	153.421611482	153.432544742	"5"	959.48244581	953.053047919	1.5	0.1
0.01	1	0.0625229089999948	1	116	NA	163.406943427	0	0.64	1.84	1	153.655234079	153.717756988	"5"	959.48244581	953.053047919	1.5	0.1
0.01	1	0.00241921499997488	1	116	NA	163.406943427	0	0.64	1.84	1	153.955791972	153.958211187	"5"	959.48244581	953.053047919	1.5	0.1
0.01	1	0.00454563499999949	1	116	NA	163.406943427	0	0.64	1.84	1	154.189481972	154.194027607	"5"	959.48244581	953.053047919	1.5	0.1
0.01	1	0.198552108000001	1	116	NA	163.406943427	0	0.64	1.84	1	154.423286712	154.62183882	"5"	959.48244581	953.053047919	1.5	0.1
0.01	1	0.00700762900004293	1	116	NA	163.406943427	0	0.64	1.84	1	154.857332417	154.864340046	"5"	959.48244581	953.053047919	1.5	0.1
0.01	1	0.00424367800002301	1	116	NA	163.406943427	0	0.64	1.84	1	155.091074251	155.095317929	"5"	959.48244581	953.053047919	1.5	0.1
0.01	1	0.00329034200001388	1	116	NA	163.406943427	0	0.64	1.84	1	155.32478645	155.328076792	"5"	959.48244581	953.053047919	1.5	0.1
0.01	1	0.00242039999994859	1	116	NA	163.406943427	0	0.64	1.84	1	155.55843654	155.56085694	"5"	959.48244581	953.053047919	1.5	0.1
0.01	1	0.00204892700003256	1	116	NA	163.406943427	0	0.64	1.84	1	155.792200044	155.794248971	"5"	959.48244581	953.053047919	1.5	0.1
0.01	1	0.00213069600005156	1	116	NA	163.406943427	0	0.64	1.84	1	156.025989965	156.028120661	"5"	959.48244581	953.053047919	1.5	0.1
0.01	1	0.00209922100003723	1	116	NA	163.406943427	0	0.64	1.84	1	156.259657977	156.261757198	"5"	959.48244581	953.053047919	1.5	0.1
0.01	1	0.00259699700001192	1	116	NA	163.406943427	0	0.64	1.84	1	156.493401976	156.495998973	"5"	959.48244581	953.053047919	1.5	0.1
0.01	1	0.00392284399998744	1	116	NA	163.406943427	0	0.64	1.84	1	156.727091194	156.731014038	"5"	959.48244581	953.053047919	1.5	0.1
0.01	1	0.00262276999995947	1	116	NA	163.406943427	0	0.64	1.84	1	156.960887722	156.963510492	"5"	959.48244581	953.053047919	1.5	0.1
0.01	1	0.00200903499995775	1	116	NA	163.406943427	0	0.64	1.84	1	157.194619166	157.196628201	"5"	959.48244581	953.053047919	1.5	0.1
0.01	1	0.00461985999999115	1	116	NA	163.406943427	0	0.64	1.84	1	157.428268987	157.432888847	"5"	959.48244581	953.053047919	1.5	0.1
0.01	1	0.00376741700000593	1	116	NA	163.406943427	0	0.64	1.84	1	157.662010837	157.665778254	"5"	959.48244581	953.053047919	1.5	0.1
0.01	1	0.00370494399999188	1	116	NA	163.406943427	0	0.64	1.84	1	157.895747444	157.899452388	"5"	959.48244581	953.053047919	1.5	0.1
0.01	1	0.100909394999974	1	116	NA	163.406943427	0	0.64	1.84	1	158.129461559	158.230370954	"5"	959.48244581	953.053047919	1.5	0.1
0.01	1	0.00206182599998783	1	116	NA	163.406943427	0	0.64	1.84	1	158.463352592	158.465414418	"5"	959.48244581	953.053047919	1.5	0.1
0.01	1	0.00216129399996134	1	116	NA	163.406943427	0	0.64	1.84	1	158.697130087	158.699291381	"5"	959.48244581	953.053047919	1.5	0.1
0.01	1	0.00391893299996582	1	116	NA	163.406943427	0	0.64	1.84	1	158.930878689	158.934797622	"5"	959.48244581	953.053047919	1.5	0.1
0.01	1	0.00220496200000753	1	116	NA	163.406943427	0	0.64	1.84	1	159.164557455	159.166762417	"5"	959.48244581	953.053047919	1.5	0.1
0.01	1	0.00804619799998818	1	116	NA	163.406943427	0	0.64	1.84	1	159.398315602	159.4063618	"5"	959.48244581	953.053047919	1.5	0.1
0.01	1	0.0862597110000252	1	116	NA	163.406943427	0	0.64	1.84	1	159.632025217	159.718284928	"5"	959.48244581	953.053047919	1.5	0.1
0.01	1	0.0567241040000113	1	116	NA	163.406943427	0	0.64	1.84	1	159.94913342	160.005857524	"5"	959.48244581	953.053047919	1.5	0.1
0.01	1	0.0141313819999596	1	116	NA	163.406943427	0	0.64	1.84	1	160.233042835	160.247174217	"5"	959.48244581	953.053047919	1.5	0.1
0.01	1	0.010971168000026	1	116	NA	163.406943427	0	0.64	1.84	1	160.483536682	160.49450785	"5"	959.48244581	953.053047919	1.5	0.1
0.01	1	0.161843543999964	1	116	NA	163.406943427	0	0.64	1.84	1	160.717117024	160.878960568	"5"	959.48244581	953.053047919	1.5	0.1
0.01	1	0.0340540330000181	1	116	NA	163.406943427	0	0.64	1.84	1	161.101046517	161.13510055	"5"	959.48244581	953.053047919	1.5	0.1
0.01	1	0.0224242930000287	1	116	NA	163.406943427	0	0.64	1.84	1	161.368224837	161.39064913	"5"	959.48244581	953.053047919	1.5	0.1
0.01	1	0.0433754840000233	1	116	NA	163.406943427	0	0.64	1.84	1	161.618616647	161.661992131	"5"	959.48244581	953.053047919	1.5	0.1
0.01	1	0.0635755110000105	1	116	NA	163.406943427	0	0.64	1.84	1	161.885839302	161.949414813	"5"	959.48244581	953.053047919	1.5	0.1
0.01	1	0.00206537900004378	1	116	NA	163.406943427	0	0.64	1.84	1	162.186324661	162.18839004	"5"	959.48244581	953.053047919	1.5	0.1
0.01	1	0.00235769799996888	1	116	NA	163.406943427	0	0.64	1.84	1	162.420056796	162.422414494	"5"	959.48244581	953.053047919	1.5	0.1
0.01	1	0.00425052599996434	1	116	NA	163.406943427	0	0.64	1.84	1	162.653842258	162.658092784	"5"	959.48244581	953.053047919	1.5	0.1
0.01	1	0.00201561000000083	1	116	NA	163.406943427	0	0.64	1.84	1	162.8874707	162.88948631	"5"	959.48244581	953.053047919	1.5	0.1
0.01	1	0.0020223699999633	1	116	NA	163.406943427	0	0.64	1.84	1	163.121227902	163.123250272	"5"	959.48244581	953.053047919	1.5	0.1
0.01	1	0.0505898650000063	2	116	NA	163.406943427	0	0.64	1.84	1	163.354832657	163.405422522	"5"	959.48244581	953.053047919	1.5	0.1
0.01	1	0.499548231999995	1	118	NA	174.318835897	0	0.32	2.16	1	165.458495367	165.958043599	"6"	959.48244581	953.053047919	1.5	0.1
0.01	1	0.00208676199997626	1	118	NA	174.318835897	0	0.32	2.16	1	166.193084338	166.1951711	"6"	959.48244581	953.053047919	1.5	0.1
0.01	1	0.140251483999975	1	118	NA	174.318835897	0	0.32	2.16	1	166.426820519	166.567072003	"6"	959.48244581	953.053047919	1.5	0.1
0.01	1	0.00393691299996135	1	118	NA	174.318835897	0	0.32	2.16	1	166.793973429	166.797910342	"6"	959.48244581	953.053047919	1.5	0.1
0.01	1	0.00462468700004592	1	118	NA	174.318835897	0	0.32	2.16	1	167.027840012	167.032464699	"6"	959.48244581	953.053047919	1.5	0.1
0.01	1	0.00408788200002164	1	118	NA	174.318835897	0	0.32	2.16	1	167.261547424	167.265635306	"6"	959.48244581	953.053047919	1.5	0.1
0.01	1	0.111240105000036	1	118	NA	174.318835897	0	0.32	2.16	1	167.495222737	167.606462842	"6"	959.48244581	953.053047919	1.5	0.1
0.01	1	0.00251846700001579	1	118	NA	174.318835897	0	0.32	2.16	1	167.829214852	167.831733319	"6"	959.48244581	953.053047919	1.5	0.1
0.01	1	0.00205412400003979	1	118	NA	174.318835897	0	0.32	2.16	1	168.062767887	168.064822011	"6"	959.48244581	953.053047919	1.5	0.1
0.01	1	0.00362419900000077	1	118	NA	174.318835897	0	0.32	2.16	1	168.296647857	168.300272056	"6"	959.48244581	953.053047919	1.5	0.1
0.01	1	0.00380651000000398	1	118	NA	174.318835897	0	0.32	2.16	1	168.530289152	168.534095662	"6"	959.48244581	953.053047919	1.5	0.1
0.01	1	0.00365814299999556	1	118	NA	174.318835897	0	0.32	2.16	1	168.764080267	168.76773841	"6"	959.48244581	953.053047919	1.5	0.1
0.01	1	0.00389721199996984	1	118	NA	174.318835897	0	0.32	2.16	1	168.997751542	169.001648754	"6"	959.48244581	953.053047919	1.5	0.1
0.01	1	0.00449182500000234	1	118	NA	174.318835897	0	0.32	2.16	1	169.231488737	169.235980562	"6"	959.48244581	953.053047919	1.5	0.1
0.01	1	0.00367379700003312	1	118	NA	174.318835897	0	0.32	2.16	1	169.465283827	169.468957624	"6"	959.48244581	953.053047919	1.5	0.1
0.01	1	0.0044933570000012	1	118	NA	174.318835897	0	0.32	2.16	1	169.698996542	169.703489899	"6"	959.48244581	953.053047919	1.5	0.1
0.01	1	0.0037644569999884	1	118	NA	174.318835897	0	0.32	2.16	1	169.932626177	169.936390634	"6"	959.48244581	953.053047919	1.5	0.1
0.01	1	0.00449561699997503	1	118	NA	174.318835897	0	0.32	2.16	1	170.166587967	170.171083584	"6"	959.48244581	953.053047919	1.5	0.1
0.01	1	0.00369464699997479	1	118	NA	174.318835897	0	0.32	2.16	1	170.400161287	170.403855934	"6"	959.48244581	953.053047919	1.5	0.1
0.01	1	0.00381805899996834	1	118	NA	174.318835897	0	0.32	2.16	1	170.633897017	170.637715076	"6"	959.48244581	953.053047919	1.5	0.1
0.01	1	0.129764813000008	1	118	NA	174.318835897	0	0.32	2.16	1	170.867675815	170.997440628	"6"	959.48244581	953.053047919	1.5	0.1
0.01	1	0.00302020599997377	1	118	NA	174.318835897	0	0.32	2.16	1	171.234789568	171.237809774	"6"	959.48244581	953.053047919	1.5	0.1
0.01	1	0.00954555300000948	1	118	NA	174.318835897	0	0.32	2.16	1	171.468613179	171.478158732	"6"	959.48244581	953.053047919	1.5	0.1
0.01	1	0.015643295000018	1	118	NA	174.318835897	0	0.32	2.16	1	171.702318142	171.717961437	"6"	959.48244581	953.053047919	1.5	0.1
0.01	1	0.00807582099997717	1	118	NA	174.318835897	0	0.32	2.16	1	171.952891867	171.960967688	"6"	959.48244581	953.053047919	1.5	0.1
0.01	1	0.00272508099999413	1	118	NA	174.318835897	0	0.32	2.16	1	172.186517354	172.189242435	"6"	959.48244581	953.053047919	1.5	0.1
0.01	1	0.00225057899996273	1	118	NA	174.318835897	0	0.32	2.16	1	172.420192618	172.422443197	"6"	959.48244581	953.053047919	1.5	0.1
0.01	1	0.00206682900000033	1	118	NA	174.318835897	0	0.32	2.16	1	172.653948639	172.656015468	"6"	959.48244581	953.053047919	1.5	0.1
0.01	1	0.00425588800004562	1	118	NA	174.318835897	0	0.32	2.16	1	172.887576394	172.891832282	"6"	959.48244581	953.053047919	1.5	0.1
0.01	1	0.00369525100001056	1	118	NA	174.318835897	0	0.32	2.16	1	173.121416787	173.125112038	"6"	959.48244581	953.053047919	1.5	0.1
0.01	1	0.00450208000000885	1	118	NA	174.318835897	0	0.32	2.16	1	173.355093742	173.359595822	"6"	959.48244581	953.053047919	1.5	0.1
0.01	1	0.00258611500004235	1	118	NA	174.318835897	0	0.32	2.16	1	173.588883994	173.591470109	"6"	959.48244581	953.053047919	1.5	0.1
0.01	1	0.494757524000022	2	118	NA	174.318835897	0	0.32	2.16	1	173.822556044	174.317313568	"6"	959.48244581	953.053047919	1.5	0.1
0.01	1	0.453862135000008	1	87	NA	191.624690528	0	0.52	2.68	1	176.360167092	176.814029227	"7"	959.48244581	953.053047919	1.5	0.1
0.01	1	0.00240057899998192	1	87	NA	191.624690528	0	0.52	2.68	1	177.044529196	177.046929775	"7"	959.48244581	953.053047919	1.5	0.1
0.01	1	0.151980208999987	1	87	NA	191.624690528	0	0.52	2.68	1	177.278335342	177.430315551	"7"	959.48244581	953.053047919	1.5	0.1
0.01	1	0.0405969400000004	1	87	NA	191.624690528	0	0.52	2.68	1	177.662298187	177.702895127	"7"	959.48244581	953.053047919	1.5	0.1
0.01	1	0.661541861999979	1	87	NA	191.624690528	0	0.52	2.68	1	177.929472412	178.591014274	"7"	959.48244581	953.053047919	1.5	0.1
0.01	1	0.0568721369999707	1	87	NA	191.624690528	0	0.52	2.68	1	178.814249067	178.871121204	"7"	959.48244581	953.053047919	1.5	0.1
0.01	1	0.228724892999992	1	87	NA	191.624690528	0	0.52	2.68	1	179.098051812	179.326776705	"7"	959.48244581	953.053047919	1.5	0.1
0.01	1	0.073985968000045	1	87	NA	191.624690528	0	0.52	2.68	1	179.548827554	179.622813522	"7"	959.48244581	953.053047919	1.5	0.1
0.01	1	0.0444113539999762	1	87	NA	191.624690528	0	0.52	2.68	1	179.849317972	179.893729326	"7"	959.48244581	953.053047919	1.5	0.1
0.01	1	0.00384934099997736	1	87	NA	191.624690528	0	0.52	2.68	1	180.116427117	180.120276458	"7"	959.48244581	953.053047919	1.5	0.1
0.01	1	0.00199552399999448	1	87	NA	191.624690528	0	0.52	2.68	1	180.350233868	180.352229392	"7"	959.48244581	953.053047919	1.5	0.1
0.01	1	0.00442467199997054	1	87	NA	191.624690528	0	0.52	2.68	1	180.583926437	180.588351109	"7"	959.48244581	953.053047919	1.5	0.1
0.01	1	0.0364656080000145	1	87	NA	191.624690528	0	0.52	2.68	1	180.817677139	180.854142747	"7"	959.48244581	953.053047919	1.5	0.1
0.01	1	0.0892438480000237	1	87	NA	191.624690528	0	0.52	2.68	1	181.084783049	181.174026897	"7"	959.48244581	953.053047919	1.5	0.1
0.01	1	0.0283789819999924	1	87	NA	191.624690528	0	0.52	2.68	1	181.401918389	181.430297371	"7"	959.48244581	953.053047919	1.5	0.1
0.01	1	0.00391090099998337	1	87	NA	191.624690528	0	0.52	2.68	1	181.652322567	181.656233468	"7"	959.48244581	953.053047919	1.5	0.1
0.01	1	0.00380340600003137	1	87	NA	191.624690528	0	0.52	2.68	1	181.886115042	181.889918448	"7"	959.48244581	953.053047919	1.5	0.1
0.01	1	0.253989475000083	1	87	NA	191.624690528	0	0.52	2.68	1	182.119818672	182.373808147	"7"	959.48244581	953.053047919	1.5	0.1
0.01	1	0.0110123689999	1	87	NA	191.624690528	0	0.52	2.68	1	182.603985021	182.61499739	"7"	959.48244581	953.053047919	1.5	0.1
0.01	1	0.00307052000005115	1	87	NA	191.624690528	0	0.52	2.68	1	182.854384244	182.857454764	"7"	959.48244581	953.053047919	1.5	0.1
0.01	1	0.00272277900000972	1	87	NA	191.624690528	0	0.52	2.68	1	183.088079478	183.090802257	"7"	959.48244581	953.053047919	1.5	0.1
0.01	1	0.0114689179999914	1	87	NA	191.624690528	0	0.52	2.68	1	183.321831802	183.33330072	"7"	959.48244581	953.053047919	1.5	0.1
0.01	1	0.0430566180000369	1	87	NA	191.624690528	0	0.52	2.68	1	183.555543968	183.598600586	"7"	959.48244581	953.053047919	1.5	0.1
0.01	1	0.0315926350000382	1	87	NA	191.624690528	0	0.52	2.68	1	183.822659667	183.854252302	"7"	959.48244581	953.053047919	1.5	0.1
0.01	1	0.0132592589999376	1	87	NA	191.624690528	0	0.52	2.68	1	184.089825277	184.103084536	"7"	959.48244581	953.053047919	1.5	0.1
0.01	1	0.0427609509999911	1	87	NA	191.624690528	0	0.52	2.68	1	184.340190169	184.38295112	"7"	959.48244581	953.053047919	1.5	0.1
0.01	1	0.0468683959999225	1	87	NA	191.624690528	0	0.52	2.68	1	184.607299532	184.654167928	"7"	959.48244581	953.053047919	1.5	0.1
0.01	1	0.00396207300002516	1	87	NA	191.624690528	0	0.52	2.68	1	184.891170717	184.89513279	"7"	959.48244581	953.053047919	1.5	0.1
0.01	1	0.00267229099995347	1	87	NA	191.624690528	0	0.52	2.68	1	185.124948392	185.127620683	"7"	959.48244581	953.053047919	1.5	0.1
0.01	1	0.00343257600002289	1	87	NA	191.624690528	0	0.52	2.68	1	185.358597714	185.36203029	"7"	959.48244581	953.053047919	1.5	0.1
0.01	1	0.0150972469999715	1	87	NA	191.624690528	0	0.52	2.68	1	185.592343794	185.607441041	"7"	959.48244581	953.053047919	1.5	0.1
0.01	1	0.00339760400004252	1	87	NA	191.624690528	0	0.52	2.68	1	185.842705644	185.846103248	"7"	959.48244581	953.053047919	1.5	0.1
0.01	1	0.00388149899993095	1	87	NA	191.624690528	0	0.52	2.68	1	186.076462897	186.080344396	"7"	959.48244581	953.053047919	1.5	0.1
0.01	1	0.0322361599999113	1	87	NA	191.624690528	0	0.52	2.68	1	186.310172194	186.342408354	"7"	959.48244581	953.053047919	1.5	0.1
0.01	1	0.0294620530000884	1	87	NA	191.624690528	0	0.52	2.68	1	186.577325902	186.606787955	"7"	959.48244581	953.053047919	1.5	0.1
0.01	1	0.0174754629999825	1	87	NA	191.624690528	0	0.52	2.68	1	186.844526447	186.86200191	"7"	959.48244581	953.053047919	1.5	0.1
0.01	1	0.00991000700003042	1	87	NA	191.624690528	0	0.52	2.68	1	187.094907317	187.104817324	"7"	959.48244581	953.053047919	1.5	0.1
0.01	1	0.0368711030000668	1	87	NA	191.624690528	0	0.52	2.68	1	187.328549102	187.365420205	"7"	959.48244581	953.053047919	1.5	0.1
0.01	1	0.00258609600007276	1	87	NA	191.624690528	0	0.52	2.68	1	187.595788534	187.59837463	"7"	959.48244581	953.053047919	1.5	0.1
0.01	1	0.0570041359999323	1	87	NA	191.624690528	0	0.52	2.68	1	187.829470404	187.88647454	"7"	959.48244581	953.053047919	1.5	0.1
0.01	1	0.0607225520000156	1	87	NA	191.624690528	0	0.52	2.68	1	188.113336032	188.174058584	"7"	959.48244581	953.053047919	1.5	0.1
0.01	1	0.088477328999943	1	87	NA	191.624690528	0	0.52	2.68	1	188.397094602	188.485571931	"7"	959.48244581	953.053047919	1.5	0.1
0.01	1	0.115853655000024	1	87	NA	191.624690528	0	0.52	2.68	1	188.714197792	188.830051447	"7"	959.48244581	953.053047919	1.5	0.1
0.01	1	0.0780403060000481	1	87	NA	191.624690528	0	0.52	2.68	1	189.064831182	189.142871488	"7"	959.48244581	953.053047919	1.5	0.1
0.01	1	0.0811596209999834	1	87	NA	191.624690528	0	0.52	2.68	1	189.365415589	189.44657521	"7"	959.48244581	953.053047919	1.5	0.1
0.01	1	0.0345041739999488	1	87	NA	191.624690528	0	0.52	2.68	1	189.682620997	189.717125171	"7"	959.48244581	953.053047919	1.5	0.1
0.01	1	0.0569424779999963	1	87	NA	191.624690528	0	0.52	2.68	1	189.949678112	190.00662059	"7"	959.48244581	953.053047919	1.5	0.1
0.01	1	0.0287743320000118	1	87	NA	191.624690528	0	0.52	2.68	1	190.233525799	190.262300131	"7"	959.48244581	953.053047919	1.5	0.1
0.01	1	0.0102444560000094	1	87	NA	191.624690528	0	0.52	2.68	1	190.483781426	190.494025882	"7"	959.48244581	953.053047919	1.5	0.1
0.01	1	0.00802531499994075	1	87	NA	191.624690528	0	0.52	2.68	1	190.717632605	190.72565792	"7"	959.48244581	953.053047919	1.5	0.1
0.01	1	0.00264836300004845	1	87	NA	191.624690528	0	0.52	2.68	1	190.951271418	190.953919781	"7"	959.48244581	953.053047919	1.5	0.1
0.01	1	0.00397394300000542	1	87	NA	191.624690528	0	0.52	2.68	1	191.185075457	191.1890494	"7"	959.48244581	953.053047919	1.5	0.1
0.01	1	0.204371545999948	2	87	NA	191.624690528	0	0.52	2.68	1	191.418749697	191.623121243	"7"	959.48244581	953.053047919	1.5	0.1
0.01	1	2.14950960299996	1	6	197.381799037	NA	1	0	2.68	1	193.672633147	195.82214275	"8"	959.48244581	953.053047919	1.5	0.1
0.01	1	0.0342711879999342	1	6	197.381799037	NA	1	0	2.68	1	196.060024712	196.0942959	"8"	959.48244581	953.053047919	1.5	0.1
0.01	1	0.0553467959999807	1	6	197.381799037	NA	1	0	2.68	1	196.327175657	196.382522453	"8"	959.48244581	953.053047919	1.5	0.1
0.01	1	0.0504792330000328	1	6	197.381799037	NA	1	0	2.68	1	196.611039472	196.661518705	"8"	959.48244581	953.053047919	1.5	0.1
0.01	1	0.0559486460000471	1	6	197.381799037	NA	1	0	2.68	1	196.894679722	196.950628368	"8"	959.48244581	953.053047919	1.5	0.1
0.01	1	0.091445320000048	1	6	197.381799037	NA	1	0	2.68	1	197.178534817	197.269980137	"8"	959.48244581	953.053047919	1.5	0.1
0.01	1	0.558167496999999	1	106	NA	213.735214583	0	0.44	3.12	1	199.432384202	199.990551699	"9"	959.48244581	953.053047919	1.5	0.1
0.01	1	0.308324900000002	1	106	NA	213.735214583	0	0.44	3.12	1	200.216917277	200.525242177	"9"	959.48244581	953.053047919	1.5	0.1
0.01	1	0.00458201000003555	1	106	NA	213.735214583	0	0.44	3.12	1	200.751243982	200.755825992	"9"	959.48244581	953.053047919	1.5	0.1
0.01	1	0.00390303900007893	1	106	NA	213.735214583	0	0.44	3.12	1	200.984883179	200.988786218	"9"	959.48244581	953.053047919	1.5	0.1
0.01	1	0.00209506500004863	1	106	NA	213.735214583	0	0.44	3.12	1	201.218706482	201.220801547	"9"	959.48244581	953.053047919	1.5	0.1
0.01	1	0.00959073299998181	1	106	NA	213.735214583	0	0.44	3.12	1	201.452458427	201.46204916	"9"	959.48244581	953.053047919	1.5	0.1
0.01	1	0.0156402909999542	1	106	NA	213.735214583	0	0.44	3.12	1	201.686102725	201.701743016	"9"	959.48244581	953.053047919	1.5	0.1
0.01	1	0.00724874699994871	1	106	NA	213.735214583	0	0.44	3.12	1	201.936555747	201.943804494	"9"	959.48244581	953.053047919	1.5	0.1
0.01	1	0.0356354510000756	1	106	NA	213.735214583	0	0.44	3.12	1	202.170292592	202.205928043	"9"	959.48244581	953.053047919	1.5	0.1
0.01	1	0.0255536879999454	1	106	NA	213.735214583	0	0.44	3.12	1	202.43741694	202.462970628	"9"	959.48244581	953.053047919	1.5	0.1
0.01	1	0.0389437100000123	1	106	NA	213.735214583	0	0.44	3.12	1	202.687734279	202.726677989	"9"	959.48244581	953.053047919	1.5	0.1
0.01	1	0.0443622599999571	1	106	NA	213.735214583	0	0.44	3.12	1	202.954935962	202.999298222	"9"	959.48244581	953.053047919	1.5	0.1
0.01	1	0.0483932839999852	1	106	NA	213.735214583	0	0.44	3.12	1	203.221953827	203.270347111	"9"	959.48244581	953.053047919	1.5	0.1
0.01	1	0.0283413639999708	1	106	NA	213.735214583	0	0.44	3.12	1	203.505721127	203.534062491	"9"	959.48244581	953.053047919	1.5	0.1
0.01	1	0.0585267149999709	1	106	NA	213.735214583	0	0.44	3.12	1	203.756277892	203.814804607	"9"	959.48244581	953.053047919	1.5	0.1
0.01	1	0.0707196170000088	1	106	NA	213.735214583	0	0.44	3.12	1	204.039964257	204.110683874	"9"	959.48244581	953.053047919	1.5	0.1
0.01	1	0.0659849920000397	1	106	NA	213.735214583	0	0.44	3.12	1	204.340566272	204.406551264	"9"	959.48244581	953.053047919	1.5	0.1
0.01	1	0.0299427029999606	1	106	NA	213.735214583	0	0.44	3.12	1	204.641080822	204.671023525	"9"	959.48244581	953.053047919	1.5	0.1
0.01	1	0.0413338780000458	1	106	NA	213.735214583	0	0.44	3.12	1	204.908180197	204.949514075	"9"	959.48244581	953.053047919	1.5	0.1
0.01	1	0.0396152009999469	1	106	NA	213.735214583	0	0.44	3.12	1	205.175274204	205.214889405	"9"	959.48244581	953.053047919	1.5	0.1
0.01	1	0.0280930860000126	1	106	NA	213.735214583	0	0.44	3.12	1	205.442368707	205.470461793	"9"	959.48244581	953.053047919	1.5	0.1
0.01	1	0.0410966529999541	1	106	NA	213.735214583	0	0.44	3.12	1	205.692720459	205.733817112	"9"	959.48244581	953.053047919	1.5	0.1
0.01	1	0.0469997680000915	1	106	NA	213.735214583	0	0.44	3.12	1	205.959944189	206.006943957	"9"	959.48244581	953.053047919	1.5	0.1
0.01	1	0.0180404179999414	1	106	NA	213.735214583	0	0.44	3.12	1	206.243713109	206.261753527	"9"	959.48244581	953.053047919	1.5	0.1
0.01	1	0.0726835910001	1	106	NA	213.735214583	0	0.44	3.12	1	206.494249117	206.566932708	"9"	959.48244581	953.053047919	1.5	0.1
0.01	1	0.0349778419999893	1	106	NA	213.735214583	0	0.44	3.12	1	206.794664392	206.829642234	"9"	959.48244581	953.053047919	1.5	0.1
0.01	1	0.0411715500000582	1	106	NA	213.735214583	0	0.44	3.12	1	207.061861292	207.103032842	"9"	959.48244581	953.053047919	1.5	0.1
0.01	1	0.0301809179999282	1	106	NA	213.735214583	0	0.44	3.12	1	207.328838607	207.359019525	"9"	959.48244581	953.053047919	1.5	0.1
0.01	1	0.0271483190000481	1	106	NA	213.735214583	0	0.44	3.12	1	207.595979329	207.623127648	"9"	959.48244581	953.053047919	1.5	0.1
0.01	1	0.0151511820000678	1	106	NA	213.735214583	0	0.44	3.12	1	207.846481939	207.861633121	"9"	959.48244581	953.053047919	1.5	0.1
0.01	1	0.0613517810000985	1	106	NA	213.735214583	0	0.44	3.12	1	208.096865817	208.158217598	"9"	959.48244581	953.053047919	1.5	0.1
0.01	1	0.105776581999976	1	106	NA	213.735214583	0	0.44	3.12	1	208.380654534	208.486431116	"9"	959.48244581	953.053047919	1.5	0.1
0.01	1	0.00456318400006239	1	106	NA	213.735214583	0	0.44	3.12	1	208.714570128	208.719133312	"9"	959.48244581	953.053047919	1.5	0.1
0.01	1	0.0338109340000301	1	106	NA	213.735214583	0	0.44	3.12	1	208.948351979	208.982162913	"9"	959.48244581	953.053047919	1.5	0.1
0.01	1	0.0554061299999375	1	106	NA	213.735214583	0	0.44	3.12	1	209.215444642	209.270850772	"9"	959.48244581	953.053047919	1.5	0.1
0.01	1	0.0839607379999734	1	106	NA	213.735214583	0	0.44	3.12	1	209.499208797	209.583169535	"9"	959.48244581	953.053047919	1.5	0.1
0.01	1	0.246533882999984	1	106	NA	213.735214583	0	0.44	3.12	1	209.816385254	210.062919137	"9"	959.48244581	953.053047919	1.5	0.1
0.01	1	0.298230876000048	1	106	NA	213.735214583	0	0.44	3.12	1	210.300702022	210.598932898	"9"	959.48244581	953.053047919	1.5	0.1
0.01	1	0.276180943999975	1	106	NA	213.735214583	0	0.44	3.12	1	210.834890384	211.111071328	"9"	959.48244581	953.053047919	1.5	0.1
0.01	1	0.238578232000009	1	106	NA	213.735214583	0	0.44	3.12	1	211.335710717	211.574288949	"9"	959.48244581	953.053047919	1.5	0.1
0.01	1	0.186531999999943	1	106	NA	213.735214583	0	0.44	3.12	1	211.803105787	211.989637787	"9"	959.48244581	953.053047919	1.5	0.1
0.01	1	0.210435714000027	1	106	NA	213.735214583	0	0.44	3.12	1	212.220512351	212.430948065	"9"	959.48244581	953.053047919	1.5	0.1
0.01	1	0.207122705000074	1	106	NA	213.735214583	0	0.44	3.12	1	212.654647782	212.861770487	"9"	959.48244581	953.053047919	1.5	0.1
0.01	1	0.134186985000042	1	106	NA	213.735214583	0	0.44	3.12	1	213.088612452	213.222799437	"9"	959.48244581	953.053047919	1.5	0.1
0.01	1	0.277734906999967	2	106	NA	213.735214583	0	0.44	3.12	1	213.455902017	213.733636924	"9"	959.48244581	953.053047919	1.5	0.1
0.01	1	1.08732674599992	1	21	223.742860392	NA	1	0	3.12	1	215.759792827	216.847119573	"10"	959.48244581	953.053047919	1.5	0.1
0.01	1	0.150894803000028	1	21	223.742860392	NA	1	0	3.12	1	217.078646001	217.229540804	"10"	959.48244581	953.053047919	1.5	0.1
0.01	1	0.176320519000001	1	21	223.742860392	NA	1	0	3.12	1	217.462596582	217.638917101	"10"	959.48244581	953.053047919	1.5	0.1
0.01	1	0.0944891390000748	1	21	223.742860392	NA	1	0	3.12	1	217.863361018	217.957850157	"10"	959.48244581	953.053047919	1.5	0.1
0.01	1	0.0893449029999829	1	21	223.742860392	NA	1	0	3.12	1	218.180587207	218.26993211	"10"	959.48244581	953.053047919	1.5	0.1
0.01	1	0.0929049009999972	1	21	223.742860392	NA	1	0	3.12	1	218.497702887	218.590607788	"10"	959.48244581	953.053047919	1.5	0.1
0.01	1	0.0961426670000947	1	21	223.742860392	NA	1	0	3.12	1	218.814947267	218.911089934	"10"	959.48244581	953.053047919	1.5	0.1
0.01	1	0.0568926189999956	1	21	223.742860392	NA	1	0	3.12	1	219.148783932	219.205676551	"10"	959.48244581	953.053047919	1.5	0.1
0.01	1	0.0770858839999846	1	21	223.742860392	NA	1	0	3.12	1	219.432667472	219.509753356	"10"	959.48244581	953.053047919	1.5	0.1
0.01	1	0.0963918379999313	1	21	223.742860392	NA	1	0	3.12	1	219.733026078	219.829417916	"10"	959.48244581	953.053047919	1.5	0.1
0.01	1	0.09813929500001	1	21	223.742860392	NA	1	0	3.12	1	220.066974838	220.165114133	"10"	959.48244581	953.053047919	1.5	0.1
0.01	1	0.0859122150000076	1	21	223.742860392	NA	1	0	3.12	1	220.400921002	220.486833217	"10"	959.48244581	953.053047919	1.5	0.1
0.01	1	0.13697645000002	1	21	223.742860392	NA	1	0	3.12	1	220.718172974	220.855149424	"10"	959.48244581	953.053047919	1.5	0.1
0.01	1	0.0962025819999326	1	21	223.742860392	NA	1	0	3.12	1	221.085355449	221.181558031	"10"	959.48244581	953.053047919	1.5	0.1
0.01	1	0.130104220000021	1	21	223.742860392	NA	1	0	3.12	1	221.419263502	221.549367722	"10"	959.48244581	953.053047919	1.5	0.1
0.01	1	0.115252672999986	1	21	223.742860392	NA	1	0	3.12	1	221.786499557	221.90175223	"10"	959.48244581	953.053047919	1.5	0.1
0.01	1	0.117738790000089	1	21	223.742860392	NA	1	0	3.12	1	222.137121827	222.254860617	"10"	959.48244581	953.053047919	1.5	0.1
0.01	1	0.0934016139999585	1	21	223.742860392	NA	1	0	3.12	1	222.487805747	222.581207361	"10"	959.48244581	953.053047919	1.5	0.1
0.01	1	0.128506440000024	1	21	223.742860392	NA	1	0	3.12	1	222.804925122	222.933431562	"10"	959.48244581	953.053047919	1.5	0.1
0.01	1	0.0985000289999789	1	21	223.742860392	NA	1	0	3.12	1	223.172270182	223.270770211	"10"	959.48244581	953.053047919	1.5	0.1
0.01	1	0.123926272000062	1	21	223.742860392	NA	1	0	3.12	1	223.506108077	223.630034349	"10"	959.48244581	953.053047919	1.5	0.1
0.01	1	0.470728853000082	1	19	233.025173549	NA	1	0	3.12	1	225.776526247	226.2472551	"11"	959.48244581	953.053047919	1.5	0.1
0.01	1	0.0153674429999455	1	19	233.025173549	NA	1	0	3.12	1	226.477787739	226.493155182	"11"	959.48244581	953.053047919	1.5	0.1
0.01	1	0.0785312220000378	1	19	233.025173549	NA	1	0	3.12	1	226.728234177	226.806765399	"11"	959.48244581	953.053047919	1.5	0.1
0.01	1	0.122163600000022	1	19	233.025173549	NA	1	0	3.12	1	227.028701829	227.150865429	"11"	959.48244581	953.053047919	1.5	0.1
0.01	1	0.170588394000106	1	19	233.025173549	NA	1	0	3.12	1	227.379351737	227.549940131	"11"	959.48244581	953.053047919	1.5	0.1
0.01	1	0.131138814999986	1	19	233.025173549	NA	1	0	3.12	1	227.779998882	227.911137697	"11"	959.48244581	953.053047919	1.5	0.1
0.01	1	0.154486572999986	1	19	233.025173549	NA	1	0	3.12	1	228.147213792	228.301700365	"11"	959.48244581	953.053047919	1.5	0.1
0.01	1	0.122660862999965	1	19	233.025173549	NA	1	0	3.12	1	228.531222249	228.653883112	"11"	959.48244581	953.053047919	1.5	0.1
0.01	1	0.155825267000068	1	19	233.025173549	NA	1	0	3.12	1	228.881925842	229.037751109	"11"	959.48244581	953.053047919	1.5	0.1
0.01	1	0.148381823000022	1	19	233.025173549	NA	1	0	3.12	1	229.265854737	229.41423656	"11"	959.48244581	953.053047919	1.5	0.1
0.01	1	0.1483498099999	1	19	233.025173549	NA	1	0	3.12	1	229.649777807	229.798127617	"11"	959.48244581	953.053047919	1.5	0.1
0.01	1	0.309090621999985	1	19	233.025173549	NA	1	0	3.12	1	230.033853657	230.342944279	"11"	959.48244581	953.053047919	1.5	0.1
0.01	1	0.125509745000045	1	19	233.025173549	NA	1	0	3.12	1	230.567939262	230.693449007	"11"	959.48244581	953.053047919	1.5	0.1
0.01	1	0.206818006999924	1	19	233.025173549	NA	1	0	3.12	1	230.918658127	231.125476134	"11"	959.48244581	953.053047919	1.5	0.1
0.01	1	0.125266565999937	1	19	233.025173549	NA	1	0	3.12	1	231.352615062	231.477881628	"11"	959.48244581	953.053047919	1.5	0.1
0.01	1	0.150170219000074	1	19	233.025173549	NA	1	0	3.12	1	231.703170937	231.853341156	"11"	959.48244581	953.053047919	1.5	0.1
0.01	1	0.119569533000004	1	19	233.025173549	NA	1	0	3.12	1	232.087349677	232.20691921	"11"	959.48244581	953.053047919	1.5	0.1
0.01	1	0.152348649000032	1	19	233.025173549	NA	1	0	3.12	1	232.437757327	232.590105976	"11"	959.48244581	953.053047919	1.5	0.1
0.01	1	0.088004837000085	1	19	233.025173549	NA	1	0	3.12	1	232.821843674	232.909848511	"11"	959.48244581	953.053047919	1.5	0.1
0.01	1	0.411561652000046	1	63	NA	240.138383853	0	0.17	3.29	1	235.058822767	235.470384419	"12"	959.48244581	953.053047919	1.5	0.1
0.01	1	0.00454411499993057	1	63	NA	240.138383853	0	0.17	3.29	1	235.710056777	235.714600892	"12"	959.48244581	953.053047919	1.5	0.1
0.01	1	0.00459291200002099	1	63	NA	240.138383853	0	0.17	3.29	1	235.943762867	235.948355779	"12"	959.48244581	953.053047919	1.5	0.1
0.01	1	0.0375721770000155	1	63	NA	240.138383853	0	0.17	3.29	1	236.177478612	236.215050789	"12"	959.48244581	953.053047919	1.5	0.1
0.01	1	0.00202557700004036	1	63	NA	240.138383853	0	0.17	3.29	1	236.444625864	236.446651441	"12"	959.48244581	953.053047919	1.5	0.1
0.01	1	0.00384819099997458	1	63	NA	240.138383853	0	0.17	3.29	1	236.678319869	236.68216806	"12"	959.48244581	953.053047919	1.5	0.1
0.01	1	0.00218827899993812	1	63	NA	240.138383853	0	0.17	3.29	1	236.911886291	236.91407457	"12"	959.48244581	953.053047919	1.5	0.1
0.01	1	0.00200121299997136	1	63	NA	240.138383853	0	0.17	3.29	1	237.145818795	237.147820008	"12"	959.48244581	953.053047919	1.5	0.1
0.01	1	0.0510216899999705	1	63	NA	240.138383853	0	0.17	3.29	1	237.379485234	237.430506924	"12"	959.48244581	953.053047919	1.5	0.1
0.01	1	0.0634434999999485	1	63	NA	240.138383853	0	0.17	3.29	1	237.663307447	237.726750947	"12"	959.48244581	953.053047919	1.5	0.1
0.01	1	0.0176422099999627	1	63	NA	240.138383853	0	0.17	3.29	1	237.963864302	237.981506512	"12"	959.48244581	953.053047919	1.5	0.1
0.01	1	0.064485004000062	1	63	NA	240.138383853	0	0.17	3.29	1	238.214222049	238.278707053	"12"	959.48244581	953.053047919	1.5	0.1
0.01	1	0.0663413009999658	1	63	NA	240.138383853	0	0.17	3.29	1	238.514787144	238.581128445	"12"	959.48244581	953.053047919	1.5	0.1
0.01	1	0.0702445629999602	1	63	NA	240.138383853	0	0.17	3.29	1	238.815212382	238.885456945	"12"	959.48244581	953.053047919	1.5	0.1
0.01	1	0.0831768430000466	1	63	NA	240.138383853	0	0.17	3.29	1	239.115685459	239.198862302	"12"	959.48244581	953.053047919	1.5	0.1
0.01	1	0.0779465790000131	1	63	NA	240.138383853	0	0.17	3.29	1	239.432935962	239.510882541	"12"	959.48244581	953.053047919	1.5	0.1
0.01	1	0.0799950910000007	1	63	NA	240.138383853	0	0.17	3.29	1	239.733443149	239.81343824	"12"	959.48244581	953.053047919	1.5	0.1
0.01	1	0.0863274250000359	2	63	NA	240.138383853	0	0.17	3.29	1	240.050521739	240.136849164	"12"	959.48244581	953.053047919	1.5	0.1
0.01	1	0.531245463999994	1	54	NA	248.631595158	0	0.17	3.46	1	242.187576252	242.718821716	"13"	959.48244581	953.053047919	1.5	0.1
0.01	1	0.203228396999975	1	54	NA	248.631595158	0	0.17	3.46	1	242.955512219	243.158740616	"13"	959.48244581	953.053047919	1.5	0.1
0.01	1	0.104021262999936	1	54	NA	248.631595158	0	0.17	3.46	1	243.389579404	243.493600667	"13"	959.48244581	953.053047919	1.5	0.1
0.01	1	0.09857272499994	1	54	NA	248.631595158	0	0.17	3.46	1	243.723391157	243.821963882	"13"	959.48244581	953.053047919	1.5	0.1
0.01	1	0.0774611730000743	1	54	NA	248.631595158	0	0.17	3.46	1	244.057403119	244.134864292	"13"	959.48244581	953.053047919	1.5	0.1
0.01	1	0.11140168999998	1	54	NA	248.631595158	0	0.17	3.46	1	244.357802177	244.469203867	"13"	959.48244581	953.053047919	1.5	0.1
0.01	1	0.131179474999954	1	54	NA	248.631595158	0	0.17	3.46	1	244.691774984	244.822954459	"13"	959.48244581	953.053047919	1.5	0.1
0.01	1	0.11493193299998	1	54	NA	248.631595158	0	0.17	3.46	1	245.059026989	245.173958922	"13"	959.48244581	953.053047919	1.5	0.1
0.01	1	0.0998332430000346	1	54	NA	248.631595158	0	0.17	3.46	1	245.409617637	245.50945088	"13"	959.48244581	953.053047919	1.5	0.1
0.01	1	0.125667638000095	1	54	NA	248.631595158	0	0.17	3.46	1	245.743458047	245.869125685	"13"	959.48244581	953.053047919	1.5	0.1
0.01	1	0.111174871000003	1	54	NA	248.631595158	0	0.17	3.46	1	246.094155237	246.205330108	"13"	959.48244581	953.053047919	1.5	0.1
0.01	1	0.122385512999927	1	54	NA	248.631595158	0	0.17	3.46	1	246.444754787	246.5671403	"13"	959.48244581	953.053047919	1.5	0.1
0.01	1	0.139718476999974	1	54	NA	248.631595158	0	0.17	3.46	1	246.795276649	246.934995126	"13"	959.48244581	953.053047919	1.5	0.1
0.01	1	0.148292863000052	1	54	NA	248.631595158	0	0.17	3.46	1	247.162733107	247.31102597	"13"	959.48244581	953.053047919	1.5	0.1
0.01	1	0.0997454170000083	1	54	NA	248.631595158	0	0.17	3.46	1	247.546545507	247.646290924	"13"	959.48244581	953.053047919	1.5	0.1
0.01	1	0.118317342000068	1	54	NA	248.631595158	0	0.17	3.46	1	247.880425909	247.998743251	"13"	959.48244581	953.053047919	1.5	0.1
0.01	1	0.094045403999985	1	54	NA	248.631595158	0	0.17	3.46	1	248.231102827	248.325148231	"13"	959.48244581	953.053047919	1.5	0.1
0.01	1	0.0818818760000113	2	54	NA	248.631595158	0	0.17	3.46	1	248.548178052	248.630059928	"13"	959.48244581	953.053047919	1.5	0.1
0.01	1	0.329762649999907	1	103	NA	267.982916776	0	0.5	3.96	1	250.685149284	251.014911934	"14"	959.48244581	953.053047919	1.5	0.1
0.01	1	0.0403714329999048	1	103	NA	267.982916776	0	0.5	3.96	1	251.252728362	251.293099795	"14"	959.48244581	953.053047919	1.5	0.1
0.01	1	0.0142232649999414	1	103	NA	267.982916776	0	0.5	3.96	1	251.519880438	251.534103703	"14"	959.48244581	953.053047919	1.5	0.1
0.01	1	0.00818460900006812	1	103	NA	267.982916776	0	0.5	3.96	1	251.770315547	251.778500156	"14"	959.48244581	953.053047919	1.5	0.1
0.01	1	0.0339982799999916	1	103	NA	267.982916776	0	0.5	3.96	1	252.004017379	252.038015659	"14"	959.48244581	953.053047919	1.5	0.1
0.01	1	0.0392768809999779	1	103	NA	267.982916776	0	0.5	3.96	1	252.271179232	252.310456113	"14"	959.48244581	953.053047919	1.5	0.1
0.01	1	0.034983699999998	1	103	NA	267.982916776	0	0.5	3.96	1	252.538284752	252.573268452	"14"	959.48244581	953.053047919	1.5	0.1
0.01	1	0.0247504310000295	1	103	NA	267.982916776	0	0.5	3.96	1	252.805323617	252.830074048	"14"	959.48244581	953.053047919	1.5	0.1
0.01	1	0.0862291509999977	1	103	NA	267.982916776	0	0.5	3.96	1	253.055737752	253.141966903	"14"	959.48244581	953.053047919	1.5	0.1
0.01	1	0.00993039500008308	1	103	NA	267.982916776	0	0.5	3.96	1	253.373008131	253.382938526	"14"	959.48244581	953.053047919	1.5	0.1
0.01	1	0.0319647779999741	1	103	NA	267.982916776	0	0.5	3.96	1	253.606703002	253.63866778	"14"	959.48244581	953.053047919	1.5	0.1
0.01	1	0.0206458580000799	1	103	NA	267.982916776	0	0.5	3.96	1	253.873773284	253.894419142	"14"	959.48244581	953.053047919	1.5	0.1
0.01	1	0.0344074849999743	1	103	NA	267.982916776	0	0.5	3.96	1	254.124298442	254.158705927	"14"	959.48244581	953.053047919	1.5	0.1
0.01	1	0.0466109750000214	1	103	NA	267.982916776	0	0.5	3.96	1	254.391416237	254.438027212	"14"	959.48244581	953.053047919	1.5	0.1
0.01	1	0.0423782859999164	1	103	NA	267.982916776	0	0.5	3.96	1	254.675257087	254.717635373	"14"	959.48244581	953.053047919	1.5	0.1
0.01	1	0.0488439120000521	1	103	NA	267.982916776	0	0.5	3.96	1	254.942380532	254.991224444	"14"	959.48244581	953.053047919	1.5	0.1
0.01	1	0.0448467139999593	1	103	NA	267.982916776	0	0.5	3.96	1	255.226116367	255.270963081	"14"	959.48244581	953.053047919	1.5	0.1
0.01	1	0.0575120769999558	1	103	NA	267.982916776	0	0.5	3.96	1	255.493248598	255.550760675	"14"	959.48244581	953.053047919	1.5	0.1
0.01	1	0.0540088039999773	1	103	NA	267.982916776	0	0.5	3.96	1	255.777065869	255.831074673	"14"	959.48244581	953.053047919	1.5	0.1
0.01	1	0.0581647440000097	1	103	NA	267.982916776	0	0.5	3.96	1	256.060955947	256.119120691	"14"	959.48244581	953.053047919	1.5	0.1
0.01	1	0.117138260000047	1	103	NA	267.982916776	0	0.5	3.96	1	256.344763607	256.461901867	"14"	959.48244581	953.053047919	1.5	0.1
0.01	1	0.0633722449999823	1	103	NA	267.982916776	0	0.5	3.96	1	256.695295342	256.758667587	"14"	959.48244581	953.053047919	1.5	0.1
0.01	1	0.0581552099999953	1	103	NA	267.982916776	0	0.5	3.96	1	256.995734197	257.053889407	"14"	959.48244581	953.053047919	1.5	0.1
0.01	1	0.10233155100002	1	103	NA	267.982916776	0	0.5	3.96	1	257.279545412	257.381876963	"14"	959.48244581	953.053047919	1.5	0.1
0.01	1	0.089051153000014	1	103	NA	267.982916776	0	0.5	3.96	1	257.613473939	257.702525092	"14"	959.48244581	953.053047919	1.5	0.1
0.01	1	0.0832686929999227	1	103	NA	267.982916776	0	0.5	3.96	1	257.930772158	258.014040851	"14"	959.48244581	953.053047919	1.5	0.1
0.01	1	0.0863472280000224	1	103	NA	267.982916776	0	0.5	3.96	1	258.247969151	258.334316379	"14"	959.48244581	953.053047919	1.5	0.1
0.01	1	0.0811619600000313	1	103	NA	267.982916776	0	0.5	3.96	1	258.565110302	258.646272262	"14"	959.48244581	953.053047919	1.5	0.1
0.01	1	0.10781613100005	1	103	NA	267.982916776	0	0.5	3.96	1	258.882307639	258.99012377	"14"	959.48244581	953.053047919	1.5	0.1
0.01	1	0.109176431000037	1	103	NA	267.982916776	0	0.5	3.96	1	259.216208207	259.325384638	"14"	959.48244581	953.053047919	1.5	0.1
0.01	1	0.0568078789999618	1	103	NA	267.982916776	0	0.5	3.96	1	259.550058397	259.606866276	"14"	959.48244581	953.053047919	1.5	0.1
0.01	1	0.132852938999918	1	103	NA	267.982916776	0	0.5	3.96	1	259.833933392	259.966786331	"14"	959.48244581	953.053047919	1.5	0.1
0.01	1	0.380835848000061	1	103	NA	267.982916776	0	0.5	3.96	1	260.201269022	260.58210487	"14"	959.48244581	953.053047919	1.5	0.1
0.01	1	0.37938052800007	1	103	NA	267.982916776	0	0.5	3.96	1	260.818905459	261.198285987	"14"	959.48244581	953.053047919	1.5	0.1
0.01	1	0.209016758999951	1	103	NA	267.982916776	0	0.5	3.96	1	261.436607132	261.645623891	"14"	959.48244581	953.053047919	1.5	0.1
0.01	1	0.176184772000056	1	103	NA	267.982916776	0	0.5	3.96	1	261.870722034	262.046906806	"14"	959.48244581	953.053047919	1.5	0.1
0.01	1	0.159047083000019	1	103	NA	267.982916776	0	0.5	3.96	1	262.271253327	262.43030041	"14"	959.48244581	953.053047919	1.5	0.1
0.01	1	0.143636492000041	1	103	NA	267.982916776	0	0.5	3.96	1	262.655250097	262.798886589	"14"	959.48244581	953.053047919	1.5	0.1
0.01	1	0.119423647000076	1	103	NA	267.982916776	0	0.5	3.96	1	263.022709867	263.142133514	"14"	959.48244581	953.053047919	1.5	0.1
0.01	1	0.153870875999928	1	103	NA	267.982916776	0	0.5	3.96	1	263.373174431	263.527045307	"14"	959.48244581	953.053047919	1.5	0.1
0.01	1	0.104243405000034	1	103	NA	267.982916776	0	0.5	3.96	1	263.757224679	263.861468084	"14"	959.48244581	953.053047919	1.5	0.1
0.01	1	0.131284806999929	1	103	NA	267.982916776	0	0.5	3.96	1	264.091085069	264.222369876	"14"	959.48244581	953.053047919	1.5	0.1
0.01	1	0.164578019000032	1	103	NA	267.982916776	0	0.5	3.96	1	264.458368272	264.622946291	"14"	959.48244581	953.053047919	1.5	0.1
0.01	1	0.115636482000014	1	103	NA	267.982916776	0	0.5	3.96	1	264.859024869	264.974661351	"14"	959.48244581	953.053047919	1.5	0.1
0.01	1	0.109134704999974	1	103	NA	267.982916776	0	0.5	3.96	1	265.209584811	265.318719516	"14"	959.48244581	953.053047919	1.5	0.1
0.01	1	0.191301874000033	1	103	NA	267.982916776	0	0.5	3.96	1	265.543526562	265.734828436	"14"	959.48244581	953.053047919	1.5	0.1
0.01	1	0.124746081000012	1	103	NA	267.982916776	0	0.5	3.96	1	265.961090622	266.085836703	"14"	959.48244581	953.053047919	1.5	0.1
0.01	1	0.119641022999986	1	103	NA	267.982916776	0	0.5	3.96	1	266.311401482	266.431042505	"14"	959.48244581	953.053047919	1.5	0.1
0.01	1	0.135029057999986	1	103	NA	267.982916776	0	0.5	3.96	1	266.662096789	266.797125847	"14"	959.48244581	953.053047919	1.5	0.1
0.01	1	0.144450700999982	1	103	NA	267.982916776	0	0.5	3.96	1	267.029259987	267.173710688	"14"	959.48244581	953.053047919	1.5	0.1
0.01	1	0.584717934000082	2	103	NA	267.982916776	0	0.5	3.96	1	267.396649574	267.981367508	"14"	959.48244581	953.053047919	1.5	0.1
0.01	1	0.883869581999988	1	120	NA	286.424049035	0	0.44	4.4	1	270.034431444	270.918301026	"15"	959.48244581	953.053047919	1.5	0.1
0.01	1	0.00709364199997253	1	120	NA	286.424049035	0	0.44	4.4	1	271.153052072	271.160145714	"15"	959.48244581	953.053047919	1.5	0.1
0.01	1	0.0842715150000686	1	120	NA	286.424049035	0	0.44	4.4	1	271.386703841	271.470975356	"15"	959.48244581	953.053047919	1.5	0.1
0.01	1	0.0376540330000807	1	120	NA	286.424049035	0	0.44	4.4	1	271.703796517	271.74145055	"15"	959.48244581	953.053047919	1.5	0.1
0.01	1	0.0837392010000713	1	120	NA	286.424049035	0	0.44	4.4	1	271.970993487	272.054732688	"15"	959.48244581	953.053047919	1.5	0.1
0.01	1	0.0299219739999899	1	120	NA	286.424049035	0	0.44	4.4	1	272.288154672	272.318076646	"15"	959.48244581	953.053047919	1.5	0.1
0.01	1	0.0583905889999414	1	120	NA	286.424049035	0	0.44	4.4	1	272.555285857	272.613676446	"15"	959.48244581	953.053047919	1.5	0.1
0.01	1	0.0799041989999978	1	120	NA	286.424049035	0	0.44	4.4	1	272.839044122	272.918948321	"15"	959.48244581	953.053047919	1.5	0.1
0.01	1	0.105262696999944	1	120	NA	286.424049035	0	0.44	4.4	1	273.156402719	273.261665416	"15"	959.48244581	953.053047919	1.5	0.1
0.01	1	0.107624728000019	1	120	NA	286.424049035	0	0.44	4.4	1	273.490219314	273.597844042	"15"	959.48244581	953.053047919	1.5	0.1
0.01	1	0.0790619839999636	1	120	NA	286.424049035	0	0.44	4.4	1	273.824103012	273.903164996	"15"	959.48244581	953.053047919	1.5	0.1
0.01	1	0.13700384099991	1	120	NA	286.424049035	0	0.44	4.4	1	274.141277062	274.278280903	"15"	959.48244581	953.053047919	1.5	0.1
0.01	1	0.0816273519999413	1	120	NA	286.424049035	0	0.44	4.4	1	274.508588319	274.590215671	"15"	959.48244581	953.053047919	1.5	0.1
0.01	1	0.0754437929999767	1	120	NA	286.424049035	0	0.44	4.4	1	274.825780297	274.90122409	"15"	959.48244581	953.053047919	1.5	0.1
0.01	1	0.15170846400008	1	120	NA	286.424049035	0	0.44	4.4	1	275.126278449	275.277986913	"15"	959.48244581	953.053047919	1.5	0.1
0.01	1	0.0557284150000896	1	120	NA	286.424049035	0	0.44	4.4	1	275.510289522	275.566017937	"15"	959.48244581	953.053047919	1.5	0.1
0.01	1	0.107464372999971	1	120	NA	286.424049035	0	0.44	4.4	1	275.794122252	275.901586625	"15"	959.48244581	953.053047919	1.5	0.1
0.01	1	0.101451139000005	1	120	NA	286.424049035	0	0.44	4.4	1	276.128014217	276.229465356	"15"	959.48244581	953.053047919	1.5	0.1
0.01	1	0.0812985809999418	1	120	NA	286.424049035	0	0.44	4.4	1	276.461870617	276.543169198	"15"	959.48244581	953.053047919	1.5	0.1
0.01	1	0.12304058999996	1	120	NA	286.424049035	0	0.44	4.4	1	276.779113732	276.902154322	"15"	959.48244581	953.053047919	1.5	0.1
0.01	1	0.133489059999988	1	120	NA	286.424049035	0	0.44	4.4	1	277.129656885	277.263145945	"15"	959.48244581	953.053047919	1.5	0.1
0.01	1	0.101944670999956	1	120	NA	286.424049035	0	0.44	4.4	1	277.496963257	277.598907928	"15"	959.48244581	953.053047919	1.5	0.1
0.01	1	0.103829021000024	1	120	NA	286.424049035	0	0.44	4.4	1	277.830805872	277.934634893	"15"	959.48244581	953.053047919	1.5	0.1
0.01	1	0.128742837000004	1	120	NA	286.424049035	0	0.44	4.4	1	278.164731442	278.293474279	"15"	959.48244581	953.053047919	1.5	0.1
0.01	1	0.121447321000005	1	120	NA	286.424049035	0	0.44	4.4	1	278.531925582	278.653372903	"15"	959.48244581	953.053047919	1.5	0.1
0.01	1	0.0984800810000479	1	120	NA	286.424049035	0	0.44	4.4	1	278.882660127	278.981140208	"15"	959.48244581	953.053047919	1.5	0.1
0.01	1	0.102161326999976	1	120	NA	286.424049035	0	0.44	4.4	1	279.216484459	279.318645786	"15"	959.48244581	953.053047919	1.5	0.1
0.01	1	0.0954378850000239	1	120	NA	286.424049035	0	0.44	4.4	1	279.550331692	279.645769577	"15"	959.48244581	953.053047919	1.5	0.1
0.01	1	0.0898525889999746	1	120	NA	286.424049035	0	0.44	4.4	1	279.884292604	279.974145193	"15"	959.48244581	953.053047919	1.5	0.1
0.01	1	0.100419478000049	1	120	NA	286.424049035	0	0.44	4.4	1	280.201412162	280.30183164	"15"	959.48244581	953.053047919	1.5	0.1
0.01	1	0.127118361000043	1	120	NA	286.424049035	0	0.44	4.4	1	280.535407879	280.66252624	"15"	959.48244581	953.053047919	1.5	0.1
0.01	1	0.0957467680000263	1	120	NA	286.424049035	0	0.44	4.4	1	280.885913369	280.981660137	"15"	959.48244581	953.053047919	1.5	0.1
0.01	1	0.113723863000018	1	120	NA	286.424049035	0	0.44	4.4	1	281.219920177	281.33364404	"15"	959.48244581	953.053047919	1.5	0.1
0.01	1	0.116320144000042	1	120	NA	286.424049035	0	0.44	4.4	1	281.570443457	281.686763601	"15"	959.48244581	953.053047919	1.5	0.1
0.01	1	0.125654421000036	1	120	NA	286.424049035	0	0.44	4.4	1	281.92109063	282.046745051	"15"	959.48244581	953.053047919	1.5	0.1
0.01	1	0.111119585999973	1	120	NA	286.424049035	0	0.44	4.4	1	282.271664342	282.382783928	"15"	959.48244581	953.053047919	1.5	0.1
0.01	1	0.119946733999996	1	120	NA	286.424049035	0	0.44	4.4	1	282.605441129	282.725387863	"15"	959.48244581	953.053047919	1.5	0.1
0.01	1	0.130302740000047	1	120	NA	286.424049035	0	0.44	4.4	1	282.956091139	283.086393879	"15"	959.48244581	953.053047919	1.5	0.1
0.01	1	0.130394200000069	1	120	NA	286.424049035	0	0.44	4.4	1	283.323424639	283.453818839	"15"	959.48244581	953.053047919	1.5	0.1
0.01	1	0.236398798999971	1	120	NA	286.424049035	0	0.44	4.4	1	283.690684157	283.927082956	"15"	959.48244581	953.053047919	1.5	0.1
0.01	1	0.296661285000027	1	120	NA	286.424049035	0	0.44	4.4	1	284.158174164	284.454835449	"15"	959.48244581	953.053047919	1.5	0.1
0.01	1	0.226146813000014	1	120	NA	286.424049035	0	0.44	4.4	1	284.692325879	284.918472692	"15"	959.48244581	953.053047919	1.5	0.1
0.01	1	0.415953496999919	1	120	NA	286.424049035	0	0.44	4.4	1	285.143130062	285.559083559	"15"	959.48244581	953.053047919	1.5	0.1
0.01	1	0.0998686899999939	1	120	NA	286.424049035	0	0.44	4.4	1	285.794218632	285.894087322	"15"	959.48244581	953.053047919	1.5	0.1
0.01	1	0.294434723999984	2	120	NA	286.424049035	0	0.44	4.4	1	286.128090042	286.422524766	"15"	959.48244581	953.053047919	1.5	0.1
0.01	1	0.797288067000068	1	109	NA	309.575222353	0	0.5	4.9	1	288.465314539	289.262602606	"16"	959.48244581	953.053047919	1.5	0.1
0.01	1	0.0336846010000045	1	109	NA	309.575222353	0	0.5	4.9	1	289.500380697	289.534065298	"16"	959.48244581	953.053047919	1.5	0.1
0.01	1	0.0225150180000355	1	109	NA	309.575222353	0	0.5	4.9	1	289.767627584	289.790142602	"16"	959.48244581	953.053047919	1.5	0.1
0.01	1	0.0431172369999331	1	109	NA	309.575222353	0	0.5	4.9	1	290.018007994	290.061125231	"16"	959.48244581	953.053047919	1.5	0.1
0.01	1	0.0816478880000204	1	109	NA	309.575222353	0	0.5	4.9	1	290.285045352	290.36669324	"16"	959.48244581	953.053047919	1.5	0.1
0.01	1	0.0281355870000652	1	109	NA	309.575222353	0	0.5	4.9	1	290.602295787	290.630431374	"16"	959.48244581	953.053047919	1.5	0.1
0.01	1	0.0416650900000377	1	109	NA	309.575222353	0	0.5	4.9	1	290.852716377	290.894381467	"16"	959.48244581	953.053047919	1.5	0.1
0.01	1	0.0303616649999867	1	109	NA	309.575222353	0	0.5	4.9	1	291.119798462	291.150160127	"16"	959.48244581	953.053047919	1.5	0.1
0.01	1	0.0356846780000524	1	109	NA	309.575222353	0	0.5	4.9	1	291.386965677	291.422650355	"16"	959.48244581	953.053047919	1.5	0.1
0.01	1	0.0632526169999892	1	109	NA	309.575222353	0	0.5	4.9	1	291.654173437	291.717426054	"16"	959.48244581	953.053047919	1.5	0.1
0.01	1	0.010914329000002	1	109	NA	309.575222353	0	0.5	4.9	1	291.954611267	291.965525596	"16"	959.48244581	953.053047919	1.5	0.1
0.01	1	0.0410472319999826	1	109	NA	309.575222353	0	0.5	4.9	1	292.188335862	292.229383094	"16"	959.48244581	953.053047919	1.5	0.1
0.01	1	0.0616671000000224	1	109	NA	309.575222353	0	0.5	4.9	1	292.455446517	292.517113617	"16"	959.48244581	953.053047919	1.5	0.1
0.01	1	0.0431533629999876	1	109	NA	309.575222353	0	0.5	4.9	1	292.755909987	292.79906335	"16"	959.48244581	953.053047919	1.5	0.1
0.01	1	0.0479260349999322	1	109	NA	309.575222353	0	0.5	4.9	1	293.023020777	293.070946812	"16"	959.48244581	953.053047919	1.5	0.1
0.01	1	0.0509181080000189	1	109	NA	309.575222353	0	0.5	4.9	1	293.30698241	293.357900518	"16"	959.48244581	953.053047919	1.5	0.1
0.01	1	0.174465574999999	1	109	NA	309.575222353	0	0.5	4.9	1	293.590653722	293.765119297	"16"	959.48244581	953.053047919	1.5	0.1
0.01	1	0.157668383999976	1	109	NA	309.575222353	0	0.5	4.9	1	293.991415881	294.149084265	"16"	959.48244581	953.053047919	1.5	0.1
0.01	1	0.142900790999988	1	109	NA	309.575222353	0	0.5	4.9	1	294.375259729	294.51816052	"16"	959.48244581	953.053047919	1.5	0.1
0.01	1	0.168354309000051	1	109	NA	309.575222353	0	0.5	4.9	1	294.74253174	294.910886049	"16"	959.48244581	953.053047919	1.5	0.1
0.01	1	0.167509991999964	1	109	NA	309.575222353	0	0.5	4.9	1	295.143299692	295.310809684	"16"	959.48244581	953.053047919	1.5	0.1
0.01	1	0.182209982000018	1	109	NA	309.575222353	0	0.5	4.9	1	295.543988032	295.726198014	"16"	959.48244581	953.053047919	1.5	0.1
0.01	1	0.149888294999982	1	109	NA	309.575222353	0	0.5	4.9	1	295.961261872	296.111150167	"16"	959.48244581	953.053047919	1.5	0.1
0.01	1	0.182097693999935	1	109	NA	309.575222353	0	0.5	4.9	1	296.345275477	296.527373171	"16"	959.48244581	953.053047919	1.5	0.1
0.01	1	0.147010819000002	1	109	NA	309.575222353	0	0.5	4.9	1	296.762717851	296.90972867	"16"	959.48244581	953.053047919	1.5	0.1
0.01	1	0.170861917000025	1	109	NA	309.575222353	0	0.5	4.9	1	297.146593787	297.317455704	"16"	959.48244581	953.053047919	1.5	0.1
0.01	1	0.193956922000098	1	109	NA	309.575222353	0	0.5	4.9	1	297.547300932	297.741257854	"16"	959.48244581	953.053047919	1.5	0.1
0.01	1	0.145961102000001	1	109	NA	309.575222353	0	0.5	4.9	1	297.964716335	298.110677437	"16"	959.48244581	953.053047919	1.5	0.1
0.01	1	0.153340429999957	1	109	NA	309.575222353	0	0.5	4.9	1	298.348695159	298.502035589	"16"	959.48244581	953.053047919	1.5	0.1
0.01	1	0.144966541000031	1	109	NA	309.575222353	0	0.5	4.9	1	298.732697257	298.877663798	"16"	959.48244581	953.053047919	1.5	0.1
0.01	1	0.112557290000041	1	109	NA	309.575222353	0	0.5	4.9	1	299.116630298	299.229187588	"16"	959.48244581	953.053047919	1.5	0.1
0.01	1	0.163756415999956	1	109	NA	309.575222353	0	0.5	4.9	1	299.467115332	299.630871748	"16"	959.48244581	953.053047919	1.5	0.1
0.01	1	0.241641587000004	1	109	NA	309.575222353	0	0.5	4.9	1	299.867797727	300.109439314	"16"	959.48244581	953.053047919	1.5	0.1
0.01	1	0.326879477000034	1	109	NA	309.575222353	0	0.5	4.9	1	300.335511247	300.662390724	"16"	959.48244581	953.053047919	1.5	0.1
0.01	1	0.256774328000006	1	109	NA	309.575222353	0	0.5	4.9	1	300.886243584	301.143017912	"16"	959.48244581	953.053047919	1.5	0.1
0.01	1	0.284417450999968	1	109	NA	309.575222353	0	0.5	4.9	1	301.370417659	301.65483511	"16"	959.48244581	953.053047919	1.5	0.1
0.01	1	0.319034781000028	1	109	NA	309.575222353	0	0.5	4.9	1	301.887994387	302.207029168	"16"	959.48244581	953.053047919	1.5	0.1
0.01	1	0.271917686999927	1	109	NA	309.575222353	0	0.5	4.9	1	302.438934532	302.710852219	"16"	959.48244581	953.053047919	1.5	0.1
0.01	1	0.29052233799996	1	109	NA	309.575222353	0	0.5	4.9	1	302.939799004	303.230321342	"16"	959.48244581	953.053047919	1.5	0.1
0.01	1	0.268290015000048	1	109	NA	309.575222353	0	0.5	4.9	1	303.457346892	303.725636907	"16"	959.48244581	953.053047919	1.5	0.1
0.01	1	0.296281778000093	1	109	NA	309.575222353	0	0.5	4.9	1	303.958131794	304.254413572	"16"	959.48244581	953.053047919	1.5	0.1
0.01	1	0.265376638000021	1	109	NA	309.575222353	0	0.5	4.9	1	304.492350617	304.757727255	"16"	959.48244581	953.053047919	1.5	0.1
0.01	1	0.236363447000031	1	109	NA	309.575222353	0	0.5	4.9	1	304.993170389	305.229533836	"16"	959.48244581	953.053047919	1.5	0.1
0.01	1	0.273609951000026	1	109	NA	309.575222353	0	0.5	4.9	1	305.460565637	305.734175588	"16"	959.48244581	953.053047919	1.5	0.1
0.01	1	0.300928967000004	1	109	NA	309.575222353	0	0.5	4.9	1	305.961488717	306.262417684	"16"	959.48244581	953.053047919	1.5	0.1
0.01	1	0.318667183999992	1	109	NA	309.575222353	0	0.5	4.9	1	306.495720151	306.814387335	"16"	959.48244581	953.053047919	1.5	0.1
0.01	1	0.335259872000051	1	109	NA	309.575222353	0	0.5	4.9	1	307.046696022	307.381955894	"16"	959.48244581	953.053047919	1.5	0.1
0.01	1	0.312355970999988	1	109	NA	309.575222353	0	0.5	4.9	1	307.614312942	307.926668913	"16"	959.48244581	953.053047919	1.5	0.1
0.01	1	0.353610552999953	1	109	NA	309.575222353	0	0.5	4.9	1	308.165196987	308.51880754	"16"	959.48244581	953.053047919	1.5	0.1
0.01	1	0.224452977999931	1	109	NA	309.575222353	0	0.5	4.9	1	308.749438234	308.973891212	"16"	959.48244581	953.053047919	1.5	0.1
0.01	1	0.373345202999985	2	109	NA	309.575222353	0	0.5	4.9	1	309.200295202	309.573640405	"16"	959.48244581	953.053047919	1.5	0.1
0.01	1	0.642918675000033	1	71	NA	339.806978276	0	0.5	5.4	1	311.604294717	312.247213392	"17"	959.48244581	953.053047919	1.5	0.1
0.01	1	0.126247545000069	1	71	NA	339.806978276	0	0.5	5.4	1	312.472433347	312.598680892	"17"	959.48244581	953.053047919	1.5	0.1
0.01	1	0.205576751999956	1	71	NA	339.806978276	0	0.5	5.4	1	312.839759142	313.045335894	"17"	959.48244581	953.053047919	1.5	0.1
0.01	1	0.139690117999976	1	71	NA	339.806978276	0	0.5	5.4	1	313.273877839	313.413567957	"17"	959.48244581	953.053047919	1.5	0.1
0.01	1	0.412374137000029	1	71	NA	339.806978276	0	0.5	5.4	1	313.641171144	314.053545281	"17"	959.48244581	953.053047919	1.5	0.1
0.01	1	0.0977548419999721	1	71	NA	339.806978276	0	0.5	5.4	1	314.292150649	314.389905491	"17"	959.48244581	953.053047919	1.5	0.1
0.01	1	0.20477263600003	1	71	NA	339.806978276	0	0.5	5.4	1	314.626044104	314.83081674	"17"	959.48244581	953.053047919	1.5	0.1
0.01	1	0.162011872999983	1	71	NA	339.806978276	0	0.5	5.4	1	315.060174337	315.22218621	"17"	959.48244581	953.053047919	1.5	0.1
0.01	1	0.281129609999994	1	71	NA	339.806978276	0	0.5	5.4	1	315.444148804	315.725278414	"17"	959.48244581	953.053047919	1.5	0.1
0.01	1	0.299815908000028	1	71	NA	339.806978276	0	0.5	5.4	1	315.961579589	316.261395497	"17"	959.48244581	953.053047919	1.5	0.1
0.01	1	0.318908910000005	1	71	NA	339.806978276	0	0.5	5.4	1	316.495927202	316.814836112	"17"	959.48244581	953.053047919	1.5	0.1
0.01	1	0.295039869999982	1	71	NA	339.806978276	0	0.5	5.4	1	317.046764787	317.341804657	"17"	959.48244581	953.053047919	1.5	0.1
0.01	1	0.290371543999981	1	71	NA	339.806978276	0	0.5	5.4	1	317.564291932	317.854663476	"17"	959.48244581	953.053047919	1.5	0.1
0.01	1	0.25246171699996	1	71	NA	339.806978276	0	0.5	5.4	1	318.081933504	318.334395221	"17"	959.48244581	953.053047919	1.5	0.1
0.01	1	0.279745966000064	1	71	NA	339.806978276	0	0.5	5.4	1	318.566035404	318.84578137	"17"	959.48244581	953.053047919	1.5	0.1
0.01	1	0.355377223999994	1	71	NA	339.806978276	0	0.5	5.4	1	319.083496841	319.438874065	"17"	959.48244581	953.053047919	1.5	0.1
0.01	1	0.305305936999957	1	71	NA	339.806978276	0	0.5	5.4	1	319.667820519	319.973126456	"17"	959.48244581	953.053047919	1.5	0.1
0.01	1	0.387100625000016	1	71	NA	339.806978276	0	0.5	5.4	1	320.202097492	320.589198117	"17"	959.48244581	953.053047919	1.5	0.1
0.01	1	0.330445458999975	1	71	NA	339.806978276	0	0.5	5.4	1	320.819761649	321.150207108	"17"	959.48244581	953.053047919	1.5	0.1
0.01	1	0.483911872000022	1	71	NA	339.806978276	0	0.5	5.4	1	321.387436779	321.871348651	"17"	959.48244581	953.053047919	1.5	0.1
0.01	1	0.285743450000041	1	71	NA	339.806978276	0	0.5	5.4	1	322.105296432	322.391039882	"17"	959.48244581	953.053047919	1.5	0.1
0.01	1	0.294620790000067	1	71	NA	339.806978276	0	0.5	5.4	1	322.622790582	322.917411372	"17"	959.48244581	953.053047919	1.5	0.1
0.01	1	0.354494677000048	1	71	NA	339.806978276	0	0.5	5.4	1	323.140315662	323.494810339	"17"	959.48244581	953.053047919	1.5	0.1
0.01	1	0.321517222000011	1	71	NA	339.806978276	0	0.5	5.4	1	323.724624727	324.046141949	"17"	959.48244581	953.053047919	1.5	0.1
0.01	1	0.291319691000012	1	71	NA	339.806978276	0	0.5	5.4	1	324.275665902	324.566985593	"17"	959.48244581	953.053047919	1.5	0.1
0.01	1	0.373573162000071	1	71	NA	339.806978276	0	0.5	5.4	1	324.793225677	325.166798839	"17"	959.48244581	953.053047919	1.5	0.1
0.01	1	0.395151994000003	1	71	NA	339.806978276	0	0.5	5.4	1	325.394123237	325.789275231	"17"	959.48244581	953.053047919	1.5	0.1
0.01	1	0.360990000000015	1	71	NA	339.806978276	0	0.5	5.4	1	326.028596817	326.389586817	"17"	959.48244581	953.053047919	1.5	0.1
0.01	1	0.360384481999972	1	71	NA	339.806978276	0	0.5	5.4	1	326.612892342	326.973276824	"17"	959.48244581	953.053047919	1.5	0.1
0.01	1	0.427358391000098	1	71	NA	339.806978276	0	0.5	5.4	1	327.197143409	327.6245018	"17"	959.48244581	953.053047919	1.5	0.1
0.01	1	0.301597958000002	1	71	NA	339.806978276	0	0.5	5.4	1	327.848354379	328.149952337	"17"	959.48244581	953.053047919	1.5	0.1
0.01	1	0.287040875000002	1	71	NA	339.806978276	0	0.5	5.4	1	328.382513737	328.669554612	"17"	959.48244581	953.053047919	1.5	0.1
0.01	1	0.409912165000037	1	71	NA	339.806978276	0	0.5	5.4	1	328.900078082	329.309990247	"17"	959.48244581	953.053047919	1.5	0.1
0.01	1	0.327558650000014	1	71	NA	339.806978276	0	0.5	5.4	1	329.534457249	329.862015899	"17"	959.48244581	953.053047919	1.5	0.1
0.01	1	0.377406653999969	1	71	NA	339.806978276	0	0.5	5.4	1	330.085430227	330.462836881	"17"	959.48244581	953.053047919	1.5	0.1
0.01	1	0.343249259000004	1	71	NA	339.806978276	0	0.5	5.4	1	330.686385532	331.029634791	"17"	959.48244581	953.053047919	1.5	0.1
0.01	1	0.416452586999981	1	71	NA	339.806978276	0	0.5	5.4	1	331.254094802	331.670547389	"17"	959.48244581	953.053047919	1.5	0.1
0.01	1	0.293222121999975	1	71	NA	339.806978276	0	0.5	5.4	1	331.905186829	332.198408951	"17"	959.48244581	953.053047919	1.5	0.1
0.01	1	0.336635748999925	1	71	NA	339.806978276	0	0.5	5.4	1	332.422645292	332.759281041	"17"	959.48244581	953.053047919	1.5	0.1
0.01	1	0.430960639000091	1	71	NA	339.806978276	0	0.5	5.4	1	332.990339372	333.421300011	"17"	959.48244581	953.053047919	1.5	0.1
0.01	1	0.492826706999949	1	71	NA	339.806978276	0	0.5	5.4	1	333.658086137	334.150912844	"17"	959.48244581	953.053047919	1.5	0.1
0.01	1	0.334956829000021	1	71	NA	339.806978276	0	0.5	5.4	1	334.375847142	334.710803971	"17"	959.48244581	953.053047919	1.5	0.1
0.01	1	0.286476436999919	1	71	NA	339.806978276	0	0.5	5.4	1	334.943709909	335.230186346	"17"	959.48244581	953.053047919	1.5	0.1
0.01	1	0.320712961000027	1	71	NA	339.806978276	0	0.5	5.4	1	335.461059062	335.781772023	"17"	959.48244581	953.053047919	1.5	0.1
0.01	1	0.313433110999995	1	71	NA	339.806978276	0	0.5	5.4	1	336.012028019	336.32546113	"17"	959.48244581	953.053047919	1.5	0.1
0.01	1	0.306458012999997	1	71	NA	339.806978276	0	0.5	5.4	1	336.562955307	336.86941332	"17"	959.48244581	953.053047919	1.5	0.1
0.01	1	0.37392799700001	1	71	NA	339.806978276	0	0.5	5.4	1	337.097177637	337.471105634	"17"	959.48244581	953.053047919	1.5	0.1
0.01	1	0.348347524000019	1	71	NA	339.806978276	0	0.5	5.4	1	337.698286297	338.046633821	"17"	959.48244581	953.053047919	1.5	0.1
0.01	1	0.323756672999934	1	71	NA	339.806978276	0	0.5	5.4	1	338.282563281	338.606319954	"17"	959.48244581	953.053047919	1.5	0.1
0.01	1	0.396888768999929	1	71	NA	339.806978276	0	0.5	5.4	1	338.833472619	339.230361388	"17"	959.48244581	953.053047919	1.5	0.1
0.01	1	0.337594710000076	2	71	NA	339.806978276	0	0.5	5.4	1	339.467843657	339.805438367	"17"	959.48244581	953.053047919	1.5	0.1
0.01	1	1.43045578200008	1	96	NA	375.799588481	0	0.6	6	1	341.855232097	343.285687879	"18"	959.48244581	953.053047919	1.5	0.1
0.01	1	0.072962776000054	1	96	NA	375.799588481	0	0.6	6	1	343.524717482	343.597680258	"18"	959.48244581	953.053047919	1.5	0.1
0.01	1	0.140509264000002	1	96	NA	375.799588481	0	0.6	6	1	343.825240232	343.965749496	"18"	959.48244581	953.053047919	1.5	0.1
0.01	1	0.157790878000014	1	96	NA	375.799588481	0	0.6	6	1	344.192425532	344.35021641	"18"	959.48244581	953.053047919	1.5	0.1
0.01	1	0.173225700999978	1	96	NA	375.799588481	0	0.6	6	1	344.576456412	344.749682113	"18"	959.48244581	953.053047919	1.5	0.1
0.01	1	0.165182131000051	1	96	NA	375.799588481	0	0.6	6	1	344.977145642	345.142327773	"18"	959.48244581	953.053047919	1.5	0.1
0.01	1	0.124720528000012	1	96	NA	375.799588481	0	0.6	6	1	345.377782972	345.5025035	"18"	959.48244581	953.053047919	1.5	0.1
0.01	1	0.157110958000089	1	96	NA	375.799588481	0	0.6	6	1	345.728282767	345.885393725	"18"	959.48244581	953.053047919	1.5	0.1
0.01	1	0.213843829000098	1	96	NA	375.799588481	0	0.6	6	1	346.112322727	346.326166556	"18"	959.48244581	953.053047919	1.5	0.1
0.01	1	0.218786149000039	1	96	NA	375.799588481	0	0.6	6	1	346.563138344	346.781924493	"18"	959.48244581	953.053047919	1.5	0.1
0.01	1	0.224083977000078	1	96	NA	375.799588481	0	0.6	6	1	347.013766682	347.237850659	"18"	959.48244581	953.053047919	1.5	0.1
0.01	1	0.254003652999927	1	96	NA	375.799588481	0	0.6	6	1	347.464641008	347.718644661	"18"	959.48244581	953.053047919	1.5	0.1
0.01	1	0.28106660100002	1	96	NA	375.799588481	0	0.6	6	1	347.948754049	348.22982065	"18"	959.48244581	953.053047919	1.5	0.1
0.01	1	0.291186187999983	1	96	NA	375.799588481	0	0.6	6	1	348.466307429	348.757493617	"18"	959.48244581	953.053047919	1.5	0.1
0.01	1	0.326830943000004	1	96	NA	375.799588481	0	0.6	6	1	348.983816397	349.31064734	"18"	959.48244581	953.053047919	1.5	0.1
0.01	1	0.287435486000049	1	96	NA	375.799588481	0	0.6	6	1	349.551378762	349.838814248	"18"	959.48244581	953.053047919	1.5	0.1
0.01	1	0.393290499000045	1	96	NA	375.799588481	0	0.6	6	1	350.068992569	350.462283068	"18"	959.48244581	953.053047919	1.5	0.1
0.01	1	0.344062135999934	1	96	NA	375.799588481	0	0.6	6	1	350.686787692	351.030849828	"18"	959.48244581	953.053047919	1.5	0.1
0.01	1	0.255370885000048	1	96	NA	375.799588481	0	0.6	6	1	351.254316002	351.509686887	"18"	959.48244581	953.053047919	1.5	0.1
0.01	1	0.259226668999986	1	96	NA	375.799588481	0	0.6	6	1	351.738409782	351.997636451	"18"	959.48244581	953.053047919	1.5	0.1
0.01	1	0.264309085000036	1	96	NA	375.799588481	0	0.6	6	1	352.222611572	352.486920657	"18"	959.48244581	953.053047919	1.5	0.1
0.01	1	0.195598379999979	1	96	NA	375.799588481	0	0.6	6	1	352.723533577	352.919131957	"18"	959.48244581	953.053047919	1.5	0.1
0.01	1	0.192975101000002	1	96	NA	375.799588481	0	0.6	6	1	353.157560977	353.350536078	"18"	959.48244581	953.053047919	1.5	0.1
0.01	1	0.271501366000052	1	96	NA	375.799588481	0	0.6	6	1	353.574869884	353.84637125	"18"	959.48244581	953.053047919	1.5	0.1
0.01	1	0.498844713999915	1	96	NA	375.799588481	0	0.6	6	1	354.0756557	354.574500414	"18"	959.48244581	953.053047919	1.5	0.1
0.01	1	0.298873573000037	1	96	NA	375.799588481	0	0.6	6	1	354.810288098	355.109161671	"18"	959.48244581	953.053047919	1.5	0.1
0.01	1	0.245245457999999	1	96	NA	375.799588481	0	0.6	6	1	355.344527487	355.589772945	"18"	959.48244581	953.053047919	1.5	0.1
0.01	1	0.249028123000016	1	96	NA	375.799588481	0	0.6	6	1	355.828675604	356.077703727	"18"	959.48244581	953.053047919	1.5	0.1
0.01	1	0.277798365999956	1	96	NA	375.799588481	0	0.6	6	1	356.312858084	356.59065645	"18"	959.48244581	953.053047919	1.5	0.1
0.01	1	0.264316896999958	1	96	NA	375.799588481	0	0.6	6	1	356.813695559	357.078012456	"18"	959.48244581	953.053047919	1.5	0.1
0.01	1	0.210889035000037	1	96	NA	375.799588481	0	0.6	6	1	357.314607202	357.525496237	"18"	959.48244581	953.053047919	1.5	0.1
0.01	1	0.224903842999993	1	96	NA	375.799588481	0	0.6	6	1	357.748600284	357.973504127	"18"	959.48244581	953.053047919	1.5	0.1
0.01	1	0.279342322000048	1	96	NA	375.799588481	0	0.6	6	1	358.199451277	358.478793599	"18"	959.48244581	953.053047919	1.5	0.1
0.01	1	0.234088007999958	1	96	NA	375.799588481	0	0.6	6	1	358.716858868	358.950946876	"18"	959.48244581	953.053047919	1.5	0.1
0.01	1	0.300875657000006	1	96	NA	375.799588481	0	0.6	6	1	359.184359404	359.485235061	"18"	959.48244581	953.053047919	1.5	0.1
0.01	1	0.303810670000075	1	96	NA	375.799588481	0	0.6	6	1	359.718607689	360.022418359	"18"	959.48244581	953.053047919	1.5	0.1
0.01	1	0.265418558999954	1	96	NA	375.799588481	0	0.6	6	1	360.252893389	360.518311948	"18"	959.48244581	953.053047919	1.5	0.1
0.01	1	0.316210825999974	1	96	NA	375.799588481	0	0.6	6	1	360.753665474	361.0698763	"18"	959.48244581	953.053047919	1.5	0.1
0.01	1	0.270724540999936	1	96	NA	375.799588481	0	0.6	6	1	361.304615779	361.57534032	"18"	959.48244581	953.053047919	1.5	0.1
0.01	1	0.808325517000071	1	96	NA	375.799588481	0	0.6	6	1	361.805361867	362.613687384	"18"	959.48244581	953.053047919	1.5	0.1
0.01	1	0.445924507999962	1	96	NA	375.799588481	0	0.6	6	1	362.840465819	363.286390327	"18"	959.48244581	953.053047919	1.5	0.1
0.01	1	0.337066106000066	1	96	NA	375.799588481	0	0.6	6	1	363.508202352	363.845268458	"18"	959.48244581	953.053047919	1.5	0.1
0.01	1	0.274138157999914	1	96	NA	375.799588481	0	0.6	6	1	364.075965799	364.350103957	"18"	959.48244581	953.053047919	1.5	0.1
0.01	1	0.349559728000031	1	96	NA	375.799588481	0	0.6	6	1	364.576766142	364.92632587	"18"	959.48244581	953.053047919	1.5	0.1
0.01	1	0.389532197999984	1	96	NA	375.799588481	0	0.6	6	1	365.161021522	365.55055372	"18"	959.48244581	953.053047919	1.5	0.1
0.01	1	0.315436319000014	1	96	NA	375.799588481	0	0.6	6	1	365.778714182	366.094150501	"18"	959.48244581	953.053047919	1.5	0.1
0.01	1	0.316223749999949	1	96	NA	375.799588481	0	0.6	6	1	366.329754152	366.645977902	"18"	959.48244581	953.053047919	1.5	0.1
0.01	1	0.364743881999971	1	96	NA	375.799588481	0	0.6	6	1	366.880534322	367.245278204	"18"	959.48244581	953.053047919	1.5	0.1
0.01	1	0.371969824000075	1	96	NA	375.799588481	0	0.6	6	1	367.481672432	367.853642256	"18"	959.48244581	953.053047919	1.5	0.1
0.01	1	0.450968783999997	1	96	NA	375.799588481	0	0.6	6	1	368.082686354	368.533655138	"18"	959.48244581	953.053047919	1.5	0.1
0.01	1	0.542450273999975	1	96	NA	375.799588481	0	0.6	6	1	368.767111597	369.309561871	"18"	959.48244581	953.053047919	1.5	0.1
0.01	1	0.535546148000094	1	96	NA	375.799588481	0	0.6	6	1	369.535032194	370.070578342	"18"	959.48244581	953.053047919	1.5	0.1
0.01	1	0.510213712999985	1	96	NA	375.799588481	0	0.6	6	1	370.303064557	370.81327827	"18"	959.48244581	953.053047919	1.5	0.1
0.01	1	0.545377386000041	1	96	NA	375.799588481	0	0.6	6	1	371.037586822	371.582964208	"18"	959.48244581	953.053047919	1.5	0.1
0.01	1	0.343299374000026	1	96	NA	375.799588481	0	0.6	6	1	371.822299397	372.165598771	"18"	959.48244581	953.053047919	1.5	0.1
0.01	1	0.377125718000002	1	96	NA	375.799588481	0	0.6	6	1	372.389807352	372.76693307	"18"	959.48244581	953.053047919	1.5	0.1
0.01	1	0.423589000999982	1	96	NA	375.799588481	0	0.6	6	1	372.990927029	373.41451603	"18"	959.48244581	953.053047919	1.5	0.1
0.01	1	0.33183115099996	1	96	NA	375.799588481	0	0.6	6	1	373.642003377	373.973834528	"18"	959.48244581	953.053047919	1.5	0.1
0.01	1	0.404193860999953	1	96	NA	375.799588481	0	0.6	6	1	374.209602317	374.613796178	"18"	959.48244581	953.053047919	1.5	0.1
0.01	1	0.323036878000039	1	96	NA	375.799588481	0	0.6	6	1	374.844036319	375.167073197	"18"	959.48244581	953.053047919	1.5	0.1
0.01	1	0.403176606999978	2	96	NA	375.799588481	0	0.6	6	1	375.394888232	375.798064839	"18"	959.48244581	953.053047919	1.5	0.1
0.01	1	0.500836192999941	1	91	NA	420.423991891	0	0.850000000000001	6.85	1	377.832314209	378.333150402	"19"	959.48244581	953.053047919	1.5	0.1
0.01	1	0.135383259000037	1	91	NA	420.423991891	0	0.850000000000001	6.85	1	378.566841189	378.702224448	"19"	959.48244581	953.053047919	1.5	0.1
0.01	1	0.0713100010000289	1	91	NA	420.423991891	0	0.850000000000001	6.85	1	378.934257297	379.005567298	"19"	959.48244581	953.053047919	1.5	0.1
0.01	1	0.0827276769999798	1	91	NA	420.423991891	0	0.850000000000001	6.85	1	379.234699022	379.317426699	"19"	959.48244581	953.053047919	1.5	0.1
0.01	1	0.0950489199999538	1	91	NA	420.423991891	0	0.850000000000001	6.85	1	379.551930367	379.646979287	"19"	959.48244581	953.053047919	1.5	0.1
0.01	1	0.152503760000059	1	91	NA	420.423991891	0	0.850000000000001	6.85	1	379.869182967	380.021686727	"19"	959.48244581	953.053047919	1.5	0.1
0.01	1	0.160996540000042	1	91	NA	420.423991891	0	0.850000000000001	6.85	1	380.253131779	380.414128319	"19"	959.48244581	953.053047919	1.5	0.1
0.01	1	0.192586926999979	1	91	NA	420.423991891	0	0.850000000000001	6.85	1	380.637026382	380.829613309	"19"	959.48244581	953.053047919	1.5	0.1
0.01	1	0.198838698999907	1	91	NA	420.423991891	0	0.850000000000001	6.85	1	381.054450388	381.253289087	"19"	959.48244581	953.053047919	1.5	0.1
0.01	1	0.149344023000026	1	91	NA	420.423991891	0	0.850000000000001	6.85	1	381.488507219	381.637851242	"19"	959.48244581	953.053047919	1.5	0.1
0.01	1	0.220756543000107	1	91	NA	420.423991891	0	0.850000000000001	6.85	1	381.872573377	382.09332992	"19"	959.48244581	953.053047919	1.5	0.1
0.01	1	0.202493029999914	1	91	NA	420.423991891	0	0.850000000000001	6.85	1	382.323352004	382.525845034	"19"	959.48244581	953.053047919	1.5	0.1
0.01	1	0.232421484000042	1	91	NA	420.423991891	0	0.850000000000001	6.85	1	382.757278928	382.989700412	"19"	959.48244581	953.053047919	1.5	0.1
0.01	1	0.244987483000045	1	91	NA	420.423991891	0	0.850000000000001	6.85	1	383.224806184	383.469793667	"19"	959.48244581	953.053047919	1.5	0.1
0.01	1	0.194759952000027	1	91	NA	420.423991891	0	0.850000000000001	6.85	1	383.692248874	383.887008826	"19"	959.48244581	953.053047919	1.5	0.1
0.01	1	0.223952540999903	1	91	NA	420.423991891	0	0.850000000000001	6.85	1	384.109559399	384.33351194	"19"	959.48244581	953.053047919	1.5	0.1
0.01	1	0.25402413200004	1	91	NA	420.423991891	0	0.850000000000001	6.85	1	384.560395944	384.814420076	"19"	959.48244581	953.053047919	1.5	0.1
