"payoff.level"	"balloon"	"rt"	"resp"	"explode.trial"	"explode.time"	"finish.time"	"exploded"	"trial.total"	"cumulative.total"	"finished"	"trial.start"	"trial.end"	"trial.num"	"secs"	"start.time"	"iti"	"isi"
0.01	1	1.69723783100198	1	64	NA	18.7898416649987	0	0.2	0.2	1	0.0198801439983072	1.71711797500029	"1"	50146.674395496	50144.420320613	1.5	0.1
0.01	1	0.573570469998231	1	64	NA	18.7898416649987	0	0.2	0.2	1	2.02321331200073	2.59678378199897	"1"	50146.674395496	50144.420320613	1.5	0.1
0.01	1	0.835591301001841	1	64	NA	18.7898416649987	0	0.2	0.2	1	2.82466680699872	3.66025810800056	"1"	50146.674395496	50144.420320613	1.5	0.1
0.01	1	0.822894536999229	1	64	NA	18.7898416649987	0	0.2	0.2	1	3.89323221499944	4.71612675199867	"1"	50146.674395496	50144.420320613	1.5	0.1
0.01	1	0.868735659998492	1	64	NA	18.7898416649987	0	0.2	0.2	1	4.94490356500319	5.81363922500168	"1"	50146.674395496	50144.420320613	1.5	0.1
0.01	1	0.957348438998451	1	64	NA	18.7898416649987	0	0.2	0.2	1	6.04672577499878	7.00407421399723	"1"	50146.674395496	50144.420320613	1.5	0.1
0.01	1	0.565597329994489	1	64	NA	18.7898416649987	0	0.2	0.2	1	7.23207393500343	7.79767126499792	"1"	50146.674395496	50144.420320613	1.5	0.1
0.01	1	0.45127781300107	1	64	NA	18.7898416649987	0	0.2	0.2	1	8.03337761700095	8.48465543000202	"1"	50146.674395496	50144.420320613	1.5	0.1
0.01	1	0.59107453100296	1	64	NA	18.7898416649987	0	0.2	0.2	1	8.7179123149981	9.30898684600106	"1"	50146.674395496	50144.420320613	1.5	0.1
0.01	1	0.55789673399704	1	64	NA	18.7898416649987	0	0.2	0.2	1	9.53592021000077	10.0938169439978	"1"	50146.674395496	50144.420320613	1.5	0.1
0.01	1	0.852204953000182	1	64	NA	18.7898416649987	0	0.2	0.2	1	10.3207264550001	11.1729314080003	"1"	50146.674395496	50144.420320613	1.5	0.1
0.01	1	0.662513558003411	1	64	NA	18.7898416649987	0	0.2	0.2	1	11.4058172299992	12.0683307880026	"1"	50146.674395496	50144.420320613	1.5	0.1
0.01	1	0.570488610006578	1	64	NA	18.7898416649987	0	0.2	0.2	1	12.2905856599973	12.8610742700039	"1"	50146.674395496	50144.420320613	1.5	0.1
0.01	1	0.656559932998789	1	64	NA	18.7898416649987	0	0.2	0.2	1	13.0920577549987	13.7486176879975	"1"	50146.674395496	50144.420320613	1.5	0.1
0.01	1	0.395566386003338	1	64	NA	18.7898416649987	0	0.2	0.2	1	13.976762459999	14.3723288460023	"1"	50146.674395496	50144.420320613	1.5	0.1
0.01	1	0.522852337999211	1	64	NA	18.7898416649987	0	0.2	0.2	1	14.611183097004	15.1340354350032	"1"	50146.674395496	50144.420320613	1.5	0.1
0.01	1	0.40229928700137	1	64	NA	18.7898416649987	0	0.2	0.2	1	15.3624471099974	15.7647463969988	"1"	50146.674395496	50144.420320613	1.5	0.1
0.01	1	0.367763071997615	1	64	NA	18.7898416649987	0	0.2	0.2	1	15.9967762700035	16.3645393420011	"1"	50146.674395496	50144.420320613	1.5	0.1
0.01	1	0.510705963002692	1	64	NA	18.7898416649987	0	0.2	0.2	1	16.5978310520004	17.1085370150031	"1"	50146.674395496	50144.420320613	1.5	0.1
0.01	1	0.560043605000828	1	64	NA	18.7898416649987	0	0.2	0.2	1	17.3323948920006	17.8924384970014	"1"	50146.674395496	50144.420320613	1.5	0.1
0.01	1	0.654359462001594	2	64	NA	18.7898416649987	0	0.2	0.2	1	18.1337757049987	18.7881351670003	"1"	50146.674395496	50144.420320613	1.5	0.1
0.01	1	0.624205359999905	1	102	NA	31.6536749410006	0	0.24	0.44	1	20.8216263950017	21.4458317550016	"2"	50146.674395496	50144.420320613	1.5	0.1
0.01	1	0.323607406993688	1	102	NA	31.6536749410006	0	0.24	0.44	1	21.6729720650037	21.9965794719974	"2"	50146.674395496	50144.420320613	1.5	0.1
0.01	1	0.165650319999258	1	102	NA	31.6536749410006	0	0.24	0.44	1	22.2239006349992	22.3895509549984	"2"	50146.674395496	50144.420320613	1.5	0.1
0.01	1	0.060146566000185	1	102	NA	31.6536749410006	0	0.24	0.44	1	22.6247223350001	22.6848689010003	"2"	50146.674395496	50144.420320613	1.5	0.1
0.01	1	0.0169636239952524	1	102	NA	31.6536749410006	0	0.24	0.44	1	22.9085074340037	22.9254710579989	"2"	50146.674395496	50144.420320613	1.5	0.1
0.01	1	0.00358939899888355	1	102	NA	31.6536749410006	0	0.24	0.44	1	23.158908645004	23.1624980440029	"2"	50146.674395496	50144.420320613	1.5	0.1
0.01	1	0.00453641499916557	1	102	NA	31.6536749410006	0	0.24	0.44	1	23.3926448400016	23.3971812550008	"2"	50146.674395496	50144.420320613	1.5	0.1
0.01	1	0.00361023200093769	1	102	NA	31.6536749410006	0	0.24	0.44	1	23.6264369499986	23.6300471819995	"2"	50146.674395496	50144.420320613	1.5	0.1
0.01	1	0.0107691599987447	1	102	NA	31.6536749410006	0	0.24	0.44	1	23.8601522520039	23.8709214120026	"2"	50146.674395496	50144.420320613	1.5	0.1
0.01	1	0.00381569099408807	1	102	NA	31.6536749410006	0	0.24	0.44	1	24.0938007150035	24.0976164059975	"2"	50146.674395496	50144.420320613	1.5	0.1
0.01	1	0.00352811499760719	1	102	NA	31.6536749410006	0	0.24	0.44	1	24.3275727950022	24.3311009099998	"2"	50146.674395496	50144.420320613	1.5	0.1
0.01	1	0.00388589499925729	1	102	NA	31.6536749410006	0	0.24	0.44	1	24.5611741850007	24.56506008	"2"	50146.674395496	50144.420320613	1.5	0.1
0.01	1	0.154298054003448	1	102	NA	31.6536749410006	0	0.24	0.44	1	24.7949279899985	24.949226044002	"2"	50146.674395496	50144.420320613	1.5	0.1
0.01	1	0.00338179300160846	1	102	NA	31.6536749410006	0	0.24	0.44	1	25.1788948050016	25.1822765980032	"2"	50146.674395496	50144.420320613	1.5	0.1
0.01	1	0.408274818997597	1	102	NA	31.6536749410006	0	0.24	0.44	1	25.4126473770011	25.8209221959987	"2"	50146.674395496	50144.420320613	1.5	0.1
0.01	1	0.00702571800502483	1	102	NA	31.6536749410006	0	0.24	0.44	1	26.0470400199993	26.0540657380043	"2"	50146.674395496	50144.420320613	1.5	0.1
0.01	1	0.0450020839998615	1	102	NA	31.6536749410006	0	0.24	0.44	1	26.2807898399988	26.3257919239986	"2"	50146.674395496	50144.420320613	1.5	0.1
0.01	1	0.00248202899820171	1	102	NA	31.6536749410006	0	0.24	0.44	1	26.5645467240029	26.5670287530011	"2"	50146.674395496	50144.420320613	1.5	0.1
0.01	1	0.173529526997299	1	102	NA	31.6536749410006	0	0.24	0.44	1	26.7983224900017	26.971852016999	"2"	50146.674395496	50144.420320613	1.5	0.1
0.01	1	0.332950992997212	1	102	NA	31.6536749410006	0	0.24	0.44	1	27.1990197440027	27.5319707369999	"2"	50146.674395496	50144.420320613	1.5	0.1
0.01	1	0.670519543004048	1	102	NA	31.6536749410006	0	0.24	0.44	1	27.7666750749995	28.4371946180036	"2"	50146.674395496	50144.420320613	1.5	0.1
0.01	1	0.433270338995499	1	102	NA	31.6536749410006	0	0.24	0.44	1	28.6681534500021	29.1014237889976	"2"	50146.674395496	50144.420320613	1.5	0.1
0.01	1	0.645900902003632	1	102	NA	31.6536749410006	0	0.24	0.44	1	29.3359691000005	29.9818700020041	"2"	50146.674395496	50144.420320613	1.5	0.1
0.01	1	0.711964969996188	1	102	NA	31.6536749410006	0	0.24	0.44	1	30.2206836800033	30.9326486499995	"2"	50146.674395496	50144.420320613	1.5	0.1
0.01	1	0.49637523599813	2	102	NA	31.6536749410006	0	0.24	0.44	1	31.1556054250032	31.6519806610013	"2"	50146.674395496	50144.420320613	1.5	0.1
0.01	1	0.53505234199838	1	97	NA	43.439175159001	0	0.35	0.79	1	33.6932471300024	34.2282994720008	"3"	50146.674395496	50144.420320613	1.5	0.1
0.01	1	0.0094001660036156	1	97	NA	43.439175159001	0	0.35	0.79	1	34.461220459998	34.4706206260016	"3"	50146.674395496	50144.420320613	1.5	0.1
0.01	1	0.00335036000615219	1	97	NA	43.439175159001	0	0.35	0.79	1	34.6949900859981	34.6983404460043	"3"	50146.674395496	50144.420320613	1.5	0.1
0.01	1	0.00334425199980615	1	97	NA	43.439175159001	0	0.35	0.79	1	34.9286594180012	34.932003670001	"3"	50146.674395496	50144.420320613	1.5	0.1
0.01	1	0.057794622000074	1	97	NA	43.439175159001	0	0.35	0.79	1	35.1624168050039	35.220211427004	"3"	50146.674395496	50144.420320613	1.5	0.1
0.01	1	0.00387222000426846	1	97	NA	43.439175159001	0	0.35	0.79	1	35.4461849299987	35.450057150003	"3"	50146.674395496	50144.420320613	1.5	0.1
0.01	1	0.0762712479991023	1	97	NA	43.439175159001	0	0.35	0.79	1	35.6799967600018	35.7562680080009	"3"	50146.674395496	50144.420320613	1.5	0.1
0.01	1	0.00386216899642022	1	97	NA	43.439175159001	0	0.35	0.79	1	35.9804665670017	35.9843287359981	"3"	50146.674395496	50144.420320613	1.5	0.1
0.01	1	0.0942026229968178	1	97	NA	43.439175159001	0	0.35	0.79	1	36.2141707320043	36.3083733550011	"3"	50146.674395496	50144.420320613	1.5	0.1
0.01	1	0.0031230879976647	1	97	NA	43.439175159001	0	0.35	0.79	1	36.531286686004	36.5344097740017	"3"	50146.674395496	50144.420320613	1.5	0.1
0.01	1	0.00386366699967766	1	97	NA	43.439175159001	0	0.35	0.79	1	36.765130935004	36.7689946020037	"3"	50146.674395496	50144.420320613	1.5	0.1
0.01	1	0.00217231699934928	1	97	NA	43.439175159001	0	0.35	0.79	1	36.9987678830003	37.0009401999996	"3"	50146.674395496	50144.420320613	1.5	0.1
0.01	1	0.00219669100624742	1	97	NA	43.439175159001	0	0.35	0.79	1	37.232379107998	37.2345757990042	"3"	50146.674395496	50144.420320613	1.5	0.1
0.01	1	0.00430517500353744	1	97	NA	43.439175159001	0	0.35	0.79	1	37.4663054150005	37.4706105900041	"3"	50146.674395496	50144.420320613	1.5	0.1
0.01	1	0.00393607899604831	1	97	NA	43.439175159001	0	0.35	0.79	1	37.6999265370032	37.7038626159992	"3"	50146.674395496	50144.420320613	1.5	0.1
0.01	1	0.00388995499815792	1	97	NA	43.439175159001	0	0.35	0.79	1	37.9338100270033	37.9376999820015	"3"	50146.674395496	50144.420320613	1.5	0.1
0.01	1	0.00461709999945015	1	97	NA	43.439175159001	0	0.35	0.79	1	38.1676069649984	38.1722240649979	"3"	50146.674395496	50144.420320613	1.5	0.1
0.01	1	0.00363438799831783	1	97	NA	43.439175159001	0	0.35	0.79	1	38.401114182001	38.4047485699994	"3"	50146.674395496	50144.420320613	1.5	0.1
0.01	1	0.00385060400003567	1	97	NA	43.439175159001	0	0.35	0.79	1	38.6349195020011	38.6387701060012	"3"	50146.674395496	50144.420320613	1.5	0.1
0.01	1	0.00373739199858392	1	97	NA	43.439175159001	0	0.35	0.79	1	38.8686639320003	38.8724013239989	"3"	50146.674395496	50144.420320613	1.5	0.1
0.01	1	0.00449228000070434	1	97	NA	43.439175159001	0	0.35	0.79	1	39.1023801249976	39.1068724049983	"3"	50146.674395496	50144.420320613	1.5	0.1
0.01	1	0.00375789000099758	1	97	NA	43.439175159001	0	0.35	0.79	1	39.3360664499996	39.3398243400006	"3"	50146.674395496	50144.420320613	1.5	0.1
0.01	1	0.00363556099910056	1	97	NA	43.439175159001	0	0.35	0.79	1	39.5698550369998	39.5734905979989	"3"	50146.674395496	50144.420320613	1.5	0.1
0.01	1	0.0046403449960053	1	97	NA	43.439175159001	0	0.35	0.79	1	39.8036429150015	39.8082832599976	"3"	50146.674395496	50144.420320613	1.5	0.1
0.01	1	0.00251629799458897	1	97	NA	43.439175159001	0	0.35	0.79	1	40.0372749540038	40.0397912519984	"3"	50146.674395496	50144.420320613	1.5	0.1
0.01	1	0.00325150999560719	1	97	NA	43.439175159001	0	0.35	0.79	1	40.270978626002	40.2742301359976	"3"	50146.674395496	50144.420320613	1.5	0.1
0.01	1	0.00386257599893725	1	97	NA	43.439175159001	0	0.35	0.79	1	40.5047193920036	40.5085819680025	"3"	50146.674395496	50144.420320613	1.5	0.1
0.01	1	0.00456725999538321	1	97	NA	43.439175159001	0	0.35	0.79	1	40.7384701600022	40.7430374199976	"3"	50146.674395496	50144.420320613	1.5	0.1
0.01	1	0.209554802000639	1	97	NA	43.439175159001	0	0.35	0.79	1	40.9721394549997	41.1816942570003	"3"	50146.674395496	50144.420320613	1.5	0.1
0.01	1	0.0296772840010817	1	97	NA	43.439175159001	0	0.35	0.79	1	41.4062542690008	41.4359315530019	"3"	50146.674395496	50144.420320613	1.5	0.1
0.01	1	0.188312331003544	1	97	NA	43.439175159001	0	0.35	0.79	1	41.6734260099984	41.8617383410019	"3"	50146.674395496	50144.420320613	1.5	0.1
0.01	1	0.0114238730020588	1	97	NA	43.439175159001	0	0.35	0.79	1	42.0907590650022	42.1021829380043	"3"	50146.674395496	50144.420320613	1.5	0.1
0.01	1	0.22409964200051	1	97	NA	43.439175159001	0	0.35	0.79	1	42.3244473099985	42.548546951999	"3"	50146.674395496	50144.420320613	1.5	0.1
0.01	1	0.00211371500336099	1	97	NA	43.439175159001	0	0.35	0.79	1	42.7752980500009	42.7774117650042	"3"	50146.674395496	50144.420320613	1.5	0.1
0.01	1	0.0113256709955749	1	97	NA	43.439175159001	0	0.35	0.79	1	43.0088966250041	43.0202222959997	"3"	50146.674395496	50144.420320613	1.5	0.1
0.01	1	0.178079814002558	2	97	NA	43.439175159001	0	0.35	0.79	1	43.2594239919999	43.4375038060025	"3"	50146.674395496	50144.420320613	1.5	0.1
0.01	1	0.00462815700302599	1	51	NA	51.0818202919982	0	0.24	1.03	1	45.4630640100004	45.4676921670034	"4"	50146.674395496	50144.420320613	1.5	0.1
0.01	1	0.0037649850055459	1	51	NA	51.0818202919982	0	0.24	1.03	1	45.6968401749982	45.7006051600038	"4"	50146.674395496	50144.420320613	1.5	0.1
0.01	1	0.00384536299679894	1	51	NA	51.0818202919982	0	0.24	1.03	1	45.9304969470031	45.9343423099999	"4"	50146.674395496	50144.420320613	1.5	0.1
0.01	1	0.00438701699749799	1	51	NA	51.0818202919982	0	0.24	1.03	1	46.1643249230037	46.1687119400012	"4"	50146.674395496	50144.420320613	1.5	0.1
0.01	1	0.00333125999895856	1	51	NA	51.0818202919982	0	0.24	1.03	1	46.3979122300007	46.4012434899996	"4"	50146.674395496	50144.420320613	1.5	0.1
0.01	1	0.00460023000050569	1	51	NA	51.0818202919982	0	0.24	1.03	1	46.6316951850022	46.6362954150027	"4"	50146.674395496	50144.420320613	1.5	0.1
0.01	1	0.00377644100080943	1	51	NA	51.0818202919982	0	0.24	1.03	1	46.8654727649991	46.8692492059999	"4"	50146.674395496	50144.420320613	1.5	0.1
0.01	1	0.00350278500263812	1	51	NA	51.0818202919982	0	0.24	1.03	1	47.0991152049974	47.10261799	"4"	50146.674395496	50144.420320613	1.5	0.1
0.01	1	0.00340852799854474	1	51	NA	51.0818202919982	0	0.24	1.03	1	47.3329295700023	47.3363380980009	"4"	50146.674395496	50144.420320613	1.5	0.1
0.01	1	0.00330969200149411	1	51	NA	51.0818202919982	0	0.24	1.03	1	47.5666407140016	47.569950406003	"4"	50146.674395496	50144.420320613	1.5	0.1
0.01	1	0.00379438099480467	1	51	NA	51.0818202919982	0	0.24	1.03	1	47.8002541250025	47.8040485059973	"4"	50146.674395496	50144.420320613	1.5	0.1
0.01	1	0.00446817700139945	1	51	NA	51.0818202919982	0	0.24	1.03	1	48.0341346630012	48.0386028400026	"4"	50146.674395496	50144.420320613	1.5	0.1
0.01	1	0.00396280999848386	1	51	NA	51.0818202919982	0	0.24	1.03	1	48.267783592004	48.2717464020025	"4"	50146.674395496	50144.420320613	1.5	0.1
0.01	1	0.00329684000462294	1	51	NA	51.0818202919982	0	0.24	1.03	1	48.5015273379977	48.5048241780023	"4"	50146.674395496	50144.420320613	1.5	0.1
0.01	1	0.00373062300059246	1	51	NA	51.0818202919982	0	0.24	1.03	1	48.7352648969973	48.7389955199978	"4"	50146.674395496	50144.420320613	1.5	0.1
0.01	1	0.00368866600183537	1	51	NA	51.0818202919982	0	0.24	1.03	1	48.9689393200024	48.9726279860042	"4"	50146.674395496	50144.420320613	1.5	0.1
0.01	1	0.00383827999758068	1	51	NA	51.0818202919982	0	0.24	1.03	1	49.2026774400001	49.2065157199977	"4"	50146.674395496	50144.420320613	1.5	0.1
0.01	1	0.00374564399680821	1	51	NA	51.0818202919982	0	0.24	1.03	1	49.4363639200019	49.4401095639987	"4"	50146.674395496	50144.420320613	1.5	0.1
0.01	1	0.00383698500081664	1	51	NA	51.0818202919982	0	0.24	1.03	1	49.6700621150012	49.673899100002	"4"	50146.674395496	50144.420320613	1.5	0.1
0.01	1	0.00459499000135111	1	51	NA	51.0818202919982	0	0.24	1.03	1	49.9038304499991	49.9084254400004	"4"	50146.674395496	50144.420320613	1.5	0.1
0.01	1	0.00371005299530225	1	51	NA	51.0818202919982	0	0.24	1.03	1	50.137546265003	50.1412563179983	"4"	50146.674395496	50144.420320613	1.5	0.1
0.01	1	0.00376408400188666	1	51	NA	51.0818202919982	0	0.24	1.03	1	50.3714294099991	50.375193494001	"4"	50146.674395496	50144.420320613	1.5	0.1
0.01	1	0.00391316999593982	1	51	NA	51.0818202919982	0	0.24	1.03	1	50.6049933620016	50.6089065319975	"4"	50146.674395496	50144.420320613	1.5	0.1
0.01	1	0.00364102899766294	1	51	NA	51.0818202919982	0	0.24	1.03	1	50.8388421950003	50.842483223998	"4"	50146.674395496	50144.420320613	1.5	0.1
0.01	1	0.00751321400457527	2	51	NA	51.0818202919982	0	0.24	1.03	1	51.0724746859996	51.0799879000042	"4"	50146.674395496	50144.420320613	1.5	0.1
0.01	1	0.00396698200347601	1	116	NA	64.0789249900045	0	0.33	1.36	1	53.1259730399979	53.1299400220014	"5"	50146.674395496	50144.420320613	1.5	0.1
0.01	1	0.0617678589987918	1	116	NA	64.0789249900045	0	0.33	1.36	1	53.3596138749999	53.4213817339987	"5"	50146.674395496	50144.420320613	1.5	0.1
0.01	1	0.00371585700486321	1	116	NA	64.0789249900045	0	0.33	1.36	1	53.6601737469973	53.6638896040022	"5"	50146.674395496	50144.420320613	1.5	0.1
0.01	1	0.00396495099994354	1	116	NA	64.0789249900045	0	0.33	1.36	1	53.8939036150041	53.897868566004	"5"	50146.674395496	50144.420320613	1.5	0.1
0.01	1	0.0693179100053385	1	116	NA	64.0789249900045	0	0.33	1.36	1	54.1275718199977	54.196889730003	"5"	50146.674395496	50144.420320613	1.5	0.1
0.01	1	0.00381984900013776	1	116	NA	64.0789249900045	0	0.33	1.36	1	54.428123675003	54.4319435240031	"5"	50146.674395496	50144.420320613	1.5	0.1
0.01	1	0.0702419689987437	1	116	NA	64.0789249900045	0	0.33	1.36	1	54.6619329169989	54.7321748859977	"5"	50146.674395496	50144.420320613	1.5	0.1
0.01	1	0.00378780400205869	1	116	NA	64.0789249900045	0	0.33	1.36	1	54.9623744900018	54.9661622940039	"5"	50146.674395496	50144.420320613	1.5	0.1
0.01	1	0.0801130319960066	1	116	NA	64.0789249900045	0	0.33	1.36	1	55.1961241270037	55.2762371589997	"5"	50146.674395496	50144.420320613	1.5	0.1
0.01	1	0.0032534999991185	1	116	NA	64.0789249900045	0	0.33	1.36	1	55.5132518180035	55.5165053180026	"5"	50146.674395496	50144.420320613	1.5	0.1
0.01	1	0.0972217829985311	1	116	NA	64.0789249900045	0	0.33	1.36	1	55.7470382000029	55.8442599830014	"5"	50146.674395496	50144.420320613	1.5	0.1
0.01	1	0.00390907299879473	1	116	NA	64.0789249900045	0	0.33	1.36	1	56.0808856549993	56.0847947279981	"5"	50146.674395496	50144.420320613	1.5	0.1
0.01	1	0.0897271490030107	1	116	NA	64.0789249900045	0	0.33	1.36	1	56.314624865001	56.404352014004	"5"	50146.674395496	50144.420320613	1.5	0.1
0.01	1	0.00205389899929287	1	116	NA	64.0789249900045	0	0.33	1.36	1	56.6316717599984	56.6337256589977	"5"	50146.674395496	50144.420320613	1.5	0.1
0.01	1	0.115569096997206	1	116	NA	64.0789249900045	0	0.33	1.36	1	56.8655126070007	56.9810817039979	"5"	50146.674395496	50144.420320613	1.5	0.1
0.01	1	0.00392988299427088	1	116	NA	64.0789249900045	0	0.33	1.36	1	57.2161032650038	57.220033147998	"5"	50146.674395496	50144.420320613	1.5	0.1
0.01	1	0.0910612809966551	1	116	NA	64.0789249900045	0	0.33	1.36	1	57.4498034850039	57.5408647660006	"5"	50146.674395496	50144.420320613	1.5	0.1
0.01	1	0.00203500199859263	1	116	NA	64.0789249900045	0	0.33	1.36	1	57.7670576200035	57.7690926220021	"5"	50146.674395496	50144.420320613	1.5	0.1
0.01	1	0.0757421450034599	1	116	NA	64.0789249900045	0	0.33	1.36	1	58.0007973199972	58.0765394650007	"5"	50146.674395496	50144.420320613	1.5	0.1
0.01	1	0.00200792199757416	1	116	NA	64.0789249900045	0	0.33	1.36	1	58.3012847850041	58.3032927070017	"5"	50146.674395496	50144.420320613	1.5	0.1
0.01	1	0.102772049998748	1	116	NA	64.0789249900045	0	0.33	1.36	1	58.5350359770018	58.6378080270006	"5"	50146.674395496	50144.420320613	1.5	0.1
0.01	1	0.00386917500145501	1	116	NA	64.0789249900045	0	0.33	1.36	1	58.8689977850008	58.8728669600023	"5"	50146.674395496	50144.420320613	1.5	0.1
0.01	1	0.0950640640003257	1	116	NA	64.0789249900045	0	0.33	1.36	1	59.1027055300001	59.1977695940004	"5"	50146.674395496	50144.420320613	1.5	0.1
0.01	1	0.00207596800464671	1	116	NA	64.0789249900045	0	0.33	1.36	1	59.4198636599976	59.4219396280023	"5"	50146.674395496	50144.420320613	1.5	0.1
0.01	1	0.12015895100194	1	116	NA	64.0789249900045	0	0.33	1.36	1	59.6535090850011	59.7736680360031	"5"	50146.674395496	50144.420320613	1.5	0.1
0.01	1	0.00211893399682594	1	116	NA	64.0789249900045	0	0.33	1.36	1	60.0041753260011	60.006294259998	"5"	50146.674395496	50144.420320613	1.5	0.1
0.01	1	0.00198924900178099	1	116	NA	64.0789249900045	0	0.33	1.36	1	60.2378800799997	60.2398693290015	"5"	50146.674395496	50144.420320613	1.5	0.1
0.01	1	0.116280706999532	1	116	NA	64.0789249900045	0	0.33	1.36	1	60.4716854549988	60.5879661619983	"5"	50146.674395496	50144.420320613	1.5	0.1
0.01	1	0.00203325700567802	1	116	NA	64.0789249900045	0	0.33	1.36	1	60.8222571689985	60.8242904260042	"5"	50146.674395496	50144.420320613	1.5	0.1
0.01	1	0.00240437799948268	1	116	NA	64.0789249900045	0	0.33	1.36	1	61.0559137340024	61.0583181120019	"5"	50146.674395496	50144.420320613	1.5	0.1
0.01	1	0.00207176600088133	1	116	NA	64.0789249900045	0	0.33	1.36	1	61.2897827080014	61.2918544740023	"5"	50146.674395496	50144.420320613	1.5	0.1
0.01	1	0.00970643300388474	1	116	NA	64.0789249900045	0	0.33	1.36	1	61.523349324998	61.5330557580019	"5"	50146.674395496	50144.420320613	1.5	0.1
0.01	1	0.854915540003276	1	116	NA	64.0789249900045	0	0.33	1.36	1	61.7571181849999	62.6120337250031	"5"	50146.674395496	50144.420320613	1.5	0.1
0.01	1	1.23485359500046	2	116	NA	64.0789249900045	0	0.33	1.36	1	62.8424543700021	64.0773079650025	"5"	50146.674395496	50144.420320613	1.5	0.1
0.01	1	0.00387839500035625	1	118	NA	77.3894914359989	0	0.42	1.78	1	66.1311063449975	66.1349847399979	"6"	50146.674395496	50144.420320613	1.5	0.1
0.01	1	0.00459143199987011	1	118	NA	77.3894914359989	0	0.42	1.78	1	66.364892550002	66.3694839820018	"6"	50146.674395496	50144.420320613	1.5	0.1
0.01	1	0.00458358699688688	1	118	NA	77.3894914359989	0	0.42	1.78	1	66.5986838850004	66.6032674719972	"6"	50146.674395496	50144.420320613	1.5	0.1
0.01	1	0.00457458500022767	1	118	NA	77.3894914359989	0	0.42	1.78	1	66.8323795300021	66.8369541150023	"6"	50146.674395496	50144.420320613	1.5	0.1
0.01	1	0.00341439000476385	1	118	NA	77.3894914359989	0	0.42	1.78	1	67.0660727799986	67.0694871700034	"6"	50146.674395496	50144.420320613	1.5	0.1
0.01	1	0.00343326999427518	1	118	NA	77.3894914359989	0	0.42	1.78	1	67.2997563200042	67.3031895899985	"6"	50146.674395496	50144.420320613	1.5	0.1
0.01	1	0.00350405799690634	1	118	NA	77.3894914359989	0	0.42	1.78	1	67.5335747420031	67.5370788	"6"	50146.674395496	50144.420320613	1.5	0.1
0.01	1	0.00374284099962097	1	118	NA	77.3894914359989	0	0.42	1.78	1	67.7673205770043	67.7710634180039	"6"	50146.674395496	50144.420320613	1.5	0.1
0.01	1	0.00395059899892658	1	118	NA	77.3894914359989	0	0.42	1.78	1	68.0010177270015	68.0049683260004	"6"	50146.674395496	50144.420320613	1.5	0.1
0.01	1	0.00405014599527931	1	118	NA	77.3894914359989	0	0.42	1.78	1	68.2348063360041	68.2388564819994	"6"	50146.674395496	50144.420320613	1.5	0.1
0.01	1	0.00388982900039991	1	118	NA	77.3894914359989	0	0.42	1.78	1	68.468399065001	68.4722888940014	"6"	50146.674395496	50144.420320613	1.5	0.1
0.01	1	0.00373584099725122	1	118	NA	77.3894914359989	0	0.42	1.78	1	68.7022366770034	68.7059725180006	"6"	50146.674395496	50144.420320613	1.5	0.1
0.01	1	0.00454013499984285	1	118	NA	77.3894914359989	0	0.42	1.78	1	68.935967174999	68.9405073099988	"6"	50146.674395496	50144.420320613	1.5	0.1
0.01	1	0.00461558700044407	1	118	NA	77.3894914359989	0	0.42	1.78	1	69.1696670099991	69.1742825969995	"6"	50146.674395496	50144.420320613	1.5	0.1
0.01	1	0.00451473199791508	1	118	NA	77.3894914359989	0	0.42	1.78	1	69.403366575003	69.4078813070009	"6"	50146.674395496	50144.420320613	1.5	0.1
0.01	1	0.00460430000384804	1	118	NA	77.3894914359989	0	0.42	1.78	1	69.63710421	69.6417085100038	"6"	50146.674395496	50144.420320613	1.5	0.1
0.01	1	0.00389342500420753	1	118	NA	77.3894914359989	0	0.42	1.78	1	69.8707544249992	69.8746478500034	"6"	50146.674395496	50144.420320613	1.5	0.1
0.01	1	0.00386323600105243	1	118	NA	77.3894914359989	0	0.42	1.78	1	70.104552650002	70.1084158860031	"6"	50146.674395496	50144.420320613	1.5	0.1
0.01	1	0.00456501999724424	1	118	NA	77.3894914359989	0	0.42	1.78	1	70.3382853700023	70.3428503899995	"6"	50146.674395496	50144.420320613	1.5	0.1
0.01	1	0.00339479700051015	1	118	NA	77.3894914359989	0	0.42	1.78	1	70.5719321049983	70.5753269019988	"6"	50146.674395496	50144.420320613	1.5	0.1
0.01	1	0.00376266099920031	1	118	NA	77.3894914359989	0	0.42	1.78	1	70.8057239150003	70.8094865759995	"6"	50146.674395496	50144.420320613	1.5	0.1
0.01	1	0.00384968699654564	1	118	NA	77.3894914359989	0	0.42	1.78	1	71.0395064350014	71.0433561219979	"6"	50146.674395496	50144.420320613	1.5	0.1
0.01	1	0.00427640999987489	1	118	NA	77.3894914359989	0	0.42	1.78	1	71.273139304998	71.2774157149979	"6"	50146.674395496	50144.420320613	1.5	0.1
0.01	1	0.00397728299867595	1	118	NA	77.3894914359989	0	0.42	1.78	1	71.5068236070001	71.5108008899988	"6"	50146.674395496	50144.420320613	1.5	0.1
0.01	1	0.00394114100345178	1	118	NA	77.3894914359989	0	0.42	1.78	1	71.7406206349988	71.7445617760022	"6"	50146.674395496	50144.420320613	1.5	0.1
0.01	1	0.00388356199982809	1	118	NA	77.3894914359989	0	0.42	1.78	1	71.974337159998	71.9782207219978	"6"	50146.674395496	50144.420320613	1.5	0.1
0.01	1	0.00392171999556012	1	118	NA	77.3894914359989	0	0.42	1.78	1	72.2080534920024	72.2119752119979	"6"	50146.674395496	50144.420320613	1.5	0.1
0.01	1	0.00430868600233225	1	118	NA	77.3894914359989	0	0.42	1.78	1	72.4417863089984	72.4460949950007	"6"	50146.674395496	50144.420320613	1.5	0.1
0.01	1	0.00383572300052037	1	118	NA	77.3894914359989	0	0.42	1.78	1	72.6755136170032	72.6793493400037	"6"	50146.674395496	50144.420320613	1.5	0.1
0.01	1	0.00377210300212028	1	118	NA	77.3894914359989	0	0.42	1.78	1	72.9091609570023	72.9129330600044	"6"	50146.674395496	50144.420320613	1.5	0.1
0.01	1	0.00324884599831421	1	118	NA	77.3894914359989	0	0.42	1.78	1	73.1429618780021	73.1462107240004	"6"	50146.674395496	50144.420320613	1.5	0.1
0.01	1	0.00219452300370904	1	118	NA	77.3894914359989	0	0.42	1.78	1	73.3766884869983	73.378883010002	"6"	50146.674395496	50144.420320613	1.5	0.1
0.01	1	0.004186578997178	1	118	NA	77.3894914359989	0	0.42	1.78	1	73.6104604450011	73.6146470239983	"6"	50146.674395496	50144.420320613	1.5	0.1
0.01	1	0.00339488100144081	1	118	NA	77.3894914359989	0	0.42	1.78	1	73.844125607	73.8475204880015	"6"	50146.674395496	50144.420320613	1.5	0.1
0.01	1	0.00395454299723497	1	118	NA	77.3894914359989	0	0.42	1.78	1	74.0778460150032	74.0818005580004	"6"	50146.674395496	50144.420320613	1.5	0.1
0.01	1	0.0040822869996191	1	118	NA	77.3894914359989	0	0.42	1.78	1	74.3116041469984	74.3156864339981	"6"	50146.674395496	50144.420320613	1.5	0.1
0.01	1	0.00381793300039135	1	118	NA	77.3894914359989	0	0.42	1.78	1	74.5452468570002	74.5490647900006	"6"	50146.674395496	50144.420320613	1.5	0.1
0.01	1	0.00378009399719303	1	118	NA	77.3894914359989	0	0.42	1.78	1	74.7790199500014	74.7828000439986	"6"	50146.674395496	50144.420320613	1.5	0.1
0.01	1	0.00330991800001357	1	118	NA	77.3894914359989	0	0.42	1.78	1	75.0128216020021	75.0161315200021	"6"	50146.674395496	50144.420320613	1.5	0.1
0.01	1	0.00436355799320154	1	118	NA	77.3894914359989	0	0.42	1.78	1	75.2465369300044	75.2509004879976	"6"	50146.674395496	50144.420320613	1.5	0.1
0.01	1	0.00461746499786386	1	118	NA	77.3894914359989	0	0.42	1.78	1	75.4802213799994	75.4848388449973	"6"	50146.674395496	50144.420320613	1.5	0.1
0.01	1	1.13893701400229	1	118	NA	77.3894914359989	0	0.42	1.78	1	75.713995099999	76.8529321140013	"6"	50146.674395496	50144.420320613	1.5	0.1
0.01	1	0.305064495005354	2	118	NA	77.3894914359989	0	0.42	1.78	1	77.0828573059989	77.3879218010043	"6"	50146.674395496	50144.420320613	1.5	0.1
0.01	1	0.00392171400017105	1	87	NA	89.1196823369974	0	0.41	2.19	1	79.4368713000003	79.4407930140005	"7"	50146.674395496	50144.420320613	1.5	0.1
0.01	1	0.00375537599757081	1	87	NA	89.1196823369974	0	0.41	2.19	1	79.6706279420032	79.6743833180008	"7"	50146.674395496	50144.420320613	1.5	0.1
0.01	1	0.00375112800247734	1	87	NA	89.1196823369974	0	0.41	2.19	1	79.904395051999	79.9081461800015	"7"	50146.674395496	50144.420320613	1.5	0.1
0.01	1	0.00457339699642034	1	87	NA	89.1196823369974	0	0.41	2.19	1	80.1381116350021	80.1426850319986	"7"	50146.674395496	50144.420320613	1.5	0.1
0.01	1	0.00340996800514404	1	87	NA	89.1196823369974	0	0.41	2.19	1	80.371730769999	80.3751407380041	"7"	50146.674395496	50144.420320613	1.5	0.1
0.01	1	0.00386529800016433	1	87	NA	89.1196823369974	0	0.41	2.19	1	80.6055689400018	80.609434238002	"7"	50146.674395496	50144.420320613	1.5	0.1
0.01	1	0.00442007800302235	1	87	NA	89.1196823369974	0	0.41	2.19	1	80.8392517989996	80.8436718770026	"7"	50146.674395496	50144.420320613	1.5	0.1
0.01	1	0.00462836999940919	1	87	NA	89.1196823369974	0	0.41	2.19	1	81.0730015150039	81.0776298850033	"7"	50146.674395496	50144.420320613	1.5	0.1
0.01	1	0.00327447800373193	1	87	NA	89.1196823369974	0	0.41	2.19	1	81.3067493019989	81.3100237800027	"7"	50146.674395496	50144.420320613	1.5	0.1
0.01	1	0.00397684299969114	1	87	NA	89.1196823369974	0	0.41	2.19	1	81.540334325	81.5443111679997	"7"	50146.674395496	50144.420320613	1.5	0.1
0.01	1	0.00393659100518562	1	87	NA	89.1196823369974	0	0.41	2.19	1	81.7741048169992	81.7780414080044	"7"	50146.674395496	50144.420320613	1.5	0.1
0.01	1	0.00396598000224913	1	87	NA	89.1196823369974	0	0.41	2.19	1	82.0078520719981	82.0118180520003	"7"	50146.674395496	50144.420320613	1.5	0.1
0.01	1	0.00394166399928508	1	87	NA	89.1196823369974	0	0.41	2.19	1	82.2416493120036	82.2455909760029	"7"	50146.674395496	50144.420320613	1.5	0.1
0.01	1	0.00386716600041837	1	87	NA	89.1196823369974	0	0.41	2.19	1	82.475229720003	82.4790968860034	"7"	50146.674395496	50144.420320613	1.5	0.1
0.01	1	0.00342423300025985	1	87	NA	89.1196823369974	0	0.41	2.19	1	82.7090785969995	82.7125028299997	"7"	50146.674395496	50144.420320613	1.5	0.1
0.01	1	0.00454978000198025	1	87	NA	89.1196823369974	0	0.41	2.19	1	82.9428773100008	82.9474270900027	"7"	50146.674395496	50144.420320613	1.5	0.1
0.01	1	0.00395791299524717	1	87	NA	89.1196823369974	0	0.41	2.19	1	83.1764274750021	83.1803853879974	"7"	50146.674395496	50144.420320613	1.5	0.1
0.01	1	0.00393682700087084	1	87	NA	89.1196823369974	0	0.41	2.19	1	83.410209255002	83.4141460820028	"7"	50146.674395496	50144.420320613	1.5	0.1
0.01	1	0.00331353000365198	1	87	NA	89.1196823369974	0	0.41	2.19	1	83.6439860059982	83.6472995360018	"7"	50146.674395496	50144.420320613	1.5	0.1
0.01	1	0.00349293000181206	1	87	NA	89.1196823369974	0	0.41	2.19	1	83.8777182999984	83.8812112300002	"7"	50146.674395496	50144.420320613	1.5	0.1
0.01	1	0.00360630600334844	1	87	NA	89.1196823369974	0	0.41	2.19	1	84.1113830699978	84.1149893760012	"7"	50146.674395496	50144.420320613	1.5	0.1
0.01	1	0.00385215099959169	1	87	NA	89.1196823369974	0	0.41	2.19	1	84.3451673169984	84.349019467998	"7"	50146.674395496	50144.420320613	1.5	0.1
0.01	1	0.00451921000058064	1	87	NA	89.1196823369974	0	0.41	2.19	1	84.5789460200031	84.5834652300036	"7"	50146.674395496	50144.420320613	1.5	0.1
0.01	1	0.00374542699864833	1	87	NA	89.1196823369974	0	0.41	2.19	1	84.8126229970003	84.8163684239989	"7"	50146.674395496	50144.420320613	1.5	0.1
0.01	1	0.00360645299952012	1	87	NA	89.1196823369974	0	0.41	2.19	1	85.0462939950012	85.0499004480007	"7"	50146.674395496	50144.420320613	1.5	0.1
0.01	1	0.00396856299630599	1	87	NA	89.1196823369974	0	0.41	2.19	1	85.2800020950017	85.283970657998	"7"	50146.674395496	50144.420320613	1.5	0.1
0.01	1	0.00441204199887579	1	87	NA	89.1196823369974	0	0.41	2.19	1	85.5136906449989	85.5181026869977	"7"	50146.674395496	50144.420320613	1.5	0.1
0.01	1	0.00382248100504512	1	87	NA	89.1196823369974	0	0.41	2.19	1	85.7475364549973	85.7513589360024	"7"	50146.674395496	50144.420320613	1.5	0.1
0.01	1	0.00387897799373604	1	87	NA	89.1196823369974	0	0.41	2.19	1	85.9812593520037	85.9851383299974	"7"	50146.674395496	50144.420320613	1.5	0.1
0.01	1	0.0043739570028265	1	87	NA	89.1196823369974	0	0.41	2.19	1	86.2149170880002	86.219291045003	"7"	50146.674395496	50144.420320613	1.5	0.1
0.01	1	0.00394514400250046	1	87	NA	89.1196823369974	0	0.41	2.19	1	86.4487047500006	86.4526498940031	"7"	50146.674395496	50144.420320613	1.5	0.1
0.01	1	0.00394927800516598	1	87	NA	89.1196823369974	0	0.41	2.19	1	86.6823957399974	86.6863450180026	"7"	50146.674395496	50144.420320613	1.5	0.1
0.01	1	0.00332054400496418	1	87	NA	89.1196823369974	0	0.41	2.19	1	86.9162086279975	86.9195291720025	"7"	50146.674395496	50144.420320613	1.5	0.1
0.01	1	0.00369572800263995	1	87	NA	89.1196823369974	0	0.41	2.19	1	87.1498290300005	87.1535247580032	"7"	50146.674395496	50144.420320613	1.5	0.1
0.01	1	0.00461332999839215	1	87	NA	89.1196823369974	0	0.41	2.19	1	87.3836061050024	87.3882194350008	"7"	50146.674395496	50144.420320613	1.5	0.1
0.01	1	0.00398691099690041	1	87	NA	89.1196823369974	0	0.41	2.19	1	87.617343195001	87.6213301059979	"7"	50146.674395496	50144.420320613	1.5	0.1
0.01	1	0.00395662200025981	1	87	NA	89.1196823369974	0	0.41	2.19	1	87.8509947100029	87.8549513320031	"7"	50146.674395496	50144.420320613	1.5	0.1
0.01	1	0.00332010599959176	1	87	NA	89.1196823369974	0	0.41	2.19	1	88.084712130003	88.0880322360026	"7"	50146.674395496	50144.420320613	1.5	0.1
0.01	1	0.00387231599597726	1	87	NA	89.1196823369974	0	0.41	2.19	1	88.3185113700019	88.3223836859979	"7"	50146.674395496	50144.420320613	1.5	0.1
0.01	1	0.00437236200377811	1	87	NA	89.1196823369974	0	0.41	2.19	1	88.5522437679974	88.5566161300012	"7"	50146.674395496	50144.420320613	1.5	0.1
0.01	1	0.00397077399975387	1	87	NA	89.1196823369974	0	0.41	2.19	1	88.7859253999995	88.7898961739993	"7"	50146.674395496	50144.420320613	1.5	0.1
0.01	1	0.0985433579990058	2	87	NA	89.1196823369974	0	0.41	2.19	1	89.0196050250015	89.1181483830005	"7"	50146.674395496	50144.420320613	1.5	0.1
0.01	1	0.003916649002349	1	6	92.4620611499995	NA	1	0	2.19	1	91.1732814069983	91.1771980560006	"8"	50146.674395496	50144.420320613	1.5	0.1
0.01	1	0.00337633399612969	1	6	92.4620611499995	NA	1	0	2.19	1	91.4069430020027	91.4103193359988	"8"	50146.674395496	50144.420320613	1.5	0.1
0.01	1	0.00462152199906996	1	6	92.4620611499995	NA	1	0	2.19	1	91.6406964050038	91.6453179270029	"8"	50146.674395496	50144.420320613	1.5	0.1
0.01	1	0.00346008699852973	1	6	92.4620611499995	NA	1	0	2.19	1	91.8744263670014	91.877886454	"8"	50146.674395496	50144.420320613	1.5	0.1
0.01	1	0.00367774299957091	1	6	92.4620611499995	NA	1	0	2.19	1	92.1082004950003	92.1118782379999	"8"	50146.674395496	50144.420320613	1.5	0.1
0.01	1	0.00391331299761077	1	6	92.4620611499995	NA	1	0	2.19	1	92.3419330270044	92.345846340002	"8"	50146.674395496	50144.420320613	1.5	0.1
0.01	1	0.452528264999273	1	106	NA	103.215136667997	0	0.33	2.52	1	94.4955131919996	94.9480414569989	"9"	50146.674395496	50144.420320613	1.5	0.1
0.01	1	0.00353908500255784	1	106	NA	103.215136667997	0	0.33	2.52	1	95.1800262769975	95.1835653620001	"9"	50146.674395496	50144.420320613	1.5	0.1
0.01	1	0.00446336099412292	1	106	NA	103.215136667997	0	0.33	2.52	1	95.4137167490044	95.4181801099985	"9"	50146.674395496	50144.420320613	1.5	0.1
0.01	1	0.0701763850011048	1	106	NA	103.215136667997	0	0.33	2.52	1	95.6475229499993	95.7176993350004	"9"	50146.674395496	50144.420320613	1.5	0.1
0.01	1	0.00377134299924364	1	106	NA	103.215136667997	0	0.33	2.52	1	95.9479738049995	95.9517451479987	"9"	50146.674395496	50144.420320613	1.5	0.1
0.01	1	0.0784208300028695	1	106	NA	103.215136667997	0	0.33	2.52	1	96.1817336800013	96.2601545100042	"9"	50146.674395496	50144.420320613	1.5	0.1
0.01	1	0.0990003449987853	1	106	NA	103.215136667997	0	0.33	2.52	1	96.4989647570037	96.5979651020025	"9"	50146.674395496	50144.420320613	1.5	0.1
0.01	1	0.0419602540059714	1	106	NA	103.215136667997	0	0.33	2.52	1	96.832638437998	96.8745986920039	"9"	50146.674395496	50144.420320613	1.5	0.1
0.01	1	0.105378019005002	1	106	NA	103.215136667997	0	0.33	2.52	1	97.0998939249985	97.2052719440035	"9"	50146.674395496	50144.420320613	1.5	0.1
0.01	1	0.00458670499938307	1	106	NA	103.215136667997	0	0.33	2.52	1	97.4338798649987	97.4384665699981	"9"	50146.674395496	50144.420320613	1.5	0.1
0.01	1	0.00377646499691764	1	106	NA	103.215136667997	0	0.33	2.52	1	97.6676387650004	97.6714152299974	"9"	50146.674395496	50144.420320613	1.5	0.1
0.01	1	0.00452381200011587	1	106	NA	103.215136667997	0	0.33	2.52	1	97.9012697549988	97.9057935669989	"9"	50146.674395496	50144.420320613	1.5	0.1
0.01	1	0.00464865699905204	1	106	NA	103.215136667997	0	0.33	2.52	1	98.1350282400017	98.1396768970008	"9"	50146.674395496	50144.420320613	1.5	0.1
0.01	1	0.00376827300351579	1	106	NA	103.215136667997	0	0.33	2.52	1	98.3687788370007	98.3725471100042	"9"	50146.674395496	50144.420320613	1.5	0.1
0.01	1	0.00386122900090413	1	106	NA	103.215136667997	0	0.33	2.52	1	98.6024838849989	98.6063451139999	"9"	50146.674395496	50144.420320613	1.5	0.1
0.01	1	0.00336196999705862	1	106	NA	103.215136667997	0	0.33	2.52	1	98.8362090880037	98.8395710580007	"9"	50146.674395496	50144.420320613	1.5	0.1
0.01	1	0.00383726300060516	1	106	NA	103.215136667997	0	0.33	2.52	1	99.0699714570001	99.0738087200007	"9"	50146.674395496	50144.420320613	1.5	0.1
0.01	1	0.00434505299926968	1	106	NA	103.215136667997	0	0.33	2.52	1	99.3035687520023	99.3079138050016	"9"	50146.674395496	50144.420320613	1.5	0.1
0.01	1	0.00435329599713441	1	106	NA	103.215136667997	0	0.33	2.52	1	99.5373128360006	99.5416661319978	"9"	50146.674395496	50144.420320613	1.5	0.1
0.01	1	0.00388017999648582	1	106	NA	103.215136667997	0	0.33	2.52	1	99.771001330002	99.7748815099985	"9"	50146.674395496	50144.420320613	1.5	0.1
0.01	1	0.00355806399602443	1	106	NA	103.215136667997	0	0.33	2.52	1	100.004777380003	100.008335443999	"9"	50146.674395496	50144.420320613	1.5	0.1
0.01	1	0.00387306600168813	1	106	NA	103.215136667997	0	0.33	2.52	1	100.238607109997	100.242480175999	"9"	50146.674395496	50144.420320613	1.5	0.1
0.01	1	0.00392545400245581	1	106	NA	103.215136667997	0	0.33	2.52	1	100.472279271999	100.476204726001	"9"	50146.674395496	50144.420320613	1.5	0.1
0.01	1	0.00373614599811845	1	106	NA	103.215136667997	0	0.33	2.52	1	100.706069899999	100.709806045998	"9"	50146.674395496	50144.420320613	1.5	0.1
0.01	1	0.00389680299849715	1	106	NA	103.215136667997	0	0.33	2.52	1	100.939793185004	100.943689988002	"9"	50146.674395496	50144.420320613	1.5	0.1
0.01	1	0.00366027600102825	1	106	NA	103.215136667997	0	0.33	2.52	1	101.17342947	101.177089746001	"9"	50146.674395496	50144.420320613	1.5	0.1
0.01	1	0.00354271900141612	1	106	NA	103.215136667997	0	0.33	2.52	1	101.407177396999	101.410720116	"9"	50146.674395496	50144.420320613	1.5	0.1
0.01	1	0.00381692800146993	1	106	NA	103.215136667997	0	0.33	2.52	1	101.640817350002	101.644634278004	"9"	50146.674395496	50144.420320613	1.5	0.1
0.01	1	0.00385213700064924	1	106	NA	103.215136667997	0	0.33	2.52	1	101.874598144997	101.878450281998	"9"	50146.674395496	50144.420320613	1.5	0.1
0.01	1	0.00396490300045116	1	106	NA	103.215136667997	0	0.33	2.52	1	102.108470747	102.11243565	"9"	50146.674395496	50144.420320613	1.5	0.1
0.01	1	0.00357880700175883	1	106	NA	103.215136667997	0	0.33	2.52	1	102.342090926999	102.345669734001	"9"	50146.674395496	50144.420320613	1.5	0.1
0.01	1	0.00385294199804775	1	106	NA	103.215136667997	0	0.33	2.52	1	102.575709910001	102.579562851999	"9"	50146.674395496	50144.420320613	1.5	0.1
0.01	1	0.00428716999886092	1	106	NA	103.215136667997	0	0.33	2.52	1	102.809538182002	102.813825352001	"9"	50146.674395496	50144.420320613	1.5	0.1
0.01	1	0.1703757389987	2	106	NA	103.215136667997	0	0.33	2.52	1	103.043222897002	103.213598636001	"9"	50146.674395496	50144.420320613	1.5	0.1
0.01	1	0.0524988420002046	1	21	110.876125506999	NA	1	0	2.52	1	105.263569037001	105.316067879001	"10"	50146.674395496	50144.420320613	1.5	0.1
0.01	1	0.00201123300212203	1	21	110.876125506999	NA	1	0	2.52	1	105.547509709999	105.549520943001	"10"	50146.674395496	50144.420320613	1.5	0.1
0.01	1	0.00444065199553734	1	21	110.876125506999	NA	1	0	2.52	1	105.781233678004	105.78567433	"10"	50146.674395496	50144.420320613	1.5	0.1
0.01	1	0.0628122099951725	1	21	110.876125506999	NA	1	0	2.52	1	106.014892320003	106.077704529998	"10"	50146.674395496	50144.420320613	1.5	0.1
0.01	1	0.0020515419964795	1	21	110.876125506999	NA	1	0	2.52	1	106.315470467001	106.317522008998	"10"	50146.674395496	50144.420320613	1.5	0.1
0.01	1	0.0633624029942439	1	21	110.876125506999	NA	1	0	2.52	1	106.549099827003	106.612462229998	"10"	50146.674395496	50144.420320613	1.5	0.1
0.01	1	0.106902198000171	1	21	110.876125506999	NA	1	0	2.52	1	106.849702330001	106.956604528001	"10"	50146.674395496	50144.420320613	1.5	0.1
0.01	1	0.00201845099945785	1	21	110.876125506999	NA	1	0	2.52	1	107.183609559004	107.185628010004	"10"	50146.674395496	50144.420320613	1.5	0.1
0.01	1	0.0190525239959243	1	21	110.876125506999	NA	1	0	2.52	1	107.417425500003	107.436478023999	"10"	50146.674395496	50144.420320613	1.5	0.1
0.01	1	0.0723806630048784	1	21	110.876125506999	NA	1	0	2.52	1	107.667665091998	107.740045755003	"10"	50146.674395496	50144.420320613	1.5	0.1
0.01	1	0.0694919830057188	1	21	110.876125506999	NA	1	0	2.52	1	107.968268484998	108.037760468003	"10"	50146.674395496	50144.420320613	1.5	0.1
0.01	1	0.087599105994741	1	21	110.876125506999	NA	1	0	2.52	1	108.268721352004	108.356320457999	"10"	50146.674395496	50144.420320613	1.5	0.1
0.01	1	0.107256662005966	1	21	110.876125506999	NA	1	0	2.52	1	108.585928034998	108.693184697004	"10"	50146.674395496	50144.420320613	1.5	0.1
0.01	1	0.00455844699899899	1	21	110.876125506999	NA	1	0	2.52	1	108.919786810002	108.924345257001	"10"	50146.674395496	50144.420320613	1.5	0.1
0.01	1	0.00309365599969169	1	21	110.876125506999	NA	1	0	2.52	1	109.153493154001	109.156586810001	"10"	50146.674395496	50144.420320613	1.5	0.1
0.01	1	0.00200744999892777	1	21	110.876125506999	NA	1	0	2.52	1	109.387328967001	109.389336417	"10"	50146.674395496	50144.420320613	1.5	0.1
0.01	1	0.0726299320012913	1	21	110.876125506999	NA	1	0	2.52	1	109.620985239999	109.693615172	"10"	50146.674395496	50144.420320613	1.5	0.1
0.01	1	0.00201025999558624	1	21	110.876125506999	NA	1	0	2.52	1	109.921465079002	109.923475338997	"10"	50146.674395496	50144.420320613	1.5	0.1
0.01	1	0.0728912390040932	1	21	110.876125506999	NA	1	0	2.52	1	110.15530346	110.228194699004	"10"	50146.674395496	50144.420320613	1.5	0.1
0.01	1	0.00453963699692395	1	21	110.876125506999	NA	1	0	2.52	1	110.455775955001	110.460315591998	"10"	50146.674395496	50144.420320613	1.5	0.1
0.01	1	0.075872460998653	1	21	110.876125506999	NA	1	0	2.52	1	110.689512764999	110.765385225997	"10"	50146.674395496	50144.420320613	1.5	0.1
0.01	1	0.230091935001838	1	19	NA	117.902047715004	0	0.18	2.7	1	112.926534149999	113.156626085001	"11"	50146.674395496	50144.420320613	1.5	0.1
0.01	1	0.002263717004098	1	19	NA	117.902047715004	0	0.18	2.7	1	113.393881611999	113.396145329003	"11"	50146.674395496	50144.420320613	1.5	0.1
0.01	1	0.00207751199923223	1	19	NA	117.902047715004	0	0.18	2.7	1	113.627687335	113.629764846999	"11"	50146.674395496	50144.420320613	1.5	0.1
0.01	1	0.119820834006532	1	19	NA	117.902047715004	0	0.18	2.7	1	113.861389309997	113.981210144004	"11"	50146.674395496	50144.420320613	1.5	0.1
0.01	1	0.00206372400134569	1	19	NA	117.902047715004	0	0.18	2.7	1	114.212102582998	114.214166307	"11"	50146.674395496	50144.420320613	1.5	0.1
0.01	1	0.127092059003189	1	19	NA	117.902047715004	0	0.18	2.7	1	114.445733640001	114.572825699004	"11"	50146.674395496	50144.420320613	1.5	0.1
0.01	1	0.00206008399982238	1	19	NA	117.902047715004	0	0.18	2.7	1	114.796429729999	114.798489813998	"11"	50146.674395496	50144.420320613	1.5	0.1
0.01	1	0.00207865899574244	1	19	NA	117.902047715004	0	0.18	2.7	1	115.030115400004	115.032194059	"11"	50146.674395496	50144.420320613	1.5	0.1
0.01	1	0.00211778599623358	1	19	NA	117.902047715004	0	0.18	2.7	1	115.263727768004	115.265845554	"11"	50146.674395496	50144.420320613	1.5	0.1
0.01	1	0.00203451400011545	1	19	NA	117.902047715004	0	0.18	2.7	1	115.497613416002	115.499647930003	"11"	50146.674395496	50144.420320613	1.5	0.1
0.01	1	0.00462133000110043	1	19	NA	117.902047715004	0	0.18	2.7	1	115.731239685003	115.735861015004	"11"	50146.674395496	50144.420320613	1.5	0.1
0.01	1	0.00200434800353833	1	19	NA	117.902047715004	0	0.18	2.7	1	115.964912864998	115.966917213002	"11"	50146.674395496	50144.420320613	1.5	0.1
0.01	1	0.0942827450053301	1	19	NA	117.902047715004	0	0.18	2.7	1	116.198752509998	116.293035255003	"11"	50146.674395496	50144.420320613	1.5	0.1
0.01	1	0.0020495629942161	1	19	NA	117.902047715004	0	0.18	2.7	1	116.515890496004	116.517940058999	"11"	50146.674395496	50144.420320613	1.5	0.1
0.01	1	0.104070499000954	1	19	NA	117.902047715004	0	0.18	2.7	1	116.749682897003	116.853753396004	"11"	50146.674395496	50144.420320613	1.5	0.1
0.01	1	0.00461911700404016	1	19	NA	117.902047715004	0	0.18	2.7	1	117.083491735	117.088110852004	"11"	50146.674395496	50144.420320613	1.5	0.1
0.01	1	0.102935362003336	1	19	NA	117.902047715004	0	0.18	2.7	1	117.31722456	117.420159922003	"11"	50146.674395496	50144.420320613	1.5	0.1
0.01	1	0.0045769799980917	1	19	NA	117.902047715004	0	0.18	2.7	1	117.651343785001	117.655920764999	"11"	50146.674395496	50144.420320613	1.5	0.1
0.01	1	0.0156363019996206	2	19	NA	117.902047715004	0	0.18	2.7	1	117.884815860001	117.900452162001	"11"	50146.674395496	50144.420320613	1.5	0.1
0.01	1	0.369616928997857	1	63	NA	128.372978216001	0	0.28	2.98	1	119.955026447002	120.324643376	"12"	50146.674395496	50144.420320613	1.5	0.1
0.01	1	0.011277962999884	1	63	NA	128.372978216001	0	0.28	2.98	1	120.556068425001	120.567346388001	"12"	50146.674395496	50144.420320613	1.5	0.1
0.01	1	0.00457599700166611	1	63	NA	128.372978216001	0	0.28	2.98	1	120.789787829999	120.794363827001	"12"	50146.674395496	50144.420320613	1.5	0.1
0.01	1	0.109166905000166	1	63	NA	128.372978216001	0	0.28	2.98	1	121.023532569998	121.132699474998	"12"	50146.674395496	50144.420320613	1.5	0.1
0.01	1	0.00208060399745591	1	63	NA	128.372978216001	0	0.28	2.98	1	121.357400125002	121.359480728999	"12"	50146.674395496	50144.420320613	1.5	0.1
0.01	1	0.00209613399783848	1	63	NA	128.372978216001	0	0.28	2.98	1	121.591161085002	121.593257218999	"12"	50146.674395496	50144.420320613	1.5	0.1
0.01	1	0.00390448499820195	1	63	NA	128.372978216001	0	0.28	2.98	1	121.824776225003	121.828680710001	"12"	50146.674395496	50144.420320613	1.5	0.1
0.01	1	0.00463233699701959	1	63	NA	128.372978216001	0	0.28	2.98	1	122.05861634	122.063248676997	"12"	50146.674395496	50144.420320613	1.5	0.1
0.01	1	0.00396928600093815	1	63	NA	128.372978216001	0	0.28	2.98	1	122.292371042	122.296340328001	"12"	50146.674395496	50144.420320613	1.5	0.1
0.01	1	0.0625991470005829	1	63	NA	128.372978216001	0	0.28	2.98	1	122.526077786999	122.588676934	"12"	50146.674395496	50144.420320613	1.5	0.1
0.01	1	0.00204078500246396	1	63	NA	128.372978216001	0	0.28	2.98	1	122.826576795	122.828617580002	"12"	50146.674395496	50144.420320613	1.5	0.1
0.01	1	0.00392249900323804	1	63	NA	128.372978216001	0	0.28	2.98	1	123.060259585	123.064182084003	"12"	50146.674395496	50144.420320613	1.5	0.1
0.01	1	0.926939969998784	1	63	NA	128.372978216001	0	0.28	2.98	1	123.294054405	124.220994374999	"12"	50146.674395496	50144.420320613	1.5	0.1
0.01	1	0.00212588599970331	1	63	NA	128.372978216001	0	0.28	2.98	1	124.445987110004	124.448112996004	"12"	50146.674395496	50144.420320613	1.5	0.1
0.01	1	0.110088907000318	1	63	NA	128.372978216001	0	0.28	2.98	1	124.679611792002	124.789700699002	"12"	50146.674395496	50144.420320613	1.5	0.1
0.01	1	0.00398319200030528	1	63	NA	128.372978216001	0	0.28	2.98	1	125.013583402004	125.017566594004	"12"	50146.674395496	50144.420320613	1.5	0.1
0.01	1	0.10977154399734	1	63	NA	128.372978216001	0	0.28	2.98	1	125.247296442001	125.357067985999	"12"	50146.674395496	50144.420320613	1.5	0.1
0.01	1	0.00212266999733401	1	63	NA	128.372978216001	0	0.28	2.98	1	125.581191875004	125.583314545001	"12"	50146.674395496	50144.420320613	1.5	0.1
0.01	1	0.00200271500216331	1	63	NA	128.372978216001	0	0.28	2.98	1	125.814951968998	125.816954684	"12"	50146.674395496	50144.420320613	1.5	0.1
0.01	1	0.00386073099798523	1	63	NA	128.372978216001	0	0.28	2.98	1	126.048657867002	126.052518598	"12"	50146.674395496	50144.420320613	1.5	0.1
0.01	1	0.00207718800083967	1	63	NA	128.372978216001	0	0.28	2.98	1	126.282271358999	126.284348547	"12"	50146.674395496	50144.420320613	1.5	0.1
0.01	1	0.00396817799628479	1	63	NA	128.372978216001	0	0.28	2.98	1	126.516020820003	126.519988997999	"12"	50146.674395496	50144.420320613	1.5	0.1
0.01	1	0.0869650049935444	1	63	NA	128.372978216001	0	0.28	2.98	1	126.749776000004	126.836741004998	"12"	50146.674395496	50144.420320613	1.5	0.1
0.01	1	0.0045368619976216	1	63	NA	128.372978216001	0	0.28	2.98	1	127.067216050003	127.071752912001	"12"	50146.674395496	50144.420320613	1.5	0.1
0.01	1	0.0795090430037817	1	63	NA	128.372978216001	0	0.28	2.98	1	127.300695746999	127.380204790003	"12"	50146.674395496	50144.420320613	1.5	0.1
0.01	1	0.0043165669994778	1	63	NA	128.372978216001	0	0.28	2.98	1	127.617923425001	127.622239992001	"12"	50146.674395496	50144.420320613	1.5	0.1
0.01	1	0.00392072200338589	1	63	NA	128.372978216001	0	0.28	2.98	1	127.851675491998	127.855596214002	"12"	50146.674395496	50144.420320613	1.5	0.1
0.01	1	0.0474659120009164	1	63	NA	128.372978216001	0	0.28	2.98	1	128.085389330001	128.132855242002	"12"	50146.674395496	50144.420320613	1.5	0.1
0.01	1	0.00209894699946744	2	63	NA	128.372978216001	0	0.28	2.98	1	128.369136731002	128.371235678002	"12"	50146.674395496	50144.420320613	1.5	0.1
0.01	1	12.101729805996	1	54	NA	147.398406892004	0	0.16	3.14	1	130.405870137001	142.507599942997	"13"	50146.674395496	50144.420320613	1.5	0.1
0.01	1	0.00208284999825992	1	54	NA	147.398406892004	0	0.16	3.14	1	142.743350704004	142.745433554002	"13"	50146.674395496	50144.420320613	1.5	0.1
0.01	1	0.0833279869984835	1	54	NA	147.398406892004	0	0.16	3.14	1	142.977080864999	143.060408851998	"13"	50146.674395496	50144.420320613	1.5	0.1
0.01	1	0.00209249799809186	1	54	NA	147.398406892004	0	0.16	3.14	1	143.294282586001	143.296375083999	"13"	50146.674395496	50144.420320613	1.5	0.1
0.01	1	0.0768460050021531	1	54	NA	147.398406892004	0	0.16	3.14	1	143.528006597	143.604852602002	"13"	50146.674395496	50144.420320613	1.5	0.1
0.01	1	0.0039305489990511	1	54	NA	147.398406892004	0	0.16	3.14	1	143.828445587002	143.832376136001	"13"	50146.674395496	50144.420320613	1.5	0.1
0.01	1	0.00206992599851219	1	54	NA	147.398406892004	0	0.16	3.14	1	144.062287612003	144.064357538002	"13"	50146.674395496	50144.420320613	1.5	0.1
0.01	1	0.109112889003882	1	54	NA	147.398406892004	0	0.16	3.14	1	144.295908316999	144.405021206003	"13"	50146.674395496	50144.420320613	1.5	0.1
0.01	1	0.00377168300474295	1	54	NA	147.398406892004	0	0.16	3.14	1	144.629891894998	144.633663578003	"13"	50146.674395496	50144.420320613	1.5	0.1
0.01	1	0.109621142000833	1	54	NA	147.398406892004	0	0.16	3.14	1	144.863644450001	144.973265592002	"13"	50146.674395496	50144.420320613	1.5	0.1
0.01	1	0.00257314399641473	1	54	NA	147.398406892004	0	0.16	3.14	1	145.197466146004	145.200039290001	"13"	50146.674395496	50144.420320613	1.5	0.1
0.01	1	0.00200275899987901	1	54	NA	147.398406892004	0	0.16	3.14	1	145.431232397998	145.433235156997	"13"	50146.674395496	50144.420320613	1.5	0.1
0.01	1	0.00318622800114099	1	54	NA	147.398406892004	0	0.16	3.14	1	145.664869763998	145.668055991999	"13"	50146.674395496	50144.420320613	1.5	0.1
0.01	1	0.0176286079949932	1	54	NA	147.398406892004	0	0.16	3.14	1	145.898702520004	145.916331127999	"13"	50146.674395496	50144.420320613	1.5	0.1
0.01	1	0.551944886996353	1	54	NA	147.398406892004	0	0.16	3.14	1	146.149100672003	146.701045558999	"13"	50146.674395496	50144.420320613	1.5	0.1
0.01	1	0.00211895200482104	1	54	NA	147.398406892004	0	0.16	3.14	1	146.933694553998	146.935813506003	"13"	50146.674395496	50144.420320613	1.5	0.1
0.01	1	0.229401456999767	2	54	NA	147.398406892004	0	0.16	3.14	1	147.167423457002	147.396824914002	"13"	50146.674395496	50144.420320613	1.5	0.1
0.01	1	4.67869089700253	NA	103	NA	154.118233362002	0	0	3.14	1	149.437992382002	154.116683279004	"14"	50146.674395496	50144.420320613	1.5	0.1
0.01	1	0.293018856995332	1	120	NA	164.325096107998	0	0.23	3.37	1	156.165953695003	156.458972551998	"15"	50146.674395496	50144.420320613	1.5	0.1
0.01	1	0.00200559399672784	1	120	NA	164.325096107998	0	0.23	3.37	1	156.700168280004	156.702173874	"15"	50146.674395496	50144.420320613	1.5	0.1
0.01	1	0.0618624889975763	1	120	NA	164.325096107998	0	0.23	3.37	1	156.9339177	156.995780188998	"15"	50146.674395496	50144.420320613	1.5	0.1
0.01	1	0.00464232999365777	1	120	NA	164.325096107998	0	0.23	3.37	1	157.217698345004	157.222340674998	"15"	50146.674395496	50144.420320613	1.5	0.1
0.01	1	0.0960411740015843	1	120	NA	164.325096107998	0	0.23	3.37	1	157.451637600003	157.547678774004	"15"	50146.674395496	50144.420320613	1.5	0.1
0.01	1	0.12327970899787	1	120	NA	164.325096107998	0	0.23	3.37	1	157.785305195001	157.908584903998	"15"	50146.674395496	50144.420320613	1.5	0.1
0.01	1	0.00237899999774527	1	120	NA	164.325096107998	0	0.23	3.37	1	158.135952518001	158.138331517999	"15"	50146.674395496	50144.420320613	1.5	0.1
0.01	1	0.122994598001242	1	120	NA	164.325096107998	0	0.23	3.37	1	158.369613809999	158.492608408	"15"	50146.674395496	50144.420320613	1.5	0.1
0.01	1	0.0045551150033134	1	120	NA	164.325096107998	0	0.23	3.37	1	158.720323005	158.724878120003	"15"	50146.674395496	50144.420320613	1.5	0.1
0.01	1	0.00459276200126624	1	120	NA	164.325096107998	0	0.23	3.37	1	158.953962375002	158.958555137004	"15"	50146.674395496	50144.420320613	1.5	0.1
0.01	1	0.136527210001077	1	120	NA	164.325096107998	0	0.23	3.37	1	159.187733651997	159.324260861998	"15"	50146.674395496	50144.420320613	1.5	0.1
0.01	1	0.00200807300279848	1	120	NA	164.325096107998	0	0.23	3.37	1	159.555045927998	159.557054001001	"15"	50146.674395496	50144.420320613	1.5	0.1
0.01	1	0.00198879899835447	1	120	NA	164.325096107998	0	0.23	3.37	1	159.788776166999	159.790764965997	"15"	50146.674395496	50144.420320613	1.5	0.1
0.01	1	0.00211832999775652	1	120	NA	164.325096107998	0	0.23	3.37	1	160.022391539002	160.024509868999	"15"	50146.674395496	50144.420320613	1.5	0.1
0.01	1	0.00304334799875505	1	120	NA	164.325096107998	0	0.23	3.37	1	160.256103252003	160.259146600001	"15"	50146.674395496	50144.420320613	1.5	0.1
0.01	1	0.00399793699762085	1	120	NA	164.325096107998	0	0.23	3.37	1	160.489870707002	160.493868644	"15"	50146.674395496	50144.420320613	1.5	0.1
0.01	1	0.00425556499976665	1	120	NA	164.325096107998	0	0.23	3.37	1	160.723596975004	160.727852540003	"15"	50146.674395496	50144.420320613	1.5	0.1
0.01	1	0.00209075699967798	1	120	NA	164.325096107998	0	0.23	3.37	1	160.957380947999	160.959471704999	"15"	50146.674395496	50144.420320613	1.5	0.1
0.01	1	0.213927623000927	1	120	NA	164.325096107998	0	0.23	3.37	1	161.191099987002	161.405027610002	"15"	50146.674395496	50144.420320613	1.5	0.1
0.01	1	0.107226985004672	1	120	NA	164.325096107998	0	0.23	3.37	1	161.641828669999	161.749055655004	"15"	50146.674395496	50144.420320613	1.5	0.1
0.01	1	0.579684352000186	1	120	NA	164.325096107998	0	0.23	3.37	1	161.975625626997	162.555309978998	"15"	50146.674395496	50144.420320613	1.5	0.1
0.01	1	0.361772176001978	1	120	NA	164.325096107998	0	0.23	3.37	1	162.793659684998	163.155431861	"15"	50146.674395496	50144.420320613	1.5	0.1
0.01	1	0.346389981998072	1	120	NA	164.325096107998	0	0.23	3.37	1	163.378099497	163.724489478998	"15"	50146.674395496	50144.420320613	1.5	0.1
0.01	1	0.361132683996402	2	120	NA	164.325096107998	0	0.23	3.37	1	163.962403117002	164.323535800999	"15"	50146.674395496	50144.420320613	1.5	0.1
0.01	1	0.245468752000306	1	109	NA	175.006136395001	0	0.3	3.67	1	166.366403852	166.611872604	"16"	50146.674395496	50144.420320613	1.5	0.1
0.01	1	0.00212245200236794	1	109	NA	175.006136395001	0	0.3	3.67	1	166.850507948002	166.852630400004	"16"	50146.674395496	50144.420320613	1.5	0.1
0.01	1	0.0953556690001278	1	109	NA	175.006136395001	0	0.3	3.67	1	167.084345477	167.179701146	"16"	50146.674395496	50144.420320613	1.5	0.1
0.01	1	0.00381557400396559	1	109	NA	175.006136395001	0	0.3	3.67	1	167.418226989997	167.422042564001	"16"	50146.674395496	50144.420320613	1.5	0.1
0.01	1	0.104792512996937	1	109	NA	175.006136395001	0	0.3	3.67	1	167.651869432004	167.756661945001	"16"	50146.674395496	50144.420320613	1.5	0.1
0.01	1	0.00454891499975929	1	109	NA	175.006136395001	0	0.3	3.67	1	167.985891864999	167.990440779999	"16"	50146.674395496	50144.420320613	1.5	0.1
0.01	1	0.00465016499947524	1	109	NA	175.006136395001	0	0.3	3.67	1	168.219574665003	168.224224830003	"16"	50146.674395496	50144.420320613	1.5	0.1
0.01	1	0.00461334700230509	1	109	NA	175.006136395001	0	0.3	3.67	1	168.453355040001	168.457968387003	"16"	50146.674395496	50144.420320613	1.5	0.1
0.01	1	0.1079765290051	1	109	NA	175.006136395001	0	0.3	3.67	1	168.687141269998	168.795117799003	"16"	50146.674395496	50144.420320613	1.5	0.1
0.01	1	0.00459607700031484	1	109	NA	175.006136395001	0	0.3	3.67	1	169.020921255003	169.025517332004	"16"	50146.674395496	50144.420320613	1.5	0.1
0.01	1	0.102415359004226	1	109	NA	175.006136395001	0	0.3	3.67	1	169.25453192	169.356947279004	"16"	50146.674395496	50144.420320613	1.5	0.1
0.01	1	0.00386512600380229	1	109	NA	175.006136395001	0	0.3	3.67	1	169.588460671999	169.592325798003	"16"	50146.674395496	50144.420320613	1.5	0.1
0.01	1	0.102224014997773	1	109	NA	175.006136395001	0	0.3	3.67	1	169.822221257004	169.924445272001	"16"	50146.674395496	50144.420320613	1.5	0.1
0.01	1	0.00206109900318552	1	109	NA	175.006136395001	0	0.3	3.67	1	170.156114614998	170.158175714001	"16"	50146.674395496	50144.420320613	1.5	0.1
0.01	1	0.126494624004408	1	109	NA	175.006136395001	0	0.3	3.67	1	170.389927174998	170.516421799002	"16"	50146.674395496	50144.420320613	1.5	0.1
0.01	1	0.00377110599947628	1	109	NA	175.006136395001	0	0.3	3.67	1	170.740449260004	170.744220366003	"16"	50146.674395496	50144.420320613	1.5	0.1
0.01	1	0.00382305800303584	1	109	NA	175.006136395001	0	0.3	3.67	1	170.974175069998	170.977998128001	"16"	50146.674395496	50144.420320613	1.5	0.1
0.01	1	0.100435699998343	1	109	NA	175.006136395001	0	0.3	3.67	1	171.207848620004	171.308284320003	"16"	50146.674395496	50144.420320613	1.5	0.1
0.01	1	0.00212384499900509	1	109	NA	175.006136395001	0	0.3	3.67	1	171.541712974999	171.543836819998	"16"	50146.674395496	50144.420320613	1.5	0.1
0.01	1	0.00452896200295072	1	109	NA	175.006136395001	0	0.3	3.67	1	171.775468615	171.779997577003	"16"	50146.674395496	50144.420320613	1.5	0.1
0.01	1	0.107375644001877	1	109	NA	175.006136395001	0	0.3	3.67	1	172.009363215002	172.116738859004	"16"	50146.674395496	50144.420320613	1.5	0.1
0.01	1	0.00207331200363114	1	109	NA	175.006136395001	0	0.3	3.67	1	172.343169633998	172.345242946001	"16"	50146.674395496	50144.420320613	1.5	0.1
0.01	1	0.00366442200174788	1	109	NA	175.006136395001	0	0.3	3.67	1	172.57686999	172.580534412002	"16"	50146.674395496	50144.420320613	1.5	0.1
0.01	1	0.12250490400038	1	109	NA	175.006136395001	0	0.3	3.67	1	172.810498530001	172.933003434002	"16"	50146.674395496	50144.420320613	1.5	0.1
0.01	1	0.00204407999990508	1	109	NA	175.006136395001	0	0.3	3.67	1	173.161270074997	173.163314154997	"16"	50146.674395496	50144.420320613	1.5	0.1
0.01	1	0.00228303900075844	1	109	NA	175.006136395001	0	0.3	3.67	1	173.394873819998	173.397156858999	"16"	50146.674395496	50144.420320613	1.5	0.1
0.01	1	0.13595336599974	1	109	NA	175.006136395001	0	0.3	3.67	1	173.628620871998	173.764574237997	"16"	50146.674395496	50144.420320613	1.5	0.1
0.01	1	0.00227394600369735	1	109	NA	175.006136395001	0	0.3	3.67	1	173.995875241999	173.998149188003	"16"	50146.674395496	50144.420320613	1.5	0.1
0.01	1	0.00211918499553576	1	109	NA	175.006136395001	0	0.3	3.67	1	174.229640062003	174.231759246999	"16"	50146.674395496	50144.420320613	1.5	0.1
0.01	1	0.00205186400125967	1	109	NA	175.006136395001	0	0.3	3.67	1	174.463387085998	174.465438949999	"16"	50146.674395496	50144.420320613	1.5	0.1
0.01	1	0.307402111997362	2	109	NA	175.006136395001	0	0.3	3.67	1	174.697152500004	175.004554612002	"16"	50146.674395496	50144.420320613	1.5	0.1
0.01	1	0.182803657000477	1	71	NA	187.501320800999	0	0.29	3.96	1	177.051069465	177.233873122001	"17"	50146.674395496	50144.420320613	1.5	0.1
0.01	1	0.079260358994361	1	71	NA	187.501320800999	0	0.29	3.96	1	177.468635340003	177.547895698997	"17"	50146.674395496	50144.420320613	1.5	0.1
0.01	1	0.00462396000511944	1	71	NA	187.501320800999	0	0.29	3.96	1	177.785786059998	177.790410020003	"17"	50146.674395496	50144.420320613	1.5	0.1
0.01	1	0.12822947800305	1	71	NA	187.501320800999	0	0.29	3.96	1	178.019385182	178.147614660003	"17"	50146.674395496	50144.420320613	1.5	0.1
0.01	1	0.00461125499714399	1	71	NA	187.501320800999	0	0.29	3.96	1	178.369962850004	178.374574105001	"17"	50146.674395496	50144.420320613	1.5	0.1
0.01	1	0.00463827999919886	1	71	NA	187.501320800999	0	0.29	3.96	1	178.603633735001	178.608272015001	"17"	50146.674395496	50144.420320613	1.5	0.1
0.01	1	0.00202540199825307	1	71	NA	187.501320800999	0	0.29	3.96	1	178.837409726002	178.839435128	"17"	50146.674395496	50144.420320613	1.5	0.1
0.01	1	0.00377005300106248	1	71	NA	187.501320800999	0	0.29	3.96	1	179.071125927003	179.074895980004	"17"	50146.674395496	50144.420320613	1.5	0.1
0.01	1	0.00458086000435287	1	71	NA	187.501320800999	0	0.29	3.96	1	179.304865354999	179.309446215004	"17"	50146.674395496	50144.420320613	1.5	0.1
0.01	1	0.00388597499841126	1	71	NA	187.501320800999	0	0.29	3.96	1	179.538549407	179.542435381998	"17"	50146.674395496	50144.420320613	1.5	0.1
0.01	1	0.00201047100563301	1	71	NA	187.501320800999	0	0.29	3.96	1	179.772358046997	179.774368518003	"17"	50146.674395496	50144.420320613	1.5	0.1
0.01	1	0.00452079199749278	1	71	NA	187.501320800999	0	0.29	3.96	1	180.005983175004	180.010503967002	"17"	50146.674395496	50144.420320613	1.5	0.1
0.01	1	0.00408165199769428	1	71	NA	187.501320800999	0	0.29	3.96	1	180.239752652	180.243834303998	"17"	50146.674395496	50144.420320613	1.5	0.1
0.01	1	0.00386651299777441	1	71	NA	187.501320800999	0	0.29	3.96	1	180.473461797003	180.47732831	"17"	50146.674395496	50144.420320613	1.5	0.1
0.01	1	0.00391086899617221	1	71	NA	187.501320800999	0	0.29	3.96	1	180.707127517002	180.711038385998	"17"	50146.674395496	50144.420320613	1.5	0.1
0.01	1	0.150306515999546	1	71	NA	187.501320800999	0	0.29	3.96	1	180.940905805001	181.091212321	"17"	50146.674395496	50144.420320613	1.5	0.1
0.01	1	0.00344347799546085	1	71	NA	187.501320800999	0	0.29	3.96	1	181.324938980004	181.328382457999	"17"	50146.674395496	50144.420320613	1.5	0.1
0.01	1	0.00336298199545126	1	71	NA	187.501320800999	0	0.29	3.96	1	181.558678722002	181.562041703997	"17"	50146.674395496	50144.420320613	1.5	0.1
0.01	1	0.00218687699816655	1	71	NA	187.501320800999	0	0.29	3.96	1	181.792373140001	181.794560016999	"17"	50146.674395496	50144.420320613	1.5	0.1
0.01	1	0.00464766700315522	1	71	NA	187.501320800999	0	0.29	3.96	1	182.02610322	182.030750887003	"17"	50146.674395496	50144.420320613	1.5	0.1
0.01	1	0.0490916760027176	1	71	NA	187.501320800999	0	0.29	3.96	1	182.259875741998	182.308967418001	"17"	50146.674395496	50144.420320613	1.5	0.1
0.01	1	0.0673229310050374	1	71	NA	187.501320800999	0	0.29	3.96	1	182.543671464999	182.610994396004	"17"	50146.674395496	50144.420320613	1.5	0.1
0.01	1	0.83172844100045	1	71	NA	187.501320800999	0	0.29	3.96	1	182.844100237002	183.675828678002	"17"	50146.674395496	50144.420320613	1.5	0.1
0.01	1	0.00402864899660926	1	71	NA	187.501320800999	0	0.29	3.96	1	183.912578125004	183.916606774001	"17"	50146.674395496	50144.420320613	1.5	0.1
0.01	1	0.449202525000146	1	71	NA	187.501320800999	0	0.29	3.96	1	184.146359967002	184.595562492003	"17"	50146.674395496	50144.420320613	1.5	0.1
0.01	1	0.00460314999509137	1	71	NA	187.501320800999	0	0.29	3.96	1	184.830812555003	184.835415704998	"17"	50146.674395496	50144.420320613	1.5	0.1
0.01	1	0.420364082005108	1	71	NA	187.501320800999	0	0.29	3.96	1	185.064600256999	185.484964339004	"17"	50146.674395496	50144.420320613	1.5	0.1
0.01	1	0.0038662610022584	1	71	NA	187.501320800999	0	0.29	3.96	1	185.715595627	185.719461888002	"17"	50146.674395496	50144.420320613	1.5	0.1
0.01	1	0.965794597999775	1	71	NA	187.501320800999	0	0.29	3.96	1	185.949480740004	186.915275338004	"17"	50146.674395496	50144.420320613	1.5	0.1
0.01	1	0.348487547998957	2	71	NA	187.501320800999	0	0.29	3.96	1	187.151294057003	187.499781605002	"17"	50146.674395496	50144.420320613	1.5	0.1
0.01	1	0.361594400004833	1	96	NA	201.973060285003	0	0.43	4.39	1	189.538724844999	189.900319245004	"18"	50146.674395496	50144.420320613	1.5	0.1
0.01	1	0.00394918100209907	1	96	NA	201.973060285003	0	0.43	4.39	1	190.139667994998	190.143617176	"18"	50146.674395496	50144.420320613	1.5	0.1
0.01	1	0.00393340499431361	1	96	NA	201.973060285003	0	0.43	4.39	1	190.373467727004	190.377401131998	"18"	50146.674395496	50144.420320613	1.5	0.1
0.01	1	0.00386718800291419	1	96	NA	201.973060285003	0	0.43	4.39	1	190.607122891997	190.61099008	"18"	50146.674395496	50144.420320613	1.5	0.1
0.01	1	0.00456955000117887	1	96	NA	201.973060285003	0	0.43	4.39	1	190.841012024997	190.845581574999	"18"	50146.674395496	50144.420320613	1.5	0.1
0.01	1	0.00394386000698432	1	96	NA	201.973060285003	0	0.43	4.39	1	191.074550031997	191.078493892004	"18"	50146.674395496	50144.420320613	1.5	0.1
0.01	1	0.0039518190023955	1	96	NA	201.973060285003	0	0.43	4.39	1	191.308404994998	191.312356814	"18"	50146.674395496	50144.420320613	1.5	0.1
0.01	1	0.00397157300176332	1	96	NA	201.973060285003	0	0.43	4.39	1	191.542037644998	191.546009218	"18"	50146.674395496	50144.420320613	1.5	0.1
0.01	1	0.00350578099460108	1	96	NA	201.973060285003	0	0.43	4.39	1	191.775831345003	191.779337125998	"18"	50146.674395496	50144.420320613	1.5	0.1
0.01	1	0.00345672999537783	1	96	NA	201.973060285003	0	0.43	4.39	1	192.009542420004	192.01299915	"18"	50146.674395496	50144.420320613	1.5	0.1
0.01	1	0.00411409499793081	1	96	NA	201.973060285003	0	0.43	4.39	1	192.243313699	192.247427793998	"18"	50146.674395496	50144.420320613	1.5	0.1
0.01	1	0.00453022299916483	1	96	NA	201.973060285003	0	0.43	4.39	1	192.477022491999	192.481552714999	"18"	50146.674395496	50144.420320613	1.5	0.1
0.01	1	0.00390238800173393	1	96	NA	201.973060285003	0	0.43	4.39	1	192.710722292002	192.714624680004	"18"	50146.674395496	50144.420320613	1.5	0.1
0.01	1	0.0046459649965982	1	96	NA	201.973060285003	0	0.43	4.39	1	192.944517595002	192.949163559999	"18"	50146.674395496	50144.420320613	1.5	0.1
0.01	1	0.00394671699905302	1	96	NA	201.973060285003	0	0.43	4.39	1	193.178200105001	193.182146822001	"18"	50146.674395496	50144.420320613	1.5	0.1
0.01	1	0.00396173600165639	1	96	NA	201.973060285003	0	0.43	4.39	1	193.41188788	193.415849616002	"18"	50146.674395496	50144.420320613	1.5	0.1
0.01	1	0.00390192100167042	1	96	NA	201.973060285003	0	0.43	4.39	1	193.645612417	193.649514338002	"18"	50146.674395496	50144.420320613	1.5	0.1
0.01	1	0.0363682509996579	1	96	NA	201.973060285003	0	0.43	4.39	1	193.87937717	193.915745421	"18"	50146.674395496	50144.420320613	1.5	0.1
0.01	1	0.00455833500018343	1	96	NA	201.973060285003	0	0.43	4.39	1	194.146494524997	194.151052859997	"18"	50146.674395496	50144.420320613	1.5	0.1
0.01	1	0.039921770003275	1	96	NA	201.973060285003	0	0.43	4.39	1	194.380177927	194.420099697003	"18"	50146.674395496	50144.420320613	1.5	0.1
0.01	1	0.00403383599768858	1	96	NA	201.973060285003	0	0.43	4.39	1	194.647329370004	194.651363206001	"18"	50146.674395496	50144.420320613	1.5	0.1
0.01	1	0.0277548910016776	1	96	NA	201.973060285003	0	0.43	4.39	1	194.881158730001	194.908913621002	"18"	50146.674395496	50144.420320613	1.5	0.1
0.01	1	0.00212000300234649	1	96	NA	201.973060285003	0	0.43	4.39	1	195.131532095002	195.133652098004	"18"	50146.674395496	50144.420320613	1.5	0.1
0.01	1	0.0636065889993915	1	96	NA	201.973060285003	0	0.43	4.39	1	195.365183296002	195.428789885002	"18"	50146.674395496	50144.420320613	1.5	0.1
0.01	1	0.00395685200055595	1	96	NA	201.973060285003	0	0.43	4.39	1	195.665723092003	195.669679944003	"18"	50146.674395496	50144.420320613	1.5	0.1
0.01	1	0.0813482680023299	1	96	NA	201.973060285003	0	0.43	4.39	1	195.899453186998	195.980801455	"18"	50146.674395496	50144.420320613	1.5	0.1
0.01	1	0.00390757499553729	1	96	NA	201.973060285003	0	0.43	4.39	1	196.216603685003	196.220511259999	"18"	50146.674395496	50144.420320613	1.5	0.1
0.01	1	0.113038919000246	1	96	NA	201.973060285003	0	0.43	4.39	1	196.450290059998	196.563328978998	"18"	50146.674395496	50144.420320613	1.5	0.1
0.01	1	0.0041285639963462	1	96	NA	201.973060285003	0	0.43	4.39	1	196.800923586001	196.805052149997	"18"	50146.674395496	50144.420320613	1.5	0.1
0.01	1	0.073271166998893	1	96	NA	201.973060285003	0	0.43	4.39	1	197.034721030002	197.107992197001	"18"	50146.674395496	50144.420320613	1.5	0.1
0.01	1	0.0020380429996294	1	96	NA	201.973060285003	0	0.43	4.39	1	197.335235466999	197.337273509998	"18"	50146.674395496	50144.420320613	1.5	0.1
0.01	1	0.139534556998115	1	96	NA	201.973060285003	0	0.43	4.39	1	197.568876905003	197.708411462001	"18"	50146.674395496	50144.420320613	1.5	0.1
0.01	1	0.0021684399980586	1	96	NA	201.973060285003	0	0.43	4.39	1	197.936117605001	197.938286044999	"18"	50146.674395496	50144.420320613	1.5	0.1
0.01	1	0.00201652800024021	1	96	NA	201.973060285003	0	0.43	4.39	1	198.169895997002	198.171912525002	"18"	50146.674395496	50144.420320613	1.5	0.1
0.01	1	0.0038366689987015	1	96	NA	201.973060285003	0	0.43	4.39	1	198.403641247001	198.407477916	"18"	50146.674395496	50144.420320613	1.5	0.1
0.01	1	0.00395059100264916	1	96	NA	201.973060285003	0	0.43	4.39	1	198.637344326999	198.641294918001	"18"	50146.674395496	50144.420320613	1.5	0.1
0.01	1	0.140834069003176	1	96	NA	201.973060285003	0	0.43	4.39	1	198.871154287997	199.011988357001	"18"	50146.674395496	50144.420320613	1.5	0.1
0.01	1	0.00226220199692762	1	96	NA	201.973060285003	0	0.43	4.39	1	199.238343219004	199.240605421001	"18"	50146.674395496	50144.420320613	1.5	0.1
0.01	1	0.00205714999901829	1	96	NA	201.973060285003	0	0.43	4.39	1	199.472158584002	199.474215734001	"18"	50146.674395496	50144.420320613	1.5	0.1
0.01	1	0.00449213700630935	1	96	NA	201.973060285003	0	0.43	4.39	1	199.705867999997	199.710360137004	"18"	50146.674395496	50144.420320613	1.5	0.1
0.01	1	0.00466141999640968	1	96	NA	201.973060285003	0	0.43	4.39	1	199.939502975001	199.944164394998	"18"	50146.674395496	50144.420320613	1.5	0.1
0.01	1	0.00428583200118737	1	96	NA	201.973060285003	0	0.43	4.39	1	200.173213695001	200.177499527003	"18"	50146.674395496	50144.420320613	1.5	0.1
0.01	1	0.149678128000232	1	96	NA	201.973060285003	0	0.43	4.39	1	200.407000407002	200.556678535002	"18"	50146.674395496	50144.420320613	1.5	0.1
0.01	1	1.18055088399706	2	96	NA	201.973060285003	0	0.43	4.39	1	200.790977855002	201.971528738999	"18"	50146.674395496	50144.420320613	1.5	0.1
0.01	1	1.23049349600478	1	91	NA	215.676885330002	0	0.37	4.76	1	204.013116344999	205.243609841003	"19"	50146.674395496	50144.420320613	1.5	0.1
0.01	1	0.00389181799982907	1	91	NA	215.676885330002	0	0.37	4.76	1	205.482128529999	205.486020347998	"19"	50146.674395496	50144.420320613	1.5	0.1
0.01	1	0.120352082005411	1	91	NA	215.676885330002	0	0.37	4.76	1	205.715916314999	205.836268397004	"19"	50146.674395496	50144.420320613	1.5	0.1
0.01	1	0.0896276839994243	1	91	NA	215.676885330002	0	0.37	4.76	1	206.066558040002	206.156185724001	"19"	50146.674395496	50144.420320613	1.5	0.1
0.01	1	0.00461177199758822	1	91	NA	215.676885330002	0	0.37	4.76	1	206.383745095001	206.388356866999	"19"	50146.674395496	50144.420320613	1.5	0.1
0.01	1	0.067391968004813	1	91	NA	215.676885330002	0	0.37	4.76	1	206.617543066997	206.684935035002	"19"	50146.674395496	50144.420320613	1.5	0.1
0.01	1	0.00207258299633395	1	91	NA	215.676885330002	0	0.37	4.76	1	206.918016287003	206.92008887	"19"	50146.674395496	50144.420320613	1.5	0.1
0.01	1	0.107903105999867	1	91	NA	215.676885330002	0	0.37	4.76	1	207.151691630002	207.259594736002	"19"	50146.674395496	50144.420320613	1.5	0.1
0.01	1	0.00465916199755156	1	91	NA	215.676885330002	0	0.37	4.76	1	207.485589985001	207.490249146998	"19"	50146.674395496	50144.420320613	1.5	0.1
0.01	1	0.00376714100275422	1	91	NA	215.676885330002	0	0.37	4.76	1	207.719318914998	207.723086056001	"19"	50146.674395496	50144.420320613	1.5	0.1
0.01	1	0.0904926399962278	1	91	NA	215.676885330002	0	0.37	4.76	1	207.952986748001	208.043479387998	"19"	50146.674395496	50144.420320613	1.5	0.1
0.01	1	0.00461679699947126	1	91	NA	215.676885330002	0	0.37	4.76	1	208.270222915002	208.274839712001	"19"	50146.674395496	50144.420320613	1.5	0.1
0.01	1	0.00466964000224834	1	91	NA	215.676885330002	0	0.37	4.76	1	208.50398709	208.508656730002	"19"	50146.674395496	50144.420320613	1.5	0.1
0.01	1	0.0669382769992808	1	91	NA	215.676885330002	0	0.37	4.76	1	208.737762785	208.804701061999	"19"	50146.674395496	50144.420320613	1.5	0.1
0.01	1	0.004457379996893	1	91	NA	215.676885330002	0	0.37	4.76	1	209.038243185001	209.042700564998	"19"	50146.674395496	50144.420320613	1.5	0.1
0.01	1	0.0757827630004613	1	91	NA	215.676885330002	0	0.37	4.76	1	209.271919445004	209.347702208004	"19"	50146.674395496	50144.420320613	1.5	0.1
0.01	1	0.00456256499455776	1	91	NA	215.676885330002	0	0.37	4.76	1	209.572423005004	209.576985569998	"19"	50146.674395496	50144.420320613	1.5	0.1
0.01	1	0.0039231650007423	1	91	NA	215.676885330002	0	0.37	4.76	1	209.806240976999	209.810164142	"19"	50146.674395496	50144.420320613	1.5	0.1
0.01	1	0.0836791280016769	1	91	NA	215.676885330002	0	0.37	4.76	1	210.03984972	210.123528848002	"19"	50146.674395496	50144.420320613	1.5	0.1
0.01	1	0.00210566899477271	1	91	NA	215.676885330002	0	0.37	4.76	1	210.357087349003	210.359193017997	"19"	50146.674395496	50144.420320613	1.5	0.1
0.01	1	0.00458232199889608	1	91	NA	215.676885330002	0	0.37	4.76	1	210.590786235	210.595368556998	"19"	50146.674395496	50144.420320613	1.5	0.1
0.01	1	0.0914450839991332	1	91	NA	215.676885330002	0	0.37	4.76	1	210.824583965004	210.916029049004	"19"	50146.674395496	50144.420320613	1.5	0.1
0.01	1	0.00382687599631026	1	91	NA	215.676885330002	0	0.37	4.76	1	211.141726660004	211.145553536	"19"	50146.674395496	50144.420320613	1.5	0.1
0.01	1	0.00392378499964252	1	91	NA	215.676885330002	0	0.37	4.76	1	211.375373406998	211.379297191997	"19"	50146.674395496	50144.420320613	1.5	0.1
0.01	1	0.0750336910059559	1	91	NA	215.676885330002	0	0.37	4.76	1	211.609096706998	211.684130398004	"19"	50146.674395496	50144.420320613	1.5	0.1
0.01	1	0.00444981699547498	1	91	NA	215.676885330002	0	0.37	4.76	1	211.909693945003	211.914143761998	"19"	50146.674395496	50144.420320613	1.5	0.1
0.01	1	0.124034551998193	1	91	NA	215.676885330002	0	0.37	4.76	1	212.143364050004	212.267398602002	"19"	50146.674395496	50144.420320613	1.5	0.1
0.01	1	0.00208692800515564	1	91	NA	215.676885330002	0	0.37	4.76	1	212.493955179998	212.496042108003	"19"	50146.674395496	50144.420320613	1.5	0.1
0.01	1	0.00359120999928564	1	91	NA	215.676885330002	0	0.37	4.76	1	212.727676250004	212.731267460003	"19"	50146.674395496	50144.420320613	1.5	0.1
0.01	1	0.202895535003336	1	91	NA	215.676885330002	0	0.37	4.76	1	212.961461769999	213.164357305002	"19"	50146.674395496	50144.420320613	1.5	0.1
0.01	1	0.00206659099785611	1	91	NA	215.676885330002	0	0.37	4.76	1	213.395534969	213.397601559998	"19"	50146.674395496	50144.420320613	1.5	0.1
0.01	1	0.00462247199902777	1	91	NA	215.676885330002	0	0.37	4.76	1	213.629285704999	213.633908176998	"19"	50146.674395496	50144.420320613	1.5	0.1
0.01	1	0.0613889169981121	1	91	NA	215.676885330002	0	0.37	4.76	1	213.863038125004	213.924427042002	"19"	50146.674395496	50144.420320613	1.5	0.1
0.01	1	0.00201639800070552	1	91	NA	215.676885330002	0	0.37	4.76	1	214.146807099001	214.148823497002	"19"	50146.674395496	50144.420320613	1.5	0.1
0.01	1	0.0044121270038886	1	91	NA	215.676885330002	0	0.37	4.76	1	214.380620249998	214.385032377002	"19"	50146.674395496	50144.420320613	1.5	0.1
0.01	1	0.11753604200203	1	91	NA	215.676885330002	0	0.37	4.76	1	214.614211986998	214.731748029	"19"	50146.674395496	50144.420320613	1.5	0.1
0.01	1	0.00207518699608045	1	91	NA	215.676885330002	0	0.37	4.76	1	214.964833317004	214.966908504	"19"	50146.674395496	50144.420320613	1.5	0.1
0.01	1	0.476758115000848	2	91	NA	215.676885330002	0	0.37	4.76	1	215.198544680003	215.675302795004	"19"	50146.674395496	50144.420320613	1.5	0.1
0.01	1	3.7544441200007	1	5	222.647492287004	NA	1	0	4.76	1	217.7361475	221.49059162	"20"	50146.674395496	50144.420320613	1.5	0.1
0.01	1	0.0672247190013877	1	5	222.647492287004	NA	1	0	4.76	1	221.726211749999	221.793436469001	"20"	50146.674395496	50144.420320613	1.5	0.1
0.01	1	0.00391157400008524	1	5	222.647492287004	NA	1	0	4.76	1	222.026790930002	222.030702504002	"20"	50146.674395496	50144.420320613	1.5	0.1
0.01	1	0.0456163700000616	1	5	222.647492287004	NA	1	0	4.76	1	222.260513955	222.306130325	"20"	50146.674395496	50144.420320613	1.5	0.1
0.01	1	0.00206863899802556	1	5	222.647492287004	NA	1	0	4.76	1	222.527538610004	222.529607249002	"20"	50146.674395496	50144.420320613	1.5	0.1
0.01	1	0.273314443002164	1	123	NA	236.802564086	0	0.37	5.13	1	224.681230385002	224.954544828004	"21"	50146.674395496	50144.420320613	1.5	0.1
0.01	1	0.00218091900023865	1	123	NA	236.802564086	0	0.37	5.13	1	225.181988365999	225.184169284999	"21"	50146.674395496	50144.420320613	1.5	0.1
0.01	1	0.106355625001015	1	123	NA	236.802564086	0	0.37	5.13	1	225.415624679001	225.521980304002	"21"	50146.674395496	50144.420320613	1.5	0.1
0.01	1	0.00208393600041745	1	123	NA	236.802564086	0	0.37	5.13	1	225.749637662004	225.751721598004	"21"	50146.674395496	50144.420320613	1.5	0.1
0.01	1	0.0744641950004734	1	123	NA	236.802564086	0	0.37	5.13	1	225.983239159999	226.057703355	"21"	50146.674395496	50144.420320613	1.5	0.1
0.01	1	0.00457332999940263	1	123	NA	236.802564086	0	0.37	5.13	1	226.283924535004	226.288497865004	"21"	50146.674395496	50144.420320613	1.5	0.1
0.01	1	0.0046535319997929	1	123	NA	236.802564086	0	0.37	5.13	1	226.517702785	226.522356317	"21"	50146.674395496	50144.420320613	1.5	0.1
0.01	1	0.00454300199635327	1	123	NA	236.802564086	0	0.37	5.13	1	226.751433035002	226.755976036999	"21"	50146.674395496	50144.420320613	1.5	0.1
0.01	1	0.00372368399985135	1	123	NA	236.802564086	0	0.37	5.13	1	226.985056491998	226.988780175998	"21"	50146.674395496	50144.420320613	1.5	0.1
0.01	1	0.00381433900474804	1	123	NA	236.802564086	0	0.37	5.13	1	227.218768646999	227.222582986004	"21"	50146.674395496	50144.420320613	1.5	0.1
0.01	1	0.00463451499672374	1	123	NA	236.802564086	0	0.37	5.13	1	227.452560595004	227.457195110001	"21"	50146.674395496	50144.420320613	1.5	0.1
0.01	1	0.00397855800110847	1	123	NA	236.802564086	0	0.37	5.13	1	227.686221989999	227.690200548001	"21"	50146.674395496	50144.420320613	1.5	0.1
0.01	1	0.00332570799946552	1	123	NA	236.802564086	0	0.37	5.13	1	227.919962270003	227.923287978003	"21"	50146.674395496	50144.420320613	1.5	0.1
0.01	1	0.00381342000036966	1	123	NA	236.802564086	0	0.37	5.13	1	228.1536853	228.15749872	"21"	50146.674395496	50144.420320613	1.5	0.1
0.01	1	0.00393828999949619	1	123	NA	236.802564086	0	0.37	5.13	1	228.387345392002	228.391283682002	"21"	50146.674395496	50144.420320613	1.5	0.1
0.01	1	0.00434218200098258	1	123	NA	236.802564086	0	0.37	5.13	1	228.621138672999	228.625480855	"21"	50146.674395496	50144.420320613	1.5	0.1
0.01	1	0.00389678599458421	1	123	NA	236.802564086	0	0.37	5.13	1	228.854847020004	228.858743805999	"21"	50146.674395496	50144.420320613	1.5	0.1
0.01	1	0.00342780999926617	1	123	NA	236.802564086	0	0.37	5.13	1	229.088571330001	229.091999140001	"21"	50146.674395496	50144.420320613	1.5	0.1
0.01	1	0.00388701100018807	1	123	NA	236.802564086	0	0.37	5.13	1	229.322331306998	229.326218317998	"21"	50146.674395496	50144.420320613	1.5	0.1
0.01	1	0.00387995500204852	1	123	NA	236.802564086	0	0.37	5.13	1	229.556091535	229.559971490002	"21"	50146.674395496	50144.420320613	1.5	0.1
0.01	1	0.00454937999893446	1	123	NA	236.802564086	0	0.37	5.13	1	229.789843819999	229.794393199998	"21"	50146.674395496	50144.420320613	1.5	0.1
0.01	1	0.00455102499836357	1	123	NA	236.802564086	0	0.37	5.13	1	230.023713930001	230.028264954999	"21"	50146.674395496	50144.420320613	1.5	0.1
0.01	1	0.00373801500245463	1	123	NA	236.802564086	0	0.37	5.13	1	230.257241865002	230.260979880004	"21"	50146.674395496	50144.420320613	1.5	0.1
0.01	1	0.00388093399669742	1	123	NA	236.802564086	0	0.37	5.13	1	230.490910040004	230.494790974	"21"	50146.674395496	50144.420320613	1.5	0.1
0.01	1	0.00391447499714559	1	123	NA	236.802564086	0	0.37	5.13	1	230.724643727001	230.728558201998	"21"	50146.674395496	50144.420320613	1.5	0.1
0.01	1	0.00375245299801463	1	123	NA	236.802564086	0	0.37	5.13	1	230.958383215002	230.962135668	"21"	50146.674395496	50144.420320613	1.5	0.1
0.01	1	0.00396485099918209	1	123	NA	236.802564086	0	0.37	5.13	1	231.192166216999	231.196131067998	"21"	50146.674395496	50144.420320613	1.5	0.1
0.01	1	0.00349340499815298	1	123	NA	236.802564086	0	0.37	5.13	1	231.425815287002	231.429308692001	"21"	50146.674395496	50144.420320613	1.5	0.1
0.01	1	0.00465188999805832	1	123	NA	236.802564086	0	0.37	5.13	1	231.659553750003	231.664205640001	"21"	50146.674395496	50144.420320613	1.5	0.1
0.01	1	0.00387397400481859	1	123	NA	236.802564086	0	0.37	5.13	1	231.893295139998	231.897169114003	"21"	50146.674395496	50144.420320613	1.5	0.1
0.01	1	0.00461119200190296	1	123	NA	236.802564086	0	0.37	5.13	1	232.127145284998	232.131756477	"21"	50146.674395496	50144.420320613	1.5	0.1
0.01	1	0.00349832999927457	1	123	NA	236.802564086	0	0.37	5.13	1	232.360711289999	232.364209619998	"21"	50146.674395496	50144.420320613	1.5	0.1
0.01	1	0.67931922400021	1	123	NA	236.802564086	0	0.37	5.13	1	232.594547407003	233.273866631003	"21"	50146.674395496	50144.420320613	1.5	0.1
0.01	1	0.00273187299899291	1	123	NA	236.802564086	0	0.37	5.13	1	233.495912742001	233.498644615	"21"	50146.674395496	50144.420320613	1.5	0.1
0.01	1	0.544155342002341	1	123	NA	236.802564086	0	0.37	5.13	1	233.729702516997	234.273857859	"21"	50146.674395496	50144.420320613	1.5	0.1
0.01	1	0.0568202409995138	1	123	NA	236.802564086	0	0.37	5.13	1	234.49766624	234.554486481	"21"	50146.674395496	50144.420320613	1.5	0.1
0.01	1	0.740148651006166	1	123	NA	236.802564086	0	0.37	5.13	1	234.781472816998	235.521621468004	"21"	50146.674395496	50144.420320613	1.5	0.1
0.01	1	1.0511737209963	2	123	NA	236.802564086	0	0.37	5.13	1	235.749807592001	236.800981312997	"21"	50146.674395496	50144.420320613	1.5	0.1
0.01	1	0.298102742002811	1	81	NA	248.234680052999	0	0.31	5.44	1	238.855015929999	239.153118672002	"22"	50146.674395496	50144.420320613	1.5	0.1
0.01	1	0.00459427200257778	1	81	NA	248.234680052999	0	0.31	5.44	1	239.389257684998	239.393851957	"22"	50146.674395496	50144.420320613	1.5	0.1
0.01	1	0.00388925599690992	1	81	NA	248.234680052999	0	0.31	5.44	1	239.622882720003	239.626771976	"22"	50146.674395496	50144.420320613	1.5	0.1
0.01	1	0.00391150799987372	1	81	NA	248.234680052999	0	0.31	5.44	1	239.856680771998	239.860592279998	"22"	50146.674395496	50144.420320613	1.5	0.1
0.01	1	0.00398001899884548	1	81	NA	248.234680052999	0	0.31	5.44	1	240.090474647004	240.094454666003	"22"	50146.674395496	50144.420320613	1.5	0.1
0.01	1	0.00360580300184665	1	81	NA	248.234680052999	0	0.31	5.44	1	240.324144897	240.327750700002	"22"	50146.674395496	50144.420320613	1.5	0.1
0.01	1	0.00381214800290763	1	81	NA	248.234680052999	0	0.31	5.44	1	240.557926779999	240.561738928001	"22"	50146.674395496	50144.420320613	1.5	0.1
0.01	1	0.00394459800008917	1	81	NA	248.234680052999	0	0.31	5.44	1	240.791569872003	240.795514470003	"22"	50146.674395496	50144.420320613	1.5	0.1
0.01	1	0.00394652099930681	1	81	NA	248.234680052999	0	0.31	5.44	1	241.025315407001	241.029261928001	"22"	50146.674395496	50144.420320613	1.5	0.1
0.01	1	0.004602574997989	1	81	NA	248.234680052999	0	0.31	5.44	1	241.259116790003	241.263719365001	"22"	50146.674395496	50144.420320613	1.5	0.1
0.01	1	0.00372120300016832	1	81	NA	248.234680052999	0	0.31	5.44	1	241.492819017003	241.496540220003	"22"	50146.674395496	50144.420320613	1.5	0.1
0.01	1	0.00400996499956818	1	81	NA	248.234680052999	0	0.31	5.44	1	241.726530027001	241.730539992001	"22"	50146.674395496	50144.420320613	1.5	0.1
0.01	1	0.00455325499933679	1	81	NA	248.234680052999	0	0.31	5.44	1	241.960287480004	241.964840735003	"22"	50146.674395496	50144.420320613	1.5	0.1
0.01	1	0.00393831400288036	1	81	NA	248.234680052999	0	0.31	5.44	1	242.193938942	242.197877256003	"22"	50146.674395496	50144.420320613	1.5	0.1
0.01	1	0.00373169600061374	1	81	NA	248.234680052999	0	0.31	5.44	1	242.427626310004	242.431358006004	"22"	50146.674395496	50144.420320613	1.5	0.1
0.01	1	0.00454920499760192	1	81	NA	248.234680052999	0	0.31	5.44	1	242.661424235004	242.665973440002	"22"	50146.674395496	50144.420320613	1.5	0.1
0.01	1	0.00374045100033982	1	81	NA	248.234680052999	0	0.31	5.44	1	242.895187834998	242.898928285998	"22"	50146.674395496	50144.420320613	1.5	0.1
0.01	1	0.00379014200007077	1	81	NA	248.234680052999	0	0.31	5.44	1	243.128879019998	243.132669161998	"22"	50146.674395496	50144.420320613	1.5	0.1
0.01	1	0.0035405630042078	1	81	NA	248.234680052999	0	0.31	5.44	1	243.362574207	243.366114770004	"22"	50146.674395496	50144.420320613	1.5	0.1
0.01	1	0.00358830099867191	1	81	NA	248.234680052999	0	0.31	5.44	1	243.596258227	243.599846527999	"22"	50146.674395496	50144.420320613	1.5	0.1
0.01	1	0.00382003300182987	1	81	NA	248.234680052999	0	0.31	5.44	1	243.830116785	243.833936818002	"22"	50146.674395496	50144.420320613	1.5	0.1
0.01	1	0.00395559900061926	1	81	NA	248.234680052999	0	0.31	5.44	1	244.063761404999	244.067717004	"22"	50146.674395496	50144.420320613	1.5	0.1
0.01	1	0.00357032899773913	1	81	NA	248.234680052999	0	0.31	5.44	1	244.297488245	244.301058573998	"22"	50146.674395496	50144.420320613	1.5	0.1
0.01	1	0.0045908949978184	1	81	NA	248.234680052999	0	0.31	5.44	1	244.531307290003	244.535898185	"22"	50146.674395496	50144.420320613	1.5	0.1
0.01	1	0.00350502900255378	1	81	NA	248.234680052999	0	0.31	5.44	1	244.764926814998	244.768431844001	"22"	50146.674395496	50144.420320613	1.5	0.1
0.01	1	0.00383756100200117	1	81	NA	248.234680052999	0	0.31	5.44	1	244.998663286999	245.002500848001	"22"	50146.674395496	50144.420320613	1.5	0.1
0.01	1	0.00456922000012128	1	81	NA	248.234680052999	0	0.31	5.44	1	245.232532754999	245.237101974999	"22"	50146.674395496	50144.420320613	1.5	0.1
0.01	1	0.00394461600080831	1	81	NA	248.234680052999	0	0.31	5.44	1	245.466201652001	245.470146268002	"22"	50146.674395496	50144.420320613	1.5	0.1
0.01	1	0.66134198999498	1	81	NA	248.234680052999	0	0.31	5.44	1	245.699883692003	246.361225681998	"22"	50146.674395496	50144.420320613	1.5	0.1
0.01	1	0.00206798799626995	1	81	NA	248.234680052999	0	0.31	5.44	1	246.601377377003	246.603445364999	"22"	50146.674395496	50144.420320613	1.5	0.1
0.01	1	0.367429719997745	1	81	NA	248.234680052999	0	0.31	5.44	1	246.835005592002	247.202435312	"22"	50146.674395496	50144.420320613	1.5	0.1
0.01	1	0.796996869001305	2	81	NA	248.234680052999	0	0.31	5.44	1	247.436143086001	248.233139955002	"22"	50146.674395496	50144.420320613	1.5	0.1
0.01	1	0.191989728002227	1	117	NA	261.355368634999	0	0.39	5.83	1	250.274264111998	250.466253840001	"23"	50146.674395496	50144.420320613	1.5	0.1
0.01	1	0.00391589000355452	1	117	NA	261.355368634999	0	0.39	5.83	1	250.691590552	250.695506442004	"23"	50146.674395496	50144.420320613	1.5	0.1
0.01	1	0.00424335499701556	1	117	NA	261.355368634999	0	0.39	5.83	1	250.925348645003	250.929592	"23"	50146.674395496	50144.420320613	1.5	0.1
0.01	1	0.00335522800014587	1	117	NA	261.355368634999	0	0.39	5.83	1	251.158955669998	251.162310897998	"23"	50146.674395496	50144.420320613	1.5	0.1
0.01	1	0.00375904500106117	1	117	NA	261.355368634999	0	0.39	5.83	1	251.392922765001	251.396681810002	"23"	50146.674395496	50144.420320613	1.5	0.1
0.01	1	0.0039623320044484	1	117	NA	261.355368634999	0	0.39	5.83	1	251.626437389998	251.630399722002	"23"	50146.674395496	50144.420320613	1.5	0.1
0.01	1	0.00382503400032874	1	117	NA	261.355368634999	0	0.39	5.83	1	251.860187689999	251.864012724	"23"	50146.674395496	50144.420320613	1.5	0.1
0.01	1	0.00444066199997906	1	117	NA	261.355368634999	0	0.39	5.83	1	252.093922694999	252.098363356999	"23"	50146.674395496	50144.420320613	1.5	0.1
0.01	1	0.00374907899822574	1	117	NA	261.355368634999	0	0.39	5.83	1	252.327676255001	252.331425334	"23"	50146.674395496	50144.420320613	1.5	0.1
0.01	1	0.00370848100283183	1	117	NA	261.355368634999	0	0.39	5.83	1	252.561422747	252.565131228002	"23"	50146.674395496	50144.420320613	1.5	0.1
0.01	1	0.00397739000618458	1	117	NA	261.355368634999	0	0.39	5.83	1	252.795109471997	252.799086862004	"23"	50146.674395496	50144.420320613	1.5	0.1
0.01	1	0.00442251400090754	1	117	NA	261.355368634999	0	0.39	5.83	1	253.028908713	253.033331227001	"23"	50146.674395496	50144.420320613	1.5	0.1
0.01	1	0.00466709999454906	1	117	NA	261.355368634999	0	0.39	5.83	1	253.262616370004	253.267283469999	"23"	50146.674395496	50144.420320613	1.5	0.1
0.01	1	0.00374448500224389	1	117	NA	261.355368634999	0	0.39	5.83	1	253.496299667	253.500044152002	"23"	50146.674395496	50144.420320613	1.5	0.1
0.01	1	0.00417521199415205	1	117	NA	261.355368634999	0	0.39	5.83	1	253.730174105003	253.734349316997	"23"	50146.674395496	50144.420320613	1.5	0.1
0.01	1	0.00382164899929194	1	117	NA	261.355368634999	0	0.39	5.83	1	253.963707365001	253.967529014	"23"	50146.674395496	50144.420320613	1.5	0.1
0.01	1	0.00385405799897853	1	117	NA	261.355368634999	0	0.39	5.83	1	254.197526820004	254.201380878003	"23"	50146.674395496	50144.420320613	1.5	0.1
0.01	1	0.00334103000204777	1	117	NA	261.355368634999	0	0.39	5.83	1	254.43118385	254.434524880002	"23"	50146.674395496	50144.420320613	1.5	0.1
0.01	1	0.00367661500058603	1	117	NA	261.355368634999	0	0.39	5.83	1	254.664972956998	254.668649571999	"23"	50146.674395496	50144.420320613	1.5	0.1
0.01	1	0.00369946700084256	1	117	NA	261.355368634999	0	0.39	5.83	1	254.898690467002	254.902389934003	"23"	50146.674395496	50144.420320613	1.5	0.1
0.01	1	0.00389990599796874	1	117	NA	261.355368634999	0	0.39	5.83	1	255.132385110002	255.136285016	"23"	50146.674395496	50144.420320613	1.5	0.1
0.01	1	0.00395832799404161	1	117	NA	261.355368634999	0	0.39	5.83	1	255.366114590004	255.370072917998	"23"	50146.674395496	50144.420320613	1.5	0.1
0.01	1	0.00364046599861467	1	117	NA	261.355368634999	0	0.39	5.83	1	255.599832710002	255.603473176001	"23"	50146.674395496	50144.420320613	1.5	0.1
0.01	1	0.00380899199808482	1	117	NA	261.355368634999	0	0.39	5.83	1	255.83360002	255.837409011998	"23"	50146.674395496	50144.420320613	1.5	0.1
0.01	1	0.00214039900311036	1	117	NA	261.355368634999	0	0.39	5.83	1	256.067280028998	256.069420428001	"23"	50146.674395496	50144.420320613	1.5	0.1
0.01	1	0.00222785300138639	1	117	NA	261.355368634999	0	0.39	5.83	1	256.301004175002	256.303232028004	"23"	50146.674395496	50144.420320613	1.5	0.1
0.01	1	0.00338346300122794	1	117	NA	261.355368634999	0	0.39	5.83	1	256.534703545003	256.538087008004	"23"	50146.674395496	50144.420320613	1.5	0.1
0.01	1	0.00456222499633441	1	117	NA	261.355368634999	0	0.39	5.83	1	256.768476390003	256.773038615	"23"	50146.674395496	50144.420320613	1.5	0.1
0.01	1	0.00350365100166528	1	117	NA	261.355368634999	0	0.39	5.83	1	257.002215205001	257.005718856002	"23"	50146.674395496	50144.420320613	1.5	0.1
0.01	1	0.00382453200290911	1	117	NA	261.355368634999	0	0.39	5.83	1	257.23592105	257.239745582003	"23"	50146.674395496	50144.420320613	1.5	0.1
0.01	1	0.00427649799530627	1	117	NA	261.355368634999	0	0.39	5.83	1	257.469731499004	257.474007997	"23"	50146.674395496	50144.420320613	1.5	0.1
0.01	1	0.00388879999809433	1	117	NA	261.355368634999	0	0.39	5.83	1	257.703435770003	257.707324570001	"23"	50146.674395496	50144.420320613	1.5	0.1
0.01	1	0.00459248699917225	1	117	NA	261.355368634999	0	0.39	5.83	1	257.937165365001	257.941757852001	"23"	50146.674395496	50144.420320613	1.5	0.1
0.01	1	0.222705300999223	1	117	NA	261.355368634999	0	0.39	5.83	1	258.170859087004	258.393564388003	"23"	50146.674395496	50144.420320613	1.5	0.1
0.01	1	0.00347754800168332	1	117	NA	261.355368634999	0	0.39	5.83	1	258.62167506	258.625152608001	"23"	50146.674395496	50144.420320613	1.5	0.1
0.01	1	0.0897409740064177	1	117	NA	261.355368634999	0	0.39	5.83	1	258.855360866997	258.945101841004	"23"	50146.674395496	50144.420320613	1.5	0.1
0.01	1	0.00452910199965117	1	117	NA	261.355368634999	0	0.39	5.83	1	259.172520090004	259.177049192003	"23"	50146.674395496	50144.420320613	1.5	0.1
0.01	1	0.612256117005018	1	117	NA	261.355368634999	0	0.39	5.83	1	259.406320214999	260.018576332004	"23"	50146.674395496	50144.420320613	1.5	0.1
0.01	1	0.520990419005102	1	117	NA	261.355368634999	0	0.39	5.83	1	260.257620593999	260.778611013004	"23"	50146.674395496	50144.420320613	1.5	0.1
0.01	1	0.344911758998933	2	117	NA	261.355368634999	0	0.39	5.83	1	261.008906165	261.353817923999	"23"	50146.674395496	50144.420320613	1.5	0.1
0.01	1	0.0153161530033685	1	84	NA	274.883371417003	0	0.39	6.22	1	263.379624695001	263.394940848004	"24"	50146.674395496	50144.420320613	1.5	0.1
0.01	1	0.0751187690038932	1	84	NA	274.883371417003	0	0.39	6.22	1	263.630109794998	263.705228564002	"24"	50146.674395496	50144.420320613	1.5	0.1
0.01	1	0.00397713799611665	1	84	NA	274.883371417003	0	0.39	6.22	1	263.930514170002	263.934491307999	"24"	50146.674395496	50144.420320613	1.5	0.1
0.01	1	0.0038286170020001	1	84	NA	274.883371417003	0	0.39	6.22	1	264.164176487	264.168005104002	"24"	50146.674395496	50144.420320613	1.5	0.1
0.01	1	0.00341004000074463	1	84	NA	274.883371417003	0	0.39	6.22	1	264.397981510003	264.401391550004	"24"	50146.674395496	50144.420320613	1.5	0.1
0.01	1	0.00373154800035991	1	84	NA	274.883371417003	0	0.39	6.22	1	264.631731089998	264.635462637998	"24"	50146.674395496	50144.420320613	1.5	0.1
0.01	1	0.00454668500606203	1	84	NA	274.883371417003	0	0.39	6.22	1	264.865527449998	264.870074135004	"24"	50146.674395496	50144.420320613	1.5	0.1
0.01	1	0.00397215900011361	1	84	NA	274.883371417003	0	0.39	6.22	1	265.099151144997	265.103123303998	"24"	50146.674395496	50144.420320613	1.5	0.1
0.01	1	0.00371184700634331	1	84	NA	274.883371417003	0	0.39	6.22	1	265.332934284997	265.336646132004	"24"	50146.674395496	50144.420320613	1.5	0.1
0.01	1	0.00210320299811428	1	84	NA	274.883371417003	0	0.39	6.22	1	265.566574003002	265.568677206	"24"	50146.674395496	50144.420320613	1.5	0.1
0.01	1	0.0575808610010426	1	84	NA	274.883371417003	0	0.39	6.22	1	265.800326705001	265.857907566002	"24"	50146.674395496	50144.420320613	1.5	0.1
0.01	1	0.00391083800059278	1	84	NA	274.883371417003	0	0.39	6.22	1	266.084136051999	266.08804689	"24"	50146.674395496	50144.420320613	1.5	0.1
0.01	1	0.0193589449991123	1	84	NA	274.883371417003	0	0.39	6.22	1	266.317873120002	266.337232065001	"24"	50146.674395496	50144.420320613	1.5	0.1
0.01	1	0.0653362860030029	1	84	NA	274.883371417003	0	0.39	6.22	1	266.56830377	266.633640056003	"24"	50146.674395496	50144.420320613	1.5	0.1
0.01	1	0.00444281900126953	1	84	NA	274.883371417003	0	0.39	6.22	1	266.868815137997	266.873257956999	"24"	50146.674395496	50144.420320613	1.5	0.1
0.01	1	0.0272468420007499	1	84	NA	274.883371417003	0	0.39	6.22	1	267.102577666999	267.129824509	"24"	50146.674395496	50144.420320613	1.5	0.1
0.01	1	0.00413999099691864	1	84	NA	274.883371417003	0	0.39	6.22	1	267.353011127001	267.357151117998	"24"	50146.674395496	50144.420320613	1.5	0.1
0.01	1	0.0399703630027943	1	84	NA	274.883371417003	0	0.39	6.22	1	267.586725465	267.626695828003	"24"	50146.674395496	50144.420320613	1.5	0.1
0.01	1	0.00390035199961858	1	84	NA	274.883371417003	0	0.39	6.22	1	267.853703059998	267.857603411998	"24"	50146.674395496	50144.420320613	1.5	0.1
0.01	1	0.065964900997642	1	84	NA	274.883371417003	0	0.39	6.22	1	268.087544827002	268.153509727999	"24"	50146.674395496	50144.420320613	1.5	0.1
0.01	1	0.00392022600135533	1	84	NA	274.883371417003	0	0.39	6.22	1	268.38806546	268.391985686001	"24"	50146.674395496	50144.420320613	1.5	0.1
0.01	1	0.0609893529981491	1	84	NA	274.883371417003	0	0.39	6.22	1	268.621841667002	268.68283102	"24"	50146.674395496	50144.420320613	1.5	0.1
0.01	1	0.00463405000482453	1	84	NA	274.883371417003	0	0.39	6.22	1	268.905582339998	268.910216390002	"24"	50146.674395496	50144.420320613	1.5	0.1
0.01	1	0.0943490569989081	1	84	NA	274.883371417003	0	0.39	6.22	1	269.139347716002	269.233696773001	"24"	50146.674395496	50144.420320613	1.5	0.1
0.01	1	0.120876638000482	1	84	NA	274.883371417003	0	0.39	6.22	1	269.473217334998	269.594093972999	"24"	50146.674395496	50144.420320613	1.5	0.1
0.01	1	0.00459534199762857	1	84	NA	274.883371417003	0	0.39	6.22	1	269.823864915001	269.828460256998	"24"	50146.674395496	50144.420320613	1.5	0.1
0.01	1	0.0730086330004269	1	84	NA	274.883371417003	0	0.39	6.22	1	270.057391250004	270.130399883004	"24"	50146.674395496	50144.420320613	1.5	0.1
0.01	1	0.00398939599836012	1	84	NA	274.883371417003	0	0.39	6.22	1	270.358002389999	270.361991785998	"24"	50146.674395496	50144.420320613	1.5	0.1
0.01	1	0.0980358880042331	1	84	NA	274.883371417003	0	0.39	6.22	1	270.591718039999	270.689753928003	"24"	50146.674395496	50144.420320613	1.5	0.1
0.01	1	0.00459351500467164	1	84	NA	274.883371417003	0	0.39	6.22	1	270.92566655	270.930260065004	"24"	50146.674395496	50144.420320613	1.5	0.1
0.01	1	0.106424932004302	1	84	NA	274.883371417003	0	0.39	6.22	1	271.159338746998	271.265763679003	"24"	50146.674395496	50144.420320613	1.5	0.1
0.01	1	0.00203706399770454	1	84	NA	274.883371417003	0	0.39	6.22	1	271.49325498	271.495292043997	"24"	50146.674395496	50144.420320613	1.5	0.1
0.01	1	0.00465571699896827	1	84	NA	274.883371417003	0	0.39	6.22	1	271.7270756	271.731731316999	"24"	50146.674395496	50144.420320613	1.5	0.1
0.01	1	0.0896081230021082	1	84	NA	274.883371417003	0	0.39	6.22	1	271.960705851998	272.050313975	"24"	50146.674395496	50144.420320613	1.5	0.1
0.01	1	0.00208961199678015	1	84	NA	274.883371417003	0	0.39	6.22	1	272.277955318001	272.280044929998	"24"	50146.674395496	50144.420320613	1.5	0.1
0.01	1	0.106389048996789	1	84	NA	274.883371417003	0	0.39	6.22	1	272.511671867003	272.618060916	"24"	50146.674395496	50144.420320613	1.5	0.1
0.01	1	0.00378885499958415	1	84	NA	274.883371417003	0	0.39	6.22	1	272.845498847004	272.849287702003	"24"	50146.674395496	50144.420320613	1.5	0.1
0.01	1	0.0909124099998735	1	84	NA	274.883371417003	0	0.39	6.22	1	273.079261485	273.170173895	"24"	50146.674395496	50144.420320613	1.5	0.1
0.01	1	0.00390251500357408	1	84	NA	274.883371417003	0	0.39	6.22	1	273.396406594999	273.400309110002	"24"	50146.674395496	50144.420320613	1.5	0.1
0.01	1	1.25155527599418	2	84	NA	274.883371417003	0	0.39	6.22	1	273.630194219004	274.881749494998	"24"	50146.674395496	50144.420320613	1.5	0.1
0.01	1	0.0259492000041064	1	22	282.280942645004	NA	1	0	6.22	1	276.935790684998	276.961739885002	"25"	50146.674395496	50144.420320613	1.5	0.1
0.01	1	0.00455515299836406	1	22	282.280942645004	NA	1	0	6.22	1	277.186321264002	277.190876417	"25"	50146.674395496	50144.420320613	1.5	0.1
0.01	1	0.0861857280033291	1	22	282.280942645004	NA	1	0	6.22	1	277.419902285998	277.506088014001	"25"	50146.674395496	50144.420320613	1.5	0.1
0.01	1	0.112904276997142	1	22	282.280942645004	NA	1	0	6.22	1	277.736987295	277.849891571997	"25"	50146.674395496	50144.420320613	1.5	0.1
0.01	1	0.00463858199509559	1	22	282.280942645004	NA	1	0	6.22	1	278.087623985004	278.092262566999	"25"	50146.674395496	50144.420320613	1.5	0.1
0.01	1	0.0492525110021234	1	22	282.280942645004	NA	1	0	6.22	1	278.321410525001	278.370663036003	"25"	50146.674395496	50144.420320613	1.5	0.1
0.01	1	0.00459184200008167	1	22	282.280942645004	NA	1	0	6.22	1	278.605288035003	278.609879877004	"25"	50146.674395496	50144.420320613	1.5	0.1
0.01	1	0.050443041996914	1	22	282.280942645004	NA	1	0	6.22	1	278.838958842003	278.889401884	"25"	50146.674395496	50144.420320613	1.5	0.1
0.01	1	0.00458927999716252	1	22	282.280942645004	NA	1	0	6.22	1	279.122781120001	279.127370399998	"25"	50146.674395496	50144.420320613	1.5	0.1
0.01	1	0.00386814700323157	1	22	282.280942645004	NA	1	0	6.22	1	279.356403874997	279.360272022001	"25"	50146.674395496	50144.420320613	1.5	0.1
0.01	1	0.0038492299936479	1	22	282.280942645004	NA	1	0	6.22	1	279.590166612004	279.594015841998	"25"	50146.674395496	50144.420320613	1.5	0.1
0.01	1	0.00353108499984955	1	22	282.280942645004	NA	1	0	6.22	1	279.823937435001	279.827468520001	"25"	50146.674395496	50144.420320613	1.5	0.1
0.01	1	0.00389265199919464	1	22	282.280942645004	NA	1	0	6.22	1	280.057636210004	280.061528862003	"25"	50146.674395496	50144.420320613	1.5	0.1
0.01	1	0.00458725499629509	1	22	282.280942645004	NA	1	0	6.22	1	280.291342950004	280.295930205	"25"	50146.674395496	50144.420320613	1.5	0.1
0.01	1	0.00373060799756786	1	22	282.280942645004	NA	1	0	6.22	1	280.525152640002	280.528883248	"25"	50146.674395496	50144.420320613	1.5	0.1
0.01	1	0.00337978500465397	1	22	282.280942645004	NA	1	0	6.22	1	280.758844714997	280.762224500002	"25"	50146.674395496	50144.420320613	1.5	0.1
0.01	1	0.00388479099638062	1	22	282.280942645004	NA	1	0	6.22	1	280.992538267004	280.996423058001	"25"	50146.674395496	50144.420320613	1.5	0.1
0.01	1	0.00440874500054633	1	22	282.280942645004	NA	1	0	6.22	1	281.226222112004	281.230630857004	"25"	50146.674395496	50144.420320613	1.5	0.1
0.01	1	0.00461548499879427	1	22	282.280942645004	NA	1	0	6.22	1	281.459998589999	281.464614074997	"25"	50146.674395496	50144.420320613	1.5	0.1
0.01	1	0.00384113399923081	1	22	282.280942645004	NA	1	0	6.22	1	281.693762679999	281.697603813998	"25"	50146.674395496	50144.420320613	1.5	0.1
0.01	1	0.00329208599578124	1	22	282.280942645004	NA	1	0	6.22	1	281.927420698004	281.930712784	"25"	50146.674395496	50144.420320613	1.5	0.1
0.01	1	0.00359607800055528	1	22	282.280942645004	NA	1	0	6.22	1	282.161163212004	282.164759290004	"25"	50146.674395496	50144.420320613	1.5	0.1
