"payoff.level"	"balloon"	"rt"	"resp"	"explode.trial"	"explode.time"	"finish.time"	"exploded"	"trial.total"	"cumulative.total"	"finished"	"trial.start"	"trial.end"	"trial.num"	"secs"	"start.time"	"iti"	"isi"
0.01	1	2.50277812499917	1	64	27.1768341860006	NA	1	0	0	1	0.0103463710001961	2.51312449599936	"1"	27826.437438579	27820.270833259	1.5	0.1
0.01	1	1.40650725100204	1	64	27.1768341860006	NA	1	0	0	1	2.88174734399945	4.28825459500149	"1"	27826.437438579	27820.270833259	1.5	0.1
0.01	1	0.587013541000488	1	64	27.1768341860006	NA	1	0	0	1	4.51786207300029	5.10487561400078	"1"	27826.437438579	27820.270833259	1.5	0.1
0.01	1	0.456844847001776	1	64	27.1768341860006	NA	1	0	0	1	5.33590370800084	5.79274855500262	"1"	27826.437438579	27820.270833259	1.5	0.1
0.01	1	0.364532044000953	1	64	27.1768341860006	NA	1	0	0	1	6.02035105100003	6.38488309500099	"1"	27826.437438579	27820.270833259	1.5	0.1
0.01	1	0.46648244699827	1	64	27.1768341860006	NA	1	0	0	1	6.62141555600101	7.08789800299928	"1"	27826.437438579	27820.270833259	1.5	0.1
0.01	1	0.382037909999781	1	64	27.1768341860006	NA	1	0	0	1	7.32254988600107	7.70458779600085	"1"	27826.437438579	27820.270833259	1.5	0.1
0.01	1	0.380695044001186	1	64	27.1768341860006	NA	1	0	0	1	7.94019316599952	8.3208882100007	"1"	27826.437438579	27820.270833259	1.5	0.1
0.01	1	0.330188748001092	1	64	27.1768341860006	NA	1	0	0	1	8.55786737599919	8.88805612400029	"1"	27826.437438579	27820.270833259	1.5	0.1
0.01	1	0.346702624003228	1	64	27.1768341860006	NA	1	0	0	1	9.12554165899928	9.47224428300251	"1"	27826.437438579	27820.270833259	1.5	0.1
0.01	1	0.329395464999834	1	64	27.1768341860006	NA	1	0	0	1	9.7099630010016	10.0393584660014	"1"	27826.437438579	27820.270833259	1.5	0.1
0.01	1	0.35471212199991	1	64	27.1768341860006	NA	1	0	0	1	10.2607603060023	10.6154724280022	"1"	27826.437438579	27820.270833259	1.5	0.1
0.01	1	0.298437227997056	1	64	27.1768341860006	NA	1	0	0	1	10.8451716010022	11.1436088289993	"1"	27826.437438579	27820.270833259	1.5	0.1
0.01	1	0.285380950997933	1	64	27.1768341860006	NA	1	0	0	1	11.3794252180014	11.6648061689993	"1"	27826.437438579	27820.270833259	1.5	0.1
0.01	1	0.302933037000912	1	64	27.1768341860006	NA	1	0	0	1	11.8968956110002	12.1998286480011	"1"	27826.437438579	27820.270833259	1.5	0.1
0.01	1	0.273885055001301	1	64	27.1768341860006	NA	1	0	0	1	12.4311272859995	12.7050123410008	"1"	27826.437438579	27820.270833259	1.5	0.1
0.01	1	0.300806834999094	1	64	27.1768341860006	NA	1	0	0	1	12.9319706380011	13.2327774730002	"1"	27826.437438579	27820.270833259	1.5	0.1
0.01	1	0.19837138100047	1	64	27.1768341860006	NA	1	0	0	1	13.4662959359994	13.6646673169998	"1"	27826.437438579	27820.270833259	1.5	0.1
0.01	1	0.23577103000207	1	64	27.1768341860006	NA	1	0	0	1	13.9003643260003	14.1361353560023	"1"	27826.437438579	27820.270833259	1.5	0.1
0.01	1	0.193006638000952	1	64	27.1768341860006	NA	1	0	0	1	14.3677833959991	14.5607900340001	"1"	27826.437438579	27820.270833259	1.5	0.1
0.01	1	0.287236830998154	1	64	27.1768341860006	NA	1	0	0	1	14.7851489160021	15.0723857470002	"1"	27826.437438579	27820.270833259	1.5	0.1
0.01	1	0.225948850002169	1	64	27.1768341860006	NA	1	0	0	1	15.3026033610004	15.5285522110025	"1"	27826.437438579	27820.270833259	1.5	0.1
0.01	1	0.230633774001035	1	64	27.1768341860006	NA	1	0	0	1	15.753520233	15.9841540070011	"1"	27826.437438579	27820.270833259	1.5	0.1
0.01	1	0.187937479000539	1	64	27.1768341860006	NA	1	0	0	1	16.2208158659996	16.4087533450002	"1"	27826.437438579	27820.270833259	1.5	0.1
0.01	1	0.201091839000583	1	64	27.1768341860006	NA	1	0	0	1	16.6382153480008	16.8393071870014	"1"	27826.437438579	27820.270833259	1.5	0.1
0.01	1	0.185056852002162	1	64	27.1768341860006	NA	1	0	0	1	17.0722373110002	17.2572941630024	"1"	27826.437438579	27820.270833259	1.5	0.1
0.01	1	0.141726764002669	1	64	27.1768341860006	NA	1	0	0	1	17.4896496309993	17.631376395002	"1"	27826.437438579	27820.270833259	1.5	0.1
0.01	1	0.15044172999842	1	64	27.1768341860006	NA	1	0	0	1	17.8569807960012	18.0074225259996	"1"	27826.437438579	27820.270833259	1.5	0.1
0.01	1	0.112052829001186	1	64	27.1768341860006	NA	1	0	0	1	18.2408774430005	18.3529302720017	"1"	27826.437438579	27820.270833259	1.5	0.1
0.01	1	0.0033478279983683	1	64	27.1768341860006	NA	1	0	0	1	18.5915081750027	18.594856003001	"1"	27826.437438579	27820.270833259	1.5	0.1
0.01	1	0.0037008910003351	1	64	27.1768341860006	NA	1	0	0	1	18.825228398	18.8289292890004	"1"	27826.437438579	27820.270833259	1.5	0.1
0.01	1	0.0032597320023342	1	64	27.1768341860006	NA	1	0	0	1	19.0589576189996	19.0622173510019	"1"	27826.437438579	27820.270833259	1.5	0.1
0.01	1	0.00343866600087495	1	64	27.1768341860006	NA	1	0	0	1	19.2927178989994	19.2961565650003	"1"	27826.437438579	27820.270833259	1.5	0.1
0.01	1	0.00350976299887407	1	64	27.1768341860006	NA	1	0	0	1	19.5264259880023	19.5299357510012	"1"	27826.437438579	27820.270833259	1.5	0.1
0.01	1	0.00381034100064426	1	64	27.1768341860006	NA	1	0	0	1	19.7601532980007	19.7639636390013	"1"	27826.437438579	27820.270833259	1.5	0.1
0.01	1	0.00366288000077475	1	64	27.1768341860006	NA	1	0	0	1	19.9938927309995	19.9975556110003	"1"	27826.437438579	27820.270833259	1.5	0.1
0.01	1	0.00389615500171203	1	64	27.1768341860006	NA	1	0	0	1	20.2275215980007	20.2314177530025	"1"	27826.437438579	27820.270833259	1.5	0.1
0.01	1	0.0435306129984383	1	64	27.1768341860006	NA	1	0	0	1	20.4613831480019	20.5049137610004	"1"	27826.437438579	27820.270833259	1.5	0.1
0.01	1	0.00384814200151595	1	64	27.1768341860006	NA	1	0	0	1	20.7450962729999	20.7489444150015	"1"	27826.437438579	27820.270833259	1.5	0.1
0.01	1	0.00712478100103908	1	64	27.1768341860006	NA	1	0	0	1	20.9788127380016	20.9859375190026	"1"	27826.437438579	27820.270833259	1.5	0.1
0.01	1	0.0357017499991343	1	64	27.1768341860006	NA	1	0	0	1	21.212489816	21.2481915659992	"1"	27826.437438579	27820.270833259	1.5	0.1
0.01	1	0.0157507849980902	1	64	27.1768341860006	NA	1	0	0	1	21.4797217180021	21.4954725030002	"1"	27826.437438579	27820.270833259	1.5	0.1
0.01	1	0.00346661000003223	1	64	27.1768341860006	NA	1	0	0	1	21.7301012429998	21.7335678529998	"1"	27826.437438579	27820.270833259	1.5	0.1
0.01	1	0.00804066199998488	1	64	27.1768341860006	NA	1	0	0	1	21.9638191129998	21.9718597749998	"1"	27826.437438579	27820.270833259	1.5	0.1
0.01	1	0.0177796019997913	1	64	27.1768341860006	NA	1	0	0	1	22.1975570260001	22.2153366279999	"1"	27826.437438579	27820.270833259	1.5	0.1
0.01	1	0.00357849899955909	1	64	27.1768341860006	NA	1	0	0	1	22.447922006002	22.4515005050016	"1"	27826.437438579	27820.270833259	1.5	0.1
0.01	1	0.00690344699978596	1	64	27.1768341860006	NA	1	0	0	1	22.6816787380012	22.688582185001	"1"	27826.437438579	27820.270833259	1.5	0.1
0.01	1	0.0136407259997213	1	64	27.1768341860006	NA	1	0	0	1	22.9154619530018	22.9291026790015	"1"	27826.437438579	27820.270833259	1.5	0.1
0.01	1	0.0188265489996411	1	64	27.1768341860006	NA	1	0	0	1	23.1658813360009	23.1847078850005	"1"	27826.437438579	27820.270833259	1.5	0.1
0.01	1	0.00382067299869959	1	64	27.1768341860006	NA	1	0	0	1	23.416227138001	23.4200478109997	"1"	27826.437438579	27820.270833259	1.5	0.1
0.01	1	0.00362013300036779	1	64	27.1768341860006	NA	1	0	0	1	23.6500507380006	23.6536708710009	"1"	27826.437438579	27820.270833259	1.5	0.1
0.01	1	0.0032988179991662	1	64	27.1768341860006	NA	1	0	0	1	23.8838363210016	23.8871351390007	"1"	27826.437438579	27820.270833259	1.5	0.1
0.01	1	0.00384099800066906	1	64	27.1768341860006	NA	1	0	0	1	24.1174522010006	24.1212931990012	"1"	27826.437438579	27820.270833259	1.5	0.1
0.01	1	0.0323825360028422	1	64	27.1768341860006	NA	1	0	0	1	24.3513578359998	24.3837403720026	"1"	27826.437438579	27820.270833259	1.5	0.1
0.01	1	0.0227731819977635	1	64	27.1768341860006	NA	1	0	0	1	24.6182543480027	24.6410275300004	"1"	27826.437438579	27820.270833259	1.5	0.1
0.01	1	0.0523591950004629	1	64	27.1768341860006	NA	1	0	0	1	24.8686987410001	24.9210579360006	"1"	27826.437438579	27820.270833259	1.5	0.1
0.01	1	0.0398512719984865	1	64	27.1768341860006	NA	1	0	0	1	25.1526294780015	25.19248075	"1"	27826.437438579	27820.270833259	1.5	0.1
0.01	1	0.0453900520005845	1	64	27.1768341860006	NA	1	0	0	1	25.4197188159997	25.4651088680002	"1"	27826.437438579	27820.270833259	1.5	0.1
0.01	1	0.0324510649988952	1	64	27.1768341860006	NA	1	0	0	1	25.7035151460004	25.7359662109993	"1"	27826.437438579	27820.270833259	1.5	0.1
0.01	1	0.0301874249998946	1	64	27.1768341860006	NA	1	0	0	1	25.9705904479997	26.0007778729996	"1"	27826.437438579	27820.270833259	1.5	0.1
0.01	1	0.0346181640015857	1	64	27.1768341860006	NA	1	0	0	1	26.2378095509994	26.272427715001	"1"	27826.437438579	27820.270833259	1.5	0.1
0.01	1	0.0245281750030699	1	64	27.1768341860006	NA	1	0	0	1	26.5047619889992	26.5292901640023	"1"	27826.437438579	27820.270833259	1.5	0.1
0.01	1	0.0362481900010607	1	64	27.1768341860006	NA	1	0	0	1	26.7553007509996	26.7915489410007	"1"	27826.437438579	27820.270833259	1.5	0.1
0.01	1	0.03420111000014	1	64	27.1768341860006	NA	1	0	0	1	27.0223988159996	27.0565999259998	"1"	27826.437438579	27820.270833259	1.5	0.1
0.01	1	0.486869205000403	1	102	NA	57.0180596080027	0	0.72	0.72	1	29.2260568759993	29.7129260809998	"2"	27826.437438579	27820.270833259	1.5	0.1
0.01	1	0.00373031100025401	1	102	NA	57.0180596080027	0	0.72	0.72	1	29.9438925760005	29.9476228870008	"2"	27826.437438579	27820.270833259	1.5	0.1
0.01	1	0.0229533390011056	1	102	NA	57.0180596080027	0	0.72	0.72	1	30.1777326709998	30.2006860100009	"2"	27826.437438579	27820.270833259	1.5	0.1
0.01	1	0.148515652999777	1	102	NA	57.0180596080027	0	0.72	0.72	1	30.4281262830009	30.5766419360007	"2"	27826.437438579	27820.270833259	1.5	0.1
0.01	1	0.0450512190000154	1	102	NA	57.0180596080027	0	0.72	0.72	1	30.8121326510009	30.8571838700009	"2"	27826.437438579	27820.270833259	1.5	0.1
0.01	1	0.888488996999513	1	102	NA	57.0180596080027	0	0.72	0.72	1	31.0959110410004	31.9844000379999	"2"	27826.437438579	27820.270833259	1.5	0.1
0.01	1	0.00397129499833682	1	102	NA	57.0180596080027	0	0.72	0.72	1	32.2144714080023	32.2184427030006	"2"	27826.437438579	27820.270833259	1.5	0.1
0.01	1	0.00330650199975935	1	102	NA	57.0180596080027	0	0.72	0.72	1	32.4481376090007	32.4514441110005	"2"	27826.437438579	27820.270833259	1.5	0.1
0.01	1	0.00406009099970106	1	102	NA	57.0180596080027	0	0.72	0.72	1	32.6819405360002	32.6860006269999	"2"	27826.437438579	27820.270833259	1.5	0.1
0.01	1	0.00331283999912557	1	102	NA	57.0180596080027	0	0.72	0.72	1	32.915662929001	32.9189757690001	"2"	27826.437438579	27820.270833259	1.5	0.1
0.01	1	0.51398788899678	1	102	NA	57.0180596080027	0	0.72	0.72	1	33.1494010580027	33.6633889469995	"2"	27826.437438579	27820.270833259	1.5	0.1
0.01	1	0.00325077399975271	1	102	NA	57.0180596080027	0	0.72	0.72	1	33.9006072789998	33.9038580529996	"2"	27826.437438579	27820.270833259	1.5	0.1
0.01	1	0.00470695699914359	1	102	NA	57.0180596080027	0	0.72	0.72	1	34.1342650190018	34.1389719760009	"2"	27826.437438579	27820.270833259	1.5	0.1
0.01	1	0.0153041610028595	1	102	NA	57.0180596080027	0	0.72	0.72	1	34.3681297629992	34.383433924002	"2"	27826.437438579	27820.270833259	1.5	0.1
0.01	1	0.00722865100033232	1	102	NA	57.0180596080027	0	0.72	0.72	1	34.6184355760015	34.6256642270018	"2"	27826.437438579	27820.270833259	1.5	0.1
0.01	1	0.531802909998078	1	102	NA	57.0180596080027	0	0.72	0.72	1	34.8522311080014	35.3840340179995	"2"	27826.437438579	27820.270833259	1.5	0.1
0.01	1	0.00645114800136071	1	102	NA	57.0180596080027	0	0.72	0.72	1	35.6201856410007	35.6266367890021	"2"	27826.437438579	27820.270833259	1.5	0.1
0.01	1	0.0101797479983361	1	102	NA	57.0180596080027	0	0.72	0.72	1	35.8539579570024	35.8641377050008	"2"	27826.437438579	27820.270833259	1.5	0.1
0.01	1	0.0322514159997809	1	102	NA	57.0180596080027	0	0.72	0.72	1	36.1043180160013	36.1365694320011	"2"	27826.437438579	27820.270833259	1.5	0.1
0.01	1	0.0134143370014499	1	102	NA	57.0180596080027	0	0.72	0.72	1	36.3714186680008	36.3848330050023	"2"	27826.437438579	27820.270833259	1.5	0.1
0.01	1	0.458933089001221	1	102	NA	57.0180596080027	0	0.72	0.72	1	36.6219307460015	37.0808638350027	"2"	27826.437438579	27820.270833259	1.5	0.1
0.01	1	0.0209203729973524	1	102	NA	57.0180596080027	0	0.72	0.72	1	37.3064208460019	37.3273412189992	"2"	27826.437438579	27820.270833259	1.5	0.1
0.01	1	0.0111878059979063	1	102	NA	57.0180596080027	0	0.72	0.72	1	37.556805561002	37.5679933669999	"2"	27826.437438579	27820.270833259	1.5	0.1
0.01	1	0.042115936998016	1	102	NA	57.0180596080027	0	0.72	0.72	1	37.7904671390024	37.8325830760004	"2"	27826.437438579	27820.270833259	1.5	0.1
0.01	1	0.0302549629996065	1	102	NA	57.0180596080027	0	0.72	0.72	1	38.0575676760018	38.0878226390014	"2"	27826.437438579	27820.270833259	1.5	0.1
0.01	1	0.467675173000316	1	102	NA	57.0180596080027	0	0.72	0.72	1	38.3247312179992	38.7924063909995	"2"	27826.437438579	27820.270833259	1.5	0.1
0.01	1	0.023139272001572	1	102	NA	57.0180596080027	0	0.72	0.72	1	39.0259399259994	39.049079198001	"2"	27826.437438579	27820.270833259	1.5	0.1
0.01	1	0.019425949001743	1	102	NA	57.0180596080027	0	0.72	0.72	1	39.2762914060004	39.2957173550021	"2"	27826.437438579	27820.270833259	1.5	0.1
0.01	1	0.0405259420003858	1	102	NA	57.0180596080027	0	0.72	0.72	1	39.5267231350008	39.5672490770012	"2"	27826.437438579	27820.270833259	1.5	0.1
0.01	1	0.0393574629997602	1	102	NA	57.0180596080027	0	0.72	0.72	1	39.7938826300015	39.8332400930012	"2"	27826.437438579	27820.270833259	1.5	0.1
0.01	1	0.434767458998977	1	102	NA	57.0180596080027	0	0.72	0.72	1	40.0609791560018	40.4957466150008	"2"	27826.437438579	27820.270833259	1.5	0.1
0.01	1	0.0152826369994727	1	102	NA	57.0180596080027	0	0.72	0.72	1	40.7287967160009	40.7440793530004	"2"	27826.437438579	27820.270833259	1.5	0.1
0.01	1	0.0207094260003942	1	102	NA	57.0180596080027	0	0.72	0.72	1	40.9791576460011	40.9998670720015	"2"	27826.437438579	27820.270833259	1.5	0.1
0.01	1	0.026729389999673	1	102	NA	57.0180596080027	0	0.72	0.72	1	41.2295187560012	41.2562481460009	"2"	27826.437438579	27820.270833259	1.5	0.1
0.01	1	0.0319244950005668	1	102	NA	57.0180596080027	0	0.72	0.72	1	41.4800241010016	41.5119485960022	"2"	27826.437438579	27820.270833259	1.5	0.1
0.01	1	0.654067711999232	1	102	NA	57.0180596080027	0	0.72	0.72	1	41.7471962710006	42.4012639829998	"2"	27826.437438579	27820.270833259	1.5	0.1
0.01	1	0.0233564070003922	1	102	NA	57.0180596080027	0	0.72	0.72	1	42.6320311830023	42.6553875900026	"2"	27826.437438579	27820.270833259	1.5	0.1
0.01	1	0.0295632009983819	1	102	NA	57.0180596080027	0	0.72	0.72	1	42.882413563002	42.9119767640004	"2"	27826.437438579	27820.270833259	1.5	0.1
0.01	1	0.0112670039998193	1	102	NA	57.0180596080027	0	0.72	0.72	1	43.1495641210022	43.160831125002	"2"	27826.437438579	27820.270833259	1.5	0.1
0.01	1	0.0262493250011175	1	102	NA	57.0180596080027	0	0.72	0.72	1	43.3833727390011	43.4096220640022	"2"	27826.437438579	27820.270833259	1.5	0.1
0.01	1	0.422968429997127	1	102	NA	57.0180596080027	0	0.72	0.72	1	43.6337210010024	44.0566894309995	"2"	27826.437438579	27820.270833259	1.5	0.1
0.01	1	0.0202424649978639	1	102	NA	57.0180596080027	0	0.72	0.72	1	44.2848056380026	44.3050481030004	"2"	27826.437438579	27820.270833259	1.5	0.1
0.01	1	0.034203922998131	1	102	NA	57.0180596080027	0	0.72	0.72	1	44.5351865180019	44.569390441	"2"	27826.437438579	27820.270833259	1.5	0.1
0.01	1	0.0378057070010982	1	102	NA	57.0180596080027	0	0.72	0.72	1	44.8023648359995	44.8401705430006	"2"	27826.437438579	27820.270833259	1.5	0.1
0.01	1	0.035327090001374	1	102	NA	57.0180596080027	0	0.72	0.72	1	45.0693849810013	45.1047120710027	"2"	27826.437438579	27820.270833259	1.5	0.1
0.01	1	0.263341051999305	1	102	NA	57.0180596080027	0	0.72	0.72	1	45.3365880780002	45.5999291299995	"2"	27826.437438579	27820.270833259	1.5	0.1
0.01	1	0.0276718579989392	1	102	NA	57.0180596080027	0	0.72	0.72	1	45.8373335260003	45.8650053839992	"2"	27826.437438579	27820.270833259	1.5	0.1
0.01	1	0.056292321998626	1	102	NA	57.0180596080027	0	0.72	0.72	1	46.0877641010011	46.1440564229997	"2"	27826.437438579	27820.270833259	1.5	0.1
0.01	1	0.0611651660001371	1	102	NA	57.0180596080027	0	0.72	0.72	1	46.3716221510003	46.4327873170005	"2"	27826.437438579	27820.270833259	1.5	0.1
0.01	1	0.0491474990012648	1	102	NA	57.0180596080027	0	0.72	0.72	1	46.6553185660014	46.7044660650026	"2"	27826.437438579	27820.270833259	1.5	0.1
0.01	1	0.0212250080003287	1	102	NA	57.0180596080027	0	0.72	0.72	1	46.939214348	46.9604393560003	"2"	27826.437438579	27820.270833259	1.5	0.1
0.01	1	0.0340760780018172	1	102	NA	57.0180596080027	0	0.72	0.72	1	47.1896534309999	47.2237295090017	"2"	27826.437438579	27820.270833259	1.5	0.1
0.01	1	0.039536259999295	1	102	NA	57.0180596080027	0	0.72	0.72	1	47.4567329910024	47.4962692510016	"2"	27826.437438579	27820.270833259	1.5	0.1
0.01	1	0.0450382849994639	1	102	NA	57.0180596080027	0	0.72	0.72	1	47.723873531002	47.7689118160015	"2"	27826.437438579	27820.270833259	1.5	0.1
0.01	1	0.0246743109964882	1	102	NA	57.0180596080027	0	0.72	0.72	1	47.9909801810027	48.0156544919992	"2"	27826.437438579	27820.270833259	1.5	0.1
0.01	1	0.0463105050002923	1	102	NA	57.0180596080027	0	0.72	0.72	1	48.2413361159997	48.287646621	"2"	27826.437438579	27820.270833259	1.5	0.1
0.01	1	0.0268754460012133	1	102	NA	57.0180596080027	0	0.72	0.72	1	48.5251819580008	48.552057404002	"2"	27826.437438579	27820.270833259	1.5	0.1
0.01	1	0.0238635240020812	1	102	NA	57.0180596080027	0	0.72	0.72	1	48.7923003430005	48.8161638670026	"2"	27826.437438579	27820.270833259	1.5	0.1
0.01	1	0.0287988829986716	1	102	NA	57.0180596080027	0	0.72	0.72	1	49.0427356460023	49.0715345290009	"2"	27826.437438579	27820.270833259	1.5	0.1
0.01	1	0.0261619569973846	1	102	NA	57.0180596080027	0	0.72	0.72	1	49.3098637610019	49.3360257179993	"2"	27826.437438579	27820.270833259	1.5	0.1
0.01	1	0.0396597770013614	1	102	NA	57.0180596080027	0	0.72	0.72	1	49.5602766810007	49.599936458002	"2"	27826.437438579	27820.270833259	1.5	0.1
0.01	1	0.0597917249979218	1	102	NA	57.0180596080027	0	0.72	0.72	1	49.8274456940017	49.8872374189996	"2"	27826.437438579	27820.270833259	1.5	0.1
0.01	1	0.0655941650002205	1	102	NA	57.0180596080027	0	0.72	0.72	1	50.1112691359995	50.1768633009997	"2"	27826.437438579	27820.270833259	1.5	0.1
0.01	1	0.0123196570020809	1	102	NA	57.0180596080027	0	0.72	0.72	1	50.411726151	50.4240458080021	"2"	27826.437438579	27820.270833259	1.5	0.1
0.01	1	0.0256233750005777	1	102	NA	57.0180596080027	0	0.72	0.72	1	50.6621045380016	50.6877279130022	"2"	27826.437438579	27820.270833259	1.5	0.1
0.01	1	0.0559911589989497	1	102	NA	57.0180596080027	0	0.72	0.72	1	50.912570364002	50.968561523001	"2"	27826.437438579	27820.270833259	1.5	0.1
0.01	1	0.0434641539977747	1	102	NA	57.0180596080027	0	0.72	0.72	1	51.1963834980015	51.2398476519993	"2"	27826.437438579	27820.270833259	1.5	0.1
0.01	1	0.0325648180005373	1	102	NA	57.0180596080027	0	0.72	0.72	1	51.4634456179992	51.4960104359998	"2"	27826.437438579	27820.270833259	1.5	0.1
0.01	1	0.0207040940003935	1	102	NA	57.0180596080027	0	0.72	0.72	1	51.7306300960008	51.7513341900012	"2"	27826.437438579	27820.270833259	1.5	0.1
0.01	1	0.0347720550016675	1	102	NA	57.0180596080027	0	0.72	0.72	1	51.980983251	52.0157553060017	"2"	27826.437438579	27820.270833259	1.5	0.1
0.01	1	0.0555082179998863	1	102	NA	57.0180596080027	0	0.72	0.72	1	52.2481315210025	52.3036397390024	"2"	27826.437438579	27820.270833259	1.5	0.1
0.01	1	0.0212471589984489	1	102	NA	57.0180596080027	0	0.72	0.72	1	52.5319618880021	52.5532090470006	"2"	27826.437438579	27820.270833259	1.5	0.1
0.01	1	4.2341154780006	2	102	NA	57.0180596080027	0	0.72	0.72	1	52.7823950710008	57.0165105490014	"2"	27826.437438579	27820.270833259	1.5	0.1
0.01	1	0.716157501999987	1	97	NA	90.6533045050019	0	0.8	1.52	1	59.0762710359995	59.7924285379995	"3"	27826.437438579	27820.270833259	1.5	0.1
0.01	1	0.00270379200082971	1	97	NA	90.6533045050019	0	0.8	1.52	1	60.0278951590008	60.0305989510016	"3"	27826.437438579	27820.270833259	1.5	0.1
0.01	1	0.0268476099990949	1	97	NA	90.6533045050019	0	0.8	1.52	1	60.2616924860013	60.2885400960004	"3"	27826.437438579	27820.270833259	1.5	0.1
0.01	1	0.0246047110013023	1	97	NA	90.6533045050019	0	0.8	1.52	1	60.5120635210005	60.5366682320018	"3"	27826.437438579	27820.270833259	1.5	0.1
0.01	1	0.0135615280014463	1	97	NA	90.6533045050019	0	0.8	1.52	1	60.7624798280012	60.7760413560027	"3"	27826.437438579	27820.270833259	1.5	0.1
0.01	1	0.0415983839993714	1	97	NA	90.6533045050019	0	0.8	1.52	1	61.0130211260002	61.0546195099996	"3"	27826.437438579	27820.270833259	1.5	0.1
0.01	1	0.031449504000193	1	97	NA	90.6533045050019	0	0.8	1.52	1	61.280043576	61.3114930800002	"3"	27826.437438579	27820.270833259	1.5	0.1
0.01	1	0.00326040599975386	1	97	NA	90.6533045050019	0	0.8	1.52	1	61.5470680990002	61.5503285049999	"3"	27826.437438579	27820.270833259	1.5	0.1
0.01	1	0.0191939169999387	1	97	NA	90.6533045050019	0	0.8	1.52	1	61.7808846410007	61.8000785580007	"3"	27826.437438579	27820.270833259	1.5	0.1
0.01	1	0.0090150280011585	1	97	NA	90.6533045050019	0	0.8	1.52	1	62.0313404629997	62.0403554910008	"3"	27826.437438579	27820.270833259	1.5	0.1
0.01	1	0.00354295700162766	1	97	NA	90.6533045050019	0	0.8	1.52	1	62.2648948780006	62.2684378350023	"3"	27826.437438579	27820.270833259	1.5	0.1
0.01	1	0.013630686000397	1	97	NA	90.6533045050019	0	0.8	1.52	1	62.498680441	62.5123111270004	"3"	27826.437438579	27820.270833259	1.5	0.1
0.01	1	0.00250380899888114	1	97	NA	90.6533045050019	0	0.8	1.52	1	62.7491426710003	62.7516464799992	"3"	27826.437438579	27820.270833259	1.5	0.1
0.01	1	0.00226041299902136	1	97	NA	90.6533045050019	0	0.8	1.52	1	62.982754648001	62.985015061	"3"	27826.437438579	27820.270833259	1.5	0.1
0.01	1	0.00365980000060517	1	97	NA	90.6533045050019	0	0.8	1.52	1	63.2165297310021	63.2201895310027	"3"	27826.437438579	27820.270833259	1.5	0.1
0.01	1	0.00322605200199177	1	97	NA	90.6533045050019	0	0.8	1.52	1	63.4503030849992	63.4535291370012	"3"	27826.437438579	27820.270833259	1.5	0.1
0.01	1	0.00399825699787471	1	97	NA	90.6533045050019	0	0.8	1.52	1	63.6841126360014	63.6881108929992	"3"	27826.437438579	27820.270833259	1.5	0.1
0.01	1	0.00268530499670305	1	97	NA	90.6533045050019	0	0.8	1.52	1	63.9177084050025	63.9203937099992	"3"	27826.437438579	27820.270833259	1.5	0.1
0.01	1	0.00226744999963557	1	97	NA	90.6533045050019	0	0.8	1.52	1	64.151487567	64.1537550169996	"3"	27826.437438579	27820.270833259	1.5	0.1
0.01	1	0.00354706700090901	1	97	NA	90.6533045050019	0	0.8	1.52	1	64.3851804379992	64.3887275050001	"3"	27826.437438579	27820.270833259	1.5	0.1
0.01	1	0.0451492879983562	1	97	NA	90.6533045050019	0	0.8	1.52	1	64.6189415830013	64.6640908709996	"3"	27826.437438579	27820.270833259	1.5	0.1
0.01	1	0.0335939030010195	1	97	NA	90.6533045050019	0	0.8	1.52	1	64.8861008560016	64.9196947590026	"3"	27826.437438579	27820.270833259	1.5	0.1
0.01	1	0.00717328300015652	1	97	NA	90.6533045050019	0	0.8	1.52	1	65.1531363680006	65.1603096510007	"3"	27826.437438579	27820.270833259	1.5	0.1
0.01	1	0.0116866819989809	1	97	NA	90.6533045050019	0	0.8	1.52	1	65.3868790880006	65.3985657699995	"3"	27826.437438579	27820.270833259	1.5	0.1
0.01	1	0.0358609249997244	1	97	NA	90.6533045050019	0	0.8	1.52	1	65.6206205410017	65.6564814660014	"3"	27826.437438579	27820.270833259	1.5	0.1
0.01	1	0.0229509909986518	1	97	NA	90.6533045050019	0	0.8	1.52	1	65.8877554080027	65.9107063990014	"3"	27826.437438579	27820.270833259	1.5	0.1
0.01	1	0.0136501009983476	1	97	NA	90.6533045050019	0	0.8	1.52	1	66.1381409660025	66.1517910670009	"3"	27826.437438579	27820.270833259	1.5	0.1
0.01	1	0.0116156510011933	1	97	NA	90.6533045050019	0	0.8	1.52	1	66.3885933960009	66.4002090470021	"3"	27826.437438579	27820.270833259	1.5	0.1
0.01	1	0.0246015480006463	1	97	NA	90.6533045050019	0	0.8	1.52	1	66.6222612210004	66.646862769001	"3"	27826.437438579	27820.270833259	1.5	0.1
0.01	1	0.0383026579984289	1	97	NA	90.6533045050019	0	0.8	1.52	1	66.872762586001	66.9110652439995	"3"	27826.437438579	27820.270833259	1.5	0.1
0.01	1	0.0203869469987694	1	97	NA	90.6533045050019	0	0.8	1.52	1	67.1399263480016	67.1603132950004	"3"	27826.437438579	27820.270833259	1.5	0.1
0.01	1	0.0335950799999409	1	97	NA	90.6533045050019	0	0.8	1.52	1	67.3903731610008	67.4239682410007	"3"	27826.437438579	27820.270833259	1.5	0.1
0.01	1	0.383255667999038	1	97	NA	90.6533045050019	0	0.8	1.52	1	67.6573411310019	68.0405967990009	"3"	27826.437438579	27820.270833259	1.5	0.1
0.01	1	0.0692501259982237	1	97	NA	90.6533045050019	0	0.8	1.52	1	68.2751110960016	68.3443612219999	"3"	27826.437438579	27820.270833259	1.5	0.1
0.01	1	0.0794790990003094	1	97	NA	90.6533045050019	0	0.8	1.52	1	68.5756257829999	68.6551048820002	"3"	27826.437438579	27820.270833259	1.5	0.1
0.01	1	0.0588903440002468	1	97	NA	90.6533045050019	0	0.8	1.52	1	68.8927872860004	68.9516776300006	"3"	27826.437438579	27820.270833259	1.5	0.1
0.01	1	0.0630174649995752	1	97	NA	90.6533045050019	0	0.8	1.52	1	69.1766415160018	69.2396589810014	"3"	27826.437438579	27820.270833259	1.5	0.1
0.01	1	0.0335790069984796	1	97	NA	90.6533045050019	0	0.8	1.52	1	69.4771492860018	69.5107282930003	"3"	27826.437438579	27820.270833259	1.5	0.1
0.01	1	0.0636672100008582	1	97	NA	90.6533045050019	0	0.8	1.52	1	69.7442114059995	69.8078786160004	"3"	27826.437438579	27820.270833259	1.5	0.1
0.01	1	0.0504236300002958	1	97	NA	90.6533045050019	0	0.8	1.52	1	70.0447670310023	70.0951906610026	"3"	27826.437438579	27820.270833259	1.5	0.1
0.01	1	0.0713913949984999	1	97	NA	90.6533045050019	0	0.8	1.52	1	70.328573523002	70.3999649180005	"3"	27826.437438579	27820.270833259	1.5	0.1
0.01	1	0.0750199590002012	1	97	NA	90.6533045050019	0	0.8	1.52	1	70.6291357900009	70.7041557490011	"3"	27826.437438579	27820.270833259	1.5	0.1
0.01	1	0.0773998549993848	1	97	NA	90.6533045050019	0	0.8	1.52	1	70.9295617600001	71.0069616149995	"3"	27826.437438579	27820.270833259	1.5	0.1
0.01	1	0.0743654389989388	1	97	NA	90.6533045050019	0	0.8	1.52	1	71.2300551480002	71.3044205869992	"3"	27826.437438579	27820.270833259	1.5	0.1
0.01	1	0.0940235899979598	1	97	NA	90.6533045050019	0	0.8	1.52	1	71.5305706460022	71.6245942360001	"3"	27826.437438579	27820.270833259	1.5	0.1
0.01	1	0.0542484500001592	1	97	NA	90.6533045050019	0	0.8	1.52	1	71.864421696002	71.9186701460021	"3"	27826.437438579	27820.270833259	1.5	0.1
0.01	1	0.0755164639995201	1	97	NA	90.6533045050019	0	0.8	1.52	1	72.1482847860025	72.223801250002	"3"	27826.437438579	27820.270833259	1.5	0.1
0.01	1	0.0877087699991534	1	97	NA	90.6533045050019	0	0.8	1.52	1	72.4487468410007	72.5364556109998	"3"	27826.437438579	27820.270833259	1.5	0.1
0.01	1	0.0822742160016787	1	97	NA	90.6533045050019	0	0.8	1.52	1	72.7659494660002	72.8482236820018	"3"	27826.437438579	27820.270833259	1.5	0.1
0.01	1	0.0996014659976936	1	97	NA	90.6533045050019	0	0.8	1.52	1	73.083257221002	73.1828586869997	"3"	27826.437438579	27820.270833259	1.5	0.1
0.01	1	2.72572234499967	1	97	NA	90.6533045050019	0	0.8	1.52	1	73.4170882110011	76.1428105560008	"3"	27826.437438579	27820.270833259	1.5	0.1
0.01	1	0.0751106700008677	1	97	NA	90.6533045050019	0	0.8	1.52	1	76.372125326001	76.4472359960018	"3"	27826.437438579	27820.270833259	1.5	0.1
0.01	1	0.112051028001588	1	97	NA	90.6533045050019	0	0.8	1.52	1	76.6725551109994	76.784606139001	"3"	27826.437438579	27820.270833259	1.5	0.1
0.01	1	0.0570847350027179	1	97	NA	90.6533045050019	0	0.8	1.52	1	77.0231681969999	77.0802529320026	"3"	27826.437438579	27820.270833259	1.5	0.1
0.01	1	0.123733843000082	1	97	NA	90.6533045050019	0	0.8	1.52	1	77.3069736280013	77.4307074710014	"3"	27826.437438579	27820.270833259	1.5	0.1
0.01	1	0.0541320909978822	1	97	NA	90.6533045050019	0	0.8	1.52	1	77.6574845780015	77.7116166689993	"3"	27826.437438579	27820.270833259	1.5	0.1
0.01	1	0.0578925569971034	1	97	NA	90.6533045050019	0	0.8	1.52	1	77.9414175660022	77.9993101229993	"3"	27826.437438579	27820.270833259	1.5	0.1
0.01	1	0.0472867970020161	1	97	NA	90.6533045050019	0	0.8	1.52	1	78.2252260509995	78.2725128480015	"3"	27826.437438579	27820.270833259	1.5	0.1
0.01	1	0.0755597120005405	1	97	NA	90.6533045050019	0	0.8	1.52	1	78.508952381002	78.5845120930026	"3"	27826.437438579	27820.270833259	1.5	0.1
0.01	1	0.183168805997411	1	97	NA	90.6533045050019	0	0.8	1.52	1	78.8094883030026	78.992657109	"3"	27826.437438579	27820.270833259	1.5	0.1
0.01	1	0.300592359999428	1	97	NA	90.6533045050019	0	0.8	1.52	1	79.2268208109999	79.5274131709994	"3"	27826.437438579	27820.270833259	1.5	0.1
0.01	1	0.157886952001718	1	97	NA	90.6533045050019	0	0.8	1.52	1	79.7611278660006	79.9190148180023	"3"	27826.437438579	27820.270833259	1.5	0.1
0.01	1	0.126640955000767	1	97	NA	90.6533045050019	0	0.8	1.52	1	80.1451094360018	80.2717503910026	"3"	27826.437438579	27820.270833259	1.5	0.1
0.01	1	0.02294584700212	1	97	NA	90.6533045050019	0	0.8	1.52	1	80.5123631030001	80.5353089500022	"3"	27826.437438579	27820.270833259	1.5	0.1
0.01	1	0.0760086279988172	1	97	NA	90.6533045050019	0	0.8	1.52	1	80.7627374430012	80.8387460710001	"3"	27826.437438579	27820.270833259	1.5	0.1
0.01	1	0.0397608439998294	1	97	NA	90.6533045050019	0	0.8	1.52	1	81.0631875030012	81.1029483470011	"3"	27826.437438579	27820.270833259	1.5	0.1
0.01	1	0.0696454049975728	1	97	NA	90.6533045050019	0	0.8	1.52	1	81.3304620760027	81.4001074810003	"3"	27826.437438579	27820.270833259	1.5	0.1
0.01	1	0.0478817010007333	1	97	NA	90.6533045050019	0	0.8	1.52	1	81.6309817260008	81.6788634270015	"3"	27826.437438579	27820.270833259	1.5	0.1
0.01	1	0.14847417099736	1	97	NA	90.6533045050019	0	0.8	1.52	1	81.9147552560025	82.0632294269999	"3"	27826.437438579	27820.270833259	1.5	0.1
0.01	1	0.124324771997635	1	97	NA	90.6533045050019	0	0.8	1.52	1	82.2987137000018	82.4230384719995	"3"	27826.437438579	27820.270833259	1.5	0.1
0.01	1	0.182585392001783	1	97	NA	90.6533045050019	0	0.8	1.52	1	82.6493822709999	82.8319676630017	"3"	27826.437438579	27820.270833259	1.5	0.1
0.01	1	0.133775441998296	1	97	NA	90.6533045050019	0	0.8	1.52	1	83.0667002760019	83.2004757180002	"3"	27826.437438579	27820.270833259	1.5	0.1
0.01	1	0.148680487000092	1	97	NA	90.6533045050019	0	0.8	1.52	1	83.4339719710006	83.5826524580007	"3"	27826.437438579	27820.270833259	1.5	0.1
0.01	1	0.117046921997826	1	97	NA	90.6533045050019	0	0.8	1.52	1	83.8179776210018	83.9350245429996	"3"	27826.437438579	27820.270833259	1.5	0.1
0.01	1	0.134894030001306	1	97	NA	90.6533045050019	0	0.8	1.52	1	84.1684550579994	84.3033490880007	"3"	27826.437438579	27820.270833259	1.5	0.1
0.01	1	0.120138352001959	1	97	NA	90.6533045050019	0	0.8	1.52	1	84.5357671210004	84.6559054730023	"3"	27826.437438579	27820.270833259	1.5	0.1
0.01	1	0.14430787099991	1	97	NA	90.6533045050019	0	0.8	1.52	1	84.8864803809993	85.0307882519992	"3"	27826.437438579	27820.270833259	1.5	0.1
0.01	1	0.130602730001556	1	97	NA	90.6533045050019	0	0.8	1.52	1	85.2536356860001	85.3842384160016	"3"	27826.437438579	27820.270833259	1.5	0.1
0.01	1	0.0978519799973583	1	97	NA	90.6533045050019	0	0.8	1.52	1	85.6208644960025	85.7187164759998	"3"	27826.437438579	27820.270833259	1.5	0.1
0.01	1	0.147864571001264	1	97	NA	90.6533045050019	0	0.8	1.52	1	85.9548768040004	86.1027413750016	"3"	27826.437438579	27820.270833259	1.5	0.1
0.01	1	4.31291460499779	2	97	NA	90.6533045050019	0	0.8	1.52	1	86.3388457300025	90.6517603350003	"3"	27826.437438579	27820.270833259	1.5	0.1
0.01	1	0.457356882001477	1	51	109.213525483003	NA	1	0	1.52	1	92.6995617159992	93.1569185980006	"4"	27826.437438579	27820.270833259	1.5	0.1
0.01	1	0.0195319449994713	1	51	109.213525483003	NA	1	0	1.52	1	93.3841289110023	93.4036608560018	"4"	27826.437438579	27820.270833259	1.5	0.1
0.01	1	0.0170965910001541	1	51	109.213525483003	NA	1	0	1.52	1	93.6344574680006	93.6515540590008	"4"	27826.437438579	27820.270833259	1.5	0.1
0.01	1	0.00392265699701966	1	51	109.213525483003	NA	1	0	1.52	1	93.8848910760025	93.8888137329996	"4"	27826.437438579	27820.270833259	1.5	0.1
0.01	1	0.013657092997164	1	51	109.213525483003	NA	1	0	1.52	1	94.1185775510021	94.1322346439993	"4"	27826.437438579	27820.270833259	1.5	0.1
0.01	1	0.00218054300057702	1	51	109.213525483003	NA	1	0	1.52	1	94.3689853830001	94.3711659260007	"4"	27826.437438579	27820.270833259	1.5	0.1
0.01	1	0.00455157699980191	1	51	109.213525483003	NA	1	0	1.52	1	94.6027729310008	94.6073245080006	"4"	27826.437438579	27820.270833259	1.5	0.1
0.01	1	0.00205118300073082	1	51	109.213525483003	NA	1	0	1.52	1	94.8364405210014	94.8384917040021	"4"	27826.437438579	27820.270833259	1.5	0.1
0.01	1	0.00206003600033	1	51	109.213525483003	NA	1	0	1.52	1	95.070187579	95.0722476150004	"4"	27826.437438579	27820.270833259	1.5	0.1
0.01	1	0.00324417599767912	1	51	109.213525483003	NA	1	0	1.52	1	95.3038089790025	95.3070531550002	"4"	27826.437438579	27820.270833259	1.5	0.1
0.01	1	0.0192431909999868	1	51	109.213525483003	NA	1	0	1.52	1	95.5376952260012	95.5569384170012	"4"	27826.437438579	27820.270833259	1.5	0.1
0.01	1	0.00202246000117157	1	51	109.213525483003	NA	1	0	1.52	1	95.7880222349995	95.7900446950007	"4"	27826.437438579	27820.270833259	1.5	0.1
0.01	1	0.003646689998277	1	51	109.213525483003	NA	1	0	1.52	1	96.0217754210025	96.0254221110008	"4"	27826.437438579	27820.270833259	1.5	0.1
0.01	1	0.00363513699994655	1	51	109.213525483003	NA	1	0	1.52	1	96.2555248980025	96.2591600350024	"4"	27826.437438579	27820.270833259	1.5	0.1
0.01	1	0.00387327499993262	1	51	109.213525483003	NA	1	0	1.52	1	96.4892662359998	96.4931395109998	"4"	27826.437438579	27820.270833259	1.5	0.1
0.01	1	0.0171049109994783	1	51	109.213525483003	NA	1	0	1.52	1	96.7229888780021	96.7400937890015	"4"	27826.437438579	27820.270833259	1.5	0.1
0.01	1	0.0220414549985435	1	51	109.213525483003	NA	1	0	1.52	1	96.9733457030015	96.9953871580001	"4"	27826.437438579	27820.270833259	1.5	0.1
0.01	1	0.0197451929998351	1	51	109.213525483003	NA	1	0	1.52	1	97.2238495260026	97.2435947190024	"4"	27826.437438579	27820.270833259	1.5	0.1
0.01	1	0.041447267998592	1	51	109.213525483003	NA	1	0	1.52	1	97.474216638002	97.5156639060006	"4"	27826.437438579	27820.270833259	1.5	0.1
0.01	1	0.0394081410013314	1	51	109.213525483003	NA	1	0	1.52	1	97.7413047779992	97.7807129190005	"4"	27826.437438579	27820.270833259	1.5	0.1
0.01	1	0.196312003001367	1	51	109.213525483003	NA	1	0	1.52	1	98.008473236001	98.2047852390024	"4"	27826.437438579	27820.270833259	1.5	0.1
0.01	1	0.0418075790003059	1	51	109.213525483003	NA	1	0	1.52	1	98.4425467910005	98.4843543700008	"4"	27826.437438579	27820.270833259	1.5	0.1
0.01	1	0.0234361990005709	1	51	109.213525483003	NA	1	0	1.52	1	98.7096413510008	98.7330775500013	"4"	27826.437438579	27820.270833259	1.5	0.1
0.01	1	0.0203152670001145	1	51	109.213525483003	NA	1	0	1.52	1	98.9601610540012	98.9804763210013	"4"	27826.437438579	27820.270833259	1.5	0.1
0.01	1	0.050202990998514	1	51	109.213525483003	NA	1	0	1.52	1	99.2104805980016	99.2606835890001	"4"	27826.437438579	27820.270833259	1.5	0.1
0.01	1	0.00821595500019612	1	51	109.213525483003	NA	1	0	1.52	1	99.4942365360002	99.5024524910004	"4"	27826.437438579	27820.270833259	1.5	0.1
0.01	1	0.0191664159974607	1	51	109.213525483003	NA	1	0	1.52	1	99.7279534430018	99.7471198589992	"4"	27826.437438579	27820.270833259	1.5	0.1
0.01	1	0.0343646670007729	1	51	109.213525483003	NA	1	0	1.52	1	99.9784004430003	100.012765110001	"4"	27826.437438579	27820.270833259	1.5	0.1
0.01	1	0.0140393649999169	1	51	109.213525483003	NA	1	0	1.52	1	100.245628725999	100.259668090999	"4"	27826.437438579	27820.270833259	1.5	0.1
0.01	1	0.308220815000823	1	51	109.213525483003	NA	1	0	1.52	1	100.496065461	100.804286276001	"4"	27826.437438579	27820.270833259	1.5	0.1
0.01	1	0.349007952998363	1	51	109.213525483003	NA	1	0	1.52	1	101.030253648001	101.379261601	"4"	27826.437438579	27820.270833259	1.5	0.1
0.01	1	0.157625499999995	1	51	109.213525483003	NA	1	0	1.52	1	101.614521326002	101.772146826002	"4"	27826.437438579	27820.270833259	1.5	0.1
0.01	1	1.06117894400086	1	51	109.213525483003	NA	1	0	1.52	1	101.998497836001	103.059676780002	"4"	27826.437438579	27820.270833259	1.5	0.1
0.01	1	0.119866334000108	1	51	109.213525483003	NA	1	0	1.52	1	103.283977381001	103.403843715001	"4"	27826.437438579	27820.270833259	1.5	0.1
0.01	1	0.0734297520029941	1	51	109.213525483003	NA	1	0	1.52	1	103.634658630999	103.708088383002	"4"	27826.437438579	27820.270833259	1.5	0.1
0.01	1	0.0930928719972144	1	51	109.213525483003	NA	1	0	1.52	1	103.935054198002	104.028147069999	"4"	27826.437438579	27820.270833259	1.5	0.1
0.01	1	0.0789858099997218	1	51	109.213525483003	NA	1	0	1.52	1	104.252312156001	104.331297966	"4"	27826.437438579	27820.270833259	1.5	0.1
0.01	1	0.0816142719995696	1	51	109.213525483003	NA	1	0	1.52	1	104.569505853	104.651120125	"4"	27826.437438579	27820.270833259	1.5	0.1
0.01	1	0.085988767001254	1	51	109.213525483003	NA	1	0	1.52	1	104.886666701001	104.972655468002	"4"	27826.437438579	27820.270833259	1.5	0.1
0.01	1	0.120380639000359	1	51	109.213525483003	NA	1	0	1.52	1	105.204043251	105.324423890001	"4"	27826.437438579	27820.270833259	1.5	0.1
0.01	1	0.194485371997871	1	51	109.213525483003	NA	1	0	1.52	1	105.554457853003	105.748943225	"4"	27826.437438579	27820.270833259	1.5	0.1
0.01	1	0.143066759999783	1	51	109.213525483003	NA	1	0	1.52	1	105.971963741002	106.115030501001	"4"	27826.437438579	27820.270833259	1.5	0.1
0.01	1	0.120159690999571	1	51	109.213525483003	NA	1	0	1.52	1	106.339168661001	106.459328352001	"4"	27826.437438579	27820.270833259	1.5	0.1
0.01	1	0.075031766002212	1	51	109.213525483003	NA	1	0	1.52	1	106.689817230999	106.764848997002	"4"	27826.437438579	27820.270833259	1.5	0.1
0.01	1	0.149242089999461	1	51	109.213525483003	NA	1	0	1.52	1	106.990316056002	107.139558146002	"4"	27826.437438579	27820.270833259	1.5	0.1
0.01	1	0.110523669998656	1	51	109.213525483003	NA	1	0	1.52	1	107.374163231001	107.484686901	"4"	27826.437438579	27820.270833259	1.5	0.1
0.01	1	0.0965986609990068	1	51	109.213525483003	NA	1	0	1.52	1	107.708162008003	107.804760669002	"4"	27826.437438579	27820.270833259	1.5	0.1
0.01	1	0.0662449190022016	1	51	109.213525483003	NA	1	0	1.52	1	108.042035936	108.108280855002	"4"	27826.437438579	27820.270833259	1.5	0.1
0.01	1	0.0945568620008999	1	51	109.213525483003	NA	1	0	1.52	1	108.342489806	108.437046668001	"4"	27826.437438579	27820.270833259	1.5	0.1
0.01	1	0.0792907729992294	1	51	109.213525483003	NA	1	0	1.52	1	108.659648270001	108.738939043	"4"	27826.437438579	27820.270833259	1.5	0.1
0.01	1	0.114717561998987	1	51	109.213525483003	NA	1	0	1.52	1	108.976826366001	109.091543928	"4"	27826.437438579	27820.270833259	1.5	0.1
0.01	1	0.819087421001313	1	116	NA	118.310531559	0	0.25	1.77	1	111.264066842999	112.083154264001	"5"	27826.437438579	27820.270833259	1.5	0.1
0.01	1	0.00212753700179746	1	116	NA	118.310531559	0	0.25	1.77	1	112.315895809999	112.318023347001	"5"	27826.437438579	27820.270833259	1.5	0.1
0.01	1	0.00206223100030911	1	116	NA	118.310531559	0	0.25	1.77	1	112.549533415	112.551595646	"5"	27826.437438579	27820.270833259	1.5	0.1
0.01	1	0.00396752700180514	1	116	NA	118.310531559	0	0.25	1.77	1	112.783350326001	112.787317853003	"5"	27826.437438579	27820.270833259	1.5	0.1
0.01	1	0.00397572500151	1	116	NA	118.310531559	0	0.25	1.77	1	113.017083658	113.021059383002	"5"	27826.437438579	27820.270833259	1.5	0.1
0.01	1	0.00452088599922718	1	116	NA	118.310531559	0	0.25	1.77	1	113.250877930001	113.255398816	"5"	27826.437438579	27820.270833259	1.5	0.1
0.01	1	0.00407041300059063	1	116	NA	118.310531559	0	0.25	1.77	1	113.484512168001	113.488582581002	"5"	27826.437438579	27820.270833259	1.5	0.1
0.01	1	0.00369873000090593	1	116	NA	118.310531559	0	0.25	1.77	1	113.718244583	113.721943313001	"5"	27826.437438579	27820.270833259	1.5	0.1
0.01	1	0.00376530100038508	1	116	NA	118.310531559	0	0.25	1.77	1	113.951953076001	113.955718377001	"5"	27826.437438579	27820.270833259	1.5	0.1
0.01	1	0.0037540910016105	1	116	NA	118.310531559	0	0.25	1.77	1	114.185637446	114.189391537002	"5"	27826.437438579	27820.270833259	1.5	0.1
0.01	1	0.00384231499992893	1	116	NA	118.310531559	0	0.25	1.77	1	114.419428908001	114.423271223	"5"	27826.437438579	27820.270833259	1.5	0.1
0.01	1	0.00199797800087254	1	116	NA	118.310531559	0	0.25	1.77	1	114.653120431001	114.655118409002	"5"	27826.437438579	27820.270833259	1.5	0.1
0.01	1	0.00241746800020337	1	116	NA	118.310531559	0	0.25	1.77	1	114.886815135	114.889232603	"5"	27826.437438579	27820.270833259	1.5	0.1
0.01	1	0.00386202999652596	1	116	NA	118.310531559	0	0.25	1.77	1	115.120627251003	115.124489280999	"5"	27826.437438579	27820.270833259	1.5	0.1
0.01	1	0.00994745199932368	1	116	NA	118.310531559	0	0.25	1.77	1	115.354395081002	115.364342533001	"5"	27826.437438579	27820.270833259	1.5	0.1
0.01	1	0.023083610998583	1	116	NA	118.310531559	0	0.25	1.77	1	115.588027326001	115.611110936999	"5"	27826.437438579	27820.270833259	1.5	0.1
0.01	1	0.0296756589996221	1	116	NA	118.310531559	0	0.25	1.77	1	115.838525716001	115.868201375	"5"	27826.437438579	27820.270833259	1.5	0.1
0.01	1	0.00445726800171542	1	116	NA	118.310531559	0	0.25	1.77	1	116.105632909999	116.110090178001	"5"	27826.437438579	27820.270833259	1.5	0.1
0.01	1	0.0253069249993132	1	116	NA	118.310531559	0	0.25	1.77	1	116.339395391002	116.364702316001	"5"	27826.437438579	27820.270833259	1.5	0.1
0.01	1	0.0151604980019329	1	116	NA	118.310531559	0	0.25	1.77	1	116.589679700999	116.604840199001	"5"	27826.437438579	27820.270833259	1.5	0.1
0.01	1	0.0274948419973953	1	116	NA	118.310531559	0	0.25	1.77	1	116.840159646003	116.867654488	"5"	27826.437438579	27820.270833259	1.5	0.1
0.01	1	0.0117303629995149	1	116	NA	118.310531559	0	0.25	1.77	1	117.090524086001	117.102254449001	"5"	27826.437438579	27820.270833259	1.5	0.1
0.01	1	0.0038931130002311	1	116	NA	118.310531559	0	0.25	1.77	1	117.324254057999	117.328147171	"5"	27826.437438579	27820.270833259	1.5	0.1
0.01	1	0.00709760999961873	1	116	NA	118.310531559	0	0.25	1.77	1	117.557920911	117.565018521	"5"	27826.437438579	27820.270833259	1.5	0.1
0.01	1	0.00360255700070411	1	116	NA	118.310531559	0	0.25	1.77	1	117.791703218001	117.795305775002	"5"	27826.437438579	27820.270833259	1.5	0.1
0.01	1	0.283434681001381	2	116	NA	118.310531559	0	0.25	1.77	1	118.025503196	118.308937877002	"5"	27826.437438579	27820.270833259	1.5	0.1
0.01	1	0.329030789998797	1	118	NA	126.838106744002	0	0.25	2.02	1	120.362650188003	120.691680978001	"6"	27826.437438579	27820.270833259	1.5	0.1
0.01	1	0.00398097099969164	1	118	NA	126.838106744002	0	0.25	2.02	1	120.930381306	120.934362276999	"6"	27826.437438579	27820.270833259	1.5	0.1
0.01	1	0.00372922200040193	1	118	NA	126.838106744002	0	0.25	2.02	1	121.164061033	121.167790255	"6"	27826.437438579	27820.270833259	1.5	0.1
0.01	1	0.00220702700244146	1	118	NA	126.838106744002	0	0.25	2.02	1	121.397777730999	121.399984758002	"6"	27826.437438579	27820.270833259	1.5	0.1
0.01	1	0.00224253900159965	1	118	NA	126.838106744002	0	0.25	2.02	1	121.631628417999	121.633870957001	"6"	27826.437438579	27820.270833259	1.5	0.1
0.01	1	0.00228297399735311	1	118	NA	126.838106744002	0	0.25	2.02	1	121.865341209003	121.867624183	"6"	27826.437438579	27820.270833259	1.5	0.1
0.01	1	0.00209162900137017	1	118	NA	126.838106744002	0	0.25	2.02	1	122.098991257	122.101082886002	"6"	27826.437438579	27820.270833259	1.5	0.1
0.01	1	0.00209194299895898	1	118	NA	126.838106744002	0	0.25	2.02	1	122.332690047002	122.334781990001	"6"	27826.437438579	27820.270833259	1.5	0.1
0.01	1	0.00211059900175314	1	118	NA	126.838106744002	0	0.25	2.02	1	122.566494601	122.568605200002	"6"	27826.437438579	27820.270833259	1.5	0.1
0.01	1	0.00219752200064249	1	118	NA	126.838106744002	0	0.25	2.02	1	122.800085585	122.802283107001	"6"	27826.437438579	27820.270833259	1.5	0.1
0.01	1	0.00281896599699394	1	118	NA	126.838106744002	0	0.25	2.02	1	123.033868557002	123.036687522999	"6"	27826.437438579	27820.270833259	1.5	0.1
0.01	1	0.0036603689986805	1	118	NA	126.838106744002	0	0.25	2.02	1	123.267537018	123.271197386999	"6"	27826.437438579	27820.270833259	1.5	0.1
0.01	1	0.00358850100019481	1	118	NA	126.838106744002	0	0.25	2.02	1	123.501364328	123.504952829	"6"	27826.437438579	27820.270833259	1.5	0.1
0.01	1	0.00707558100111783	1	118	NA	126.838106744002	0	0.25	2.02	1	123.735051696	123.742127277001	"6"	27826.437438579	27820.270833259	1.5	0.1
0.01	1	0.00446734500292223	1	118	NA	126.838106744002	0	0.25	2.02	1	123.968827186	123.973294531002	"6"	27826.437438579	27820.270833259	1.5	0.1
0.01	1	0.00374380399807706	1	118	NA	126.838106744002	0	0.25	2.02	1	124.202603893002	124.206347697	"6"	27826.437438579	27820.270833259	1.5	0.1
0.01	1	0.0232306249999965	1	118	NA	126.838106744002	0	0.25	2.02	1	124.436315532999	124.459546157999	"6"	27826.437438579	27820.270833259	1.5	0.1
0.01	1	0.0138000930019189	1	118	NA	126.838106744002	0	0.25	2.02	1	124.686731643	124.700531736002	"6"	27826.437438579	27820.270833259	1.5	0.1
0.01	1	0.0116027549993305	1	118	NA	126.838106744002	0	0.25	2.02	1	124.937093001001	124.948695756	"6"	27826.437438579	27820.270833259	1.5	0.1
0.01	1	0.0174505529976159	1	118	NA	126.838106744002	0	0.25	2.02	1	125.170789596003	125.188240149	"6"	27826.437438579	27820.270833259	1.5	0.1
0.01	1	0.00721517800047877	1	118	NA	126.838106744002	0	0.25	2.02	1	125.421232750999	125.428447929	"6"	27826.437438579	27820.270833259	1.5	0.1
0.01	1	0.00716147699858993	1	118	NA	126.838106744002	0	0.25	2.02	1	125.655041256003	125.662202733001	"6"	27826.437438579	27820.270833259	1.5	0.1
0.01	1	0.0118358460022137	1	118	NA	126.838106744002	0	0.25	2.02	1	125.888712278	125.900548124002	"6"	27826.437438579	27820.270833259	1.5	0.1
0.01	1	0.0038014439996914	1	118	NA	126.838106744002	0	0.25	2.02	1	126.139034643002	126.142836087001	"6"	27826.437438579	27820.270833259	1.5	0.1
0.01	1	0.00210582400177373	1	118	NA	126.838106744002	0	0.25	2.02	1	126.372900791001	126.375006615002	"6"	27826.437438579	27820.270833259	1.5	0.1
0.01	1	0.230004985998676	2	118	NA	126.838106744002	0	0.25	2.02	1	126.606544663002	126.836549649001	"6"	27826.437438579	27820.270833259	1.5	0.1
0.01	1	0.166053856999497	1	87	NA	135.060577669003	0	0.24	2.26	1	128.893704956001	129.059758813	"7"	27826.437438579	27820.270833259	1.5	0.1
0.01	1	0.0288943640007346	1	87	NA	135.060577669003	0	0.24	2.26	1	129.294448686	129.32334305	"7"	27826.437438579	27820.270833259	1.5	0.1
0.01	1	0.00290881000182708	1	87	NA	135.060577669003	0	0.24	2.26	1	129.561505092999	129.564413903001	"7"	27826.437438579	27820.270833259	1.5	0.1
0.01	1	0.00403632599773118	1	87	NA	135.060577669003	0	0.24	2.26	1	129.795163571001	129.799199896999	"7"	27826.437438579	27820.270833259	1.5	0.1
0.01	1	0.00356487099998049	1	87	NA	135.060577669003	0	0.24	2.26	1	130.028984026001	130.032548897001	"7"	27826.437438579	27820.270833259	1.5	0.1
0.01	1	0.029957890001242	1	87	NA	135.060577669003	0	0.24	2.26	1	130.262758411001	130.292716301003	"7"	27826.437438579	27820.270833259	1.5	0.1
0.01	1	0.00384436999956961	1	87	NA	135.060577669003	0	0.24	2.26	1	130.529811451001	130.533655821	"7"	27826.437438579	27820.270833259	1.5	0.1
0.01	1	0.00978276300156722	1	87	NA	135.060577669003	0	0.24	2.26	1	130.763642366001	130.773425129002	"7"	27826.437438579	27820.270833259	1.5	0.1
0.01	1	0.00833656900067581	1	87	NA	135.060577669003	0	0.24	2.26	1	130.997307889	131.005644458	"7"	27826.437438579	27820.270833259	1.5	0.1
0.01	1	0.00228531599714188	1	87	NA	135.060577669003	0	0.24	2.26	1	131.230914547003	131.233199863	"7"	27826.437438579	27820.270833259	1.5	0.1
0.01	1	0.00392461500086938	1	87	NA	135.060577669003	0	0.24	2.26	1	131.464783758001	131.468708373002	"7"	27826.437438579	27820.270833259	1.5	0.1
0.01	1	0.0180968309978198	1	87	NA	135.060577669003	0	0.24	2.26	1	131.698560536002	131.716657367	"7"	27826.437438579	27820.270833259	1.5	0.1
0.01	1	0.00713462700150558	1	87	NA	135.060577669003	0	0.24	2.26	1	131.948871987999	131.956006615001	"7"	27826.437438579	27820.270833259	1.5	0.1
0.01	1	0.00688893899859977	1	87	NA	135.060577669003	0	0.24	2.26	1	132.182639488001	132.189528426999	"7"	27826.437438579	27820.270833259	1.5	0.1
0.01	1	0.0193039189980482	1	87	NA	135.060577669003	0	0.24	2.26	1	132.416315973001	132.435619892	"7"	27826.437438579	27820.270833259	1.5	0.1
0.01	1	0.0163214849999349	1	87	NA	135.060577669003	0	0.24	2.26	1	132.666872870999	132.683194355999	"7"	27826.437438579	27820.270833259	1.5	0.1
0.01	1	0.00217083200186607	1	87	NA	135.060577669003	0	0.24	2.26	1	132.917117613	132.919288445002	"7"	27826.437438579	27820.270833259	1.5	0.1
0.01	1	0.00708207800198579	1	87	NA	135.060577669003	0	0.24	2.26	1	133.150891613001	133.157973691003	"7"	27826.437438579	27820.270833259	1.5	0.1
0.01	1	0.0265225050025037	1	87	NA	135.060577669003	0	0.24	2.26	1	133.384650137999	133.411172643002	"7"	27826.437438579	27820.270833259	1.5	0.1
0.01	1	0.0562739570013946	1	87	NA	135.060577669003	0	0.24	2.26	1	133.635119316001	133.691393273002	"7"	27826.437438579	27820.270833259	1.5	0.1
0.01	1	0.00704553999821655	1	87	NA	135.060577669003	0	0.24	2.26	1	133.918906661002	133.925952201	"7"	27826.437438579	27820.270833259	1.5	0.1
0.01	1	0.0194714339995699	1	87	NA	135.060577669003	0	0.24	2.26	1	134.152627963002	134.172099397001	"7"	27826.437438579	27820.270833259	1.5	0.1
0.01	1	0.00940187399828574	1	87	NA	135.060577669003	0	0.24	2.26	1	134.403093396002	134.41249527	"7"	27826.437438579	27820.270833259	1.5	0.1
0.01	1	0.00223093300155597	1	87	NA	135.060577669003	0	0.24	2.26	1	134.636724747001	134.638955680002	"7"	27826.437438579	27820.270833259	1.5	0.1
0.01	1	0.188480207001703	2	87	NA	135.060577669003	0	0.24	2.26	1	134.8705367	135.059016907002	"7"	27826.437438579	27820.270833259	1.5	0.1
0.01	1	0.391763526997238	1	6	138.813557606001	NA	1	0	2.26	1	137.107625126002	137.499388652999	"8"	27826.437438579	27820.270833259	1.5	0.1
0.01	1	0.0230363080008829	1	6	138.813557606001	NA	1	0	2.26	1	137.725261086001	137.748297394002	"8"	27826.437438579	27820.270833259	1.5	0.1
0.01	1	0.00343702600002871	1	6	138.813557606001	NA	1	0	2.26	1	137.975686919002	137.979123945002	"8"	27826.437438579	27820.270833259	1.5	0.1
0.01	1	0.0191895159987325	1	6	138.813557606001	NA	1	0	2.26	1	138.209361633002	138.228551149001	"8"	27826.437438579	27820.270833259	1.5	0.1
0.01	1	0.00375877099941135	1	6	138.813557606001	NA	1	0	2.26	1	138.459845218	138.463603988999	"8"	27826.437438579	27820.270833259	1.5	0.1
0.01	1	0.00341933399977279	1	6	138.813557606001	NA	1	0	2.26	1	138.693590413	138.697009747	"8"	27826.437438579	27820.270833259	1.5	0.1
0.01	1	0.421679448998475	1	106	NA	147.717123977	0	0.25	2.51	1	140.847158451001	141.268837899999	"9"	27826.437438579	27820.270833259	1.5	0.1
0.01	1	0.00208183900031145	1	106	NA	147.717123977	0	0.25	2.51	1	141.498419257001	141.500501096001	"9"	27826.437438579	27820.270833259	1.5	0.1
0.01	1	0.00283375900107785	1	106	NA	147.717123977	0	0.25	2.51	1	141.732045481	141.734879240001	"9"	27826.437438579	27820.270833259	1.5	0.1
0.01	1	0.00329901200166205	1	106	NA	147.717123977	0	0.25	2.51	1	141.965722430999	141.969021443001	"9"	27826.437438579	27820.270833259	1.5	0.1
0.01	1	0.00333380200027023	1	106	NA	147.717123977	0	0.25	2.51	1	142.199400465001	142.202734267001	"9"	27826.437438579	27820.270833259	1.5	0.1
0.01	1	0.0042272739992768	1	106	NA	147.717123977	0	0.25	2.51	1	142.433200681	142.437427954999	"9"	27826.437438579	27820.270833259	1.5	0.1
0.01	1	0.00943354300034116	1	106	NA	147.717123977	0	0.25	2.51	1	142.666949303002	142.676382846003	"9"	27826.437438579	27820.270833259	1.5	0.1
0.01	1	0.0144818640001176	1	106	NA	147.717123977	0	0.25	2.51	1	142.900619291002	142.915101155002	"9"	27826.437438579	27820.270833259	1.5	0.1
0.01	1	0.0135512509987166	1	106	NA	147.717123977	0	0.25	2.51	1	143.151089318002	143.164640569001	"9"	27826.437438579	27820.270833259	1.5	0.1
0.01	1	0.011579766000068	1	106	NA	147.717123977	0	0.25	2.51	1	143.401430641003	143.413010407003	"9"	27826.437438579	27820.270833259	1.5	0.1
0.01	1	0.0178725559999293	1	106	NA	147.717123977	0	0.25	2.51	1	143.635162283001	143.653034839001	"9"	27826.437438579	27820.270833259	1.5	0.1
0.01	1	0.0226407619993552	1	106	NA	147.717123977	0	0.25	2.51	1	143.885649756001	143.908290518	"9"	27826.437438579	27820.270833259	1.5	0.1
0.01	1	0.01960649999819	1	106	NA	147.717123977	0	0.25	2.51	1	144.136102436001	144.155708935999	"9"	27826.437438579	27820.270833259	1.5	0.1
0.01	1	0.00986218900288804	1	106	NA	147.717123977	0	0.25	2.51	1	144.386454760999	144.396316950002	"9"	27826.437438579	27820.270833259	1.5	0.1
0.01	1	0.023421657999279	1	106	NA	147.717123977	0	0.25	2.51	1	144.636913398001	144.660335056	"9"	27826.437438579	27820.270833259	1.5	0.1
0.01	1	0.0135809370003699	1	106	NA	147.717123977	0	0.25	2.51	1	144.887313146002	144.900894083003	"9"	27826.437438579	27820.270833259	1.5	0.1
0.01	1	0.0112549119985488	1	106	NA	147.717123977	0	0.25	2.51	1	145.137810641001	145.149065553	"9"	27826.437438579	27820.270833259	1.5	0.1
0.01	1	0.0330935359997966	1	106	NA	147.717123977	0	0.25	2.51	1	145.371526890001	145.404620426001	"9"	27826.437438579	27820.270833259	1.5	0.1
0.01	1	0.013026851000177	1	106	NA	147.717123977	0	0.25	2.51	1	145.638629461002	145.651656312002	"9"	27826.437438579	27820.270833259	1.5	0.1
0.01	1	0.0112695220013848	1	106	NA	147.717123977	0	0.25	2.51	1	145.889065951	145.900335473001	"9"	27826.437438579	27820.270833259	1.5	0.1
0.01	1	0.0342685579998943	1	106	NA	147.717123977	0	0.25	2.51	1	146.122704751	146.156973309	"9"	27826.437438579	27820.270833259	1.5	0.1
0.01	1	0.0131918990009581	1	106	NA	147.717123977	0	0.25	2.51	1	146.389814956001	146.403006855002	"9"	27826.437438579	27820.270833259	1.5	0.1
0.01	1	0.0271883770001295	1	106	NA	147.717123977	0	0.25	2.51	1	146.640360576002	146.667548953003	"9"	27826.437438579	27820.270833259	1.5	0.1
0.01	1	0.00990755400198395	1	106	NA	147.717123977	0	0.25	2.51	1	146.890685291	146.900592845002	"9"	27826.437438579	27820.270833259	1.5	0.1
0.01	1	0.0160412029981671	1	106	NA	147.717123977	0	0.25	2.51	1	147.124351771003	147.140392974001	"9"	27826.437438579	27820.270833259	1.5	0.1
0.01	1	0.340770561000681	2	106	NA	147.717123977	0	0.25	2.51	1	147.374837957999	147.715608519	"9"	27826.437438579	27820.270833259	1.5	0.1
0.01	1	0.312969024002086	1	21	155.224406103	NA	1	0	2.51	1	149.762199139001	150.075168163003	"10"	27826.437438579	27820.270833259	1.5	0.1
0.01	1	0.0347063370027172	1	21	155.224406103	NA	1	0	2.51	1	150.313162410999	150.347868748002	"10"	27826.437438579	27820.270833259	1.5	0.1
0.01	1	0.0022152260025905	1	21	155.224406103	NA	1	0	2.51	1	150.580177907999	150.582393134002	"10"	27826.437438579	27820.270833259	1.5	0.1
0.01	1	0.00340346200027852	1	21	155.224406103	NA	1	0	2.51	1	150.813907501	150.817310963001	"10"	27826.437438579	27820.270833259	1.5	0.1
0.01	1	0.00359819200093625	1	21	155.224406103	NA	1	0	2.51	1	151.047709315	151.051307507001	"10"	27826.437438579	27820.270833259	1.5	0.1
0.01	1	0.00461680499938666	1	21	155.224406103	NA	1	0	2.51	1	151.281525311002	151.286142116001	"10"	27826.437438579	27820.270833259	1.5	0.1
0.01	1	0.040408788001514	1	21	155.224406103	NA	1	0	2.51	1	151.515156351001	151.555565139002	"10"	27826.437438579	27820.270833259	1.5	0.1
0.01	1	0.0534770880003634	1	21	155.224406103	NA	1	0	2.51	1	151.782298818001	151.835775906002	"10"	27826.437438579	27820.270833259	1.5	0.1
0.01	1	0.0176917089993367	1	21	155.224406103	NA	1	0	2.51	1	152.066153978001	152.083845687001	"10"	27826.437438579	27820.270833259	1.5	0.1
0.01	1	0.0243097649981792	1	21	155.224406103	NA	1	0	2.51	1	152.316418236001	152.340728001	"10"	27826.437438579	27820.270833259	1.5	0.1
0.01	1	0.0360420430006343	1	21	155.224406103	NA	1	0	2.51	1	152.567038163001	152.603080206001	"10"	27826.437438579	27820.270833259	1.5	0.1
0.01	1	0.0249974049984303	1	21	155.224406103	NA	1	0	2.51	1	152.834014101001	152.859011506	"10"	27826.437438579	27820.270833259	1.5	0.1
0.01	1	0.016002987002139	1	21	155.224406103	NA	1	0	2.51	1	153.084439701001	153.100442688003	"10"	27826.437438579	27820.270833259	1.5	0.1
0.01	1	0.0131520699978864	1	21	155.224406103	NA	1	0	2.51	1	153.334826836002	153.347978906	"10"	27826.437438579	27820.270833259	1.5	0.1
0.01	1	0.018849505999242	1	21	155.224406103	NA	1	0	2.51	1	153.585303391003	153.604152897002	"10"	27826.437438579	27820.270833259	1.5	0.1
0.01	1	0.0251223410014063	1	21	155.224406103	NA	1	0	2.51	1	153.835728816	153.860851157002	"10"	27826.437438579	27820.270833259	1.5	0.1
0.01	1	0.0304127119998157	1	21	155.224406103	NA	1	0	2.51	1	154.086136668	154.11654938	"10"	27826.437438579	27820.270833259	1.5	0.1
0.01	1	0.0194359720007924	1	21	155.224406103	NA	1	0	2.51	1	154.353307085999	154.372743058	"10"	27826.437438579	27820.270833259	1.5	0.1
0.01	1	0.0242821499996353	1	21	155.224406103	NA	1	0	2.51	1	154.603748228001	154.628030378	"10"	27826.437438579	27820.270833259	1.5	0.1
0.01	1	0.00349151300179074	1	21	155.224406103	NA	1	0	2.51	1	154.854053155999	154.857544669001	"10"	27826.437438579	27820.270833259	1.5	0.1
0.01	1	0.0203106049993949	1	21	155.224406103	NA	1	0	2.51	1	155.087840861001	155.108151466	"10"	27826.437438579	27820.270833259	1.5	0.1
0.01	1	0.288665928997943	1	19	162.202676866	NA	1	0	2.51	1	157.274848878002	157.563514807	"11"	27826.437438579	27820.270833259	1.5	0.1
0.01	1	0.00399199499952374	1	19	162.202676866	NA	1	0	2.51	1	157.792452336002	157.796444331001	"11"	27826.437438579	27820.270833259	1.5	0.1
0.01	1	0.00222849900092115	1	19	162.202676866	NA	1	0	2.51	1	158.026075987	158.028304486001	"11"	27826.437438579	27820.270833259	1.5	0.1
0.01	1	0.0107054369982507	1	19	162.202676866	NA	1	0	2.51	1	158.259857380002	158.270562817001	"11"	27826.437438579	27820.270833259	1.5	0.1
0.01	1	0.0150880889996188	1	19	162.202676866	NA	1	0	2.51	1	158.493587573001	158.508675662	"11"	27826.437438579	27820.270833259	1.5	0.1
0.01	1	0.00203598900043289	1	19	162.202676866	NA	1	0	2.51	1	158.743935215	158.745971204	"11"	27826.437438579	27820.270833259	1.5	0.1
0.01	1	0.00465067200275371	1	19	162.202676866	NA	1	0	2.51	1	158.977791931	158.982442603003	"11"	27826.437438579	27820.270833259	1.5	0.1
0.01	1	0.00220934900062275	1	19	162.202676866	NA	1	0	2.51	1	159.211394267	159.213603616001	"11"	27826.437438579	27820.270833259	1.5	0.1
0.01	1	0.00718925999899511	1	19	162.202676866	NA	1	0	2.51	1	159.445140643002	159.452329903001	"11"	27826.437438579	27820.270833259	1.5	0.1
0.01	1	0.0287780019971251	1	19	162.202676866	NA	1	0	2.51	1	159.678816203002	159.707594205	"11"	27826.437438579	27820.270833259	1.5	0.1
0.01	1	0.0180754069988325	1	19	162.202676866	NA	1	0	2.51	1	159.946010880001	159.964086287	"11"	27826.437438579	27820.270833259	1.5	0.1
0.01	1	0.00853959800224402	1	19	162.202676866	NA	1	0	2.51	1	160.196300952	160.204840550003	"11"	27826.437438579	27820.270833259	1.5	0.1
0.01	1	0.0468067670008168	1	19	162.202676866	NA	1	0	2.51	1	160.430175851001	160.476982618002	"11"	27826.437438579	27820.270833259	1.5	0.1
0.01	1	0.0412883720018726	1	19	162.202676866	NA	1	0	2.51	1	160.713977936	160.755266308002	"11"	27826.437438579	27820.270833259	1.5	0.1
0.01	1	0.0395674370010966	1	19	162.202676866	NA	1	0	2.51	1	160.981011628999	161.020579066	"11"	27826.437438579	27820.270833259	1.5	0.1
0.01	1	0.0368745289997605	1	19	162.202676866	NA	1	0	2.51	1	161.248022940999	161.284897469999	"11"	27826.437438579	27820.270833259	1.5	0.1
0.01	1	0.0653021840007568	1	19	162.202676866	NA	1	0	2.51	1	161.515286635	161.580588819001	"11"	27826.437438579	27820.270833259	1.5	0.1
0.01	1	0.0200414859973534	1	19	162.202676866	NA	1	0	2.51	1	161.815780355002	161.835821840999	"11"	27826.437438579	27820.270833259	1.5	0.1
0.01	1	0.0248562220003805	1	19	162.202676866	NA	1	0	2.51	1	162.066235050999	162.091091273	"11"	27826.437438579	27820.270833259	1.5	0.1
0.01	1	0.00451443199926871	1	63	NA	170.156584608001	0	0.15	2.66	1	164.236491996002	164.241006428001	"12"	27826.437438579	27820.270833259	1.5	0.1
0.01	1	0.414491008999903	1	63	NA	170.156584608001	0	0.15	2.66	1	164.470276111002	164.884767120002	"12"	27826.437438579	27820.270833259	1.5	0.1
0.01	1	0.185951344999921	1	63	NA	170.156584608001	0	0.15	2.66	1	165.121466241002	165.307417586002	"12"	27826.437438579	27820.270833259	1.5	0.1
0.01	1	0.193157070996676	1	63	NA	170.156584608001	0	0.15	2.66	1	165.538688758003	165.731845828999	"12"	27826.437438579	27820.270833259	1.5	0.1
0.01	1	0.11275846600256	1	63	NA	170.156584608001	0	0.15	2.66	1	165.956205525999	166.068963992002	"12"	27826.437438579	27820.270833259	1.5	0.1
0.01	1	0.865460782999435	1	63	NA	170.156584608001	0	0.15	2.66	1	166.306758570001	167.172219353	"12"	27826.437438579	27820.270833259	1.5	0.1
0.01	1	0.0111348680002266	1	63	NA	170.156584608001	0	0.15	2.66	1	167.408578043	167.419712911	"12"	27826.437438579	27820.270833259	1.5	0.1
0.01	1	0.00986606900187326	1	63	NA	170.156584608001	0	0.15	2.66	1	167.642222928	167.652088997002	"12"	27826.437438579	27820.270833259	1.5	0.1
0.01	1	0.00995526599945151	1	63	NA	170.156584608001	0	0.15	2.66	1	167.876077001001	167.886032267001	"12"	27826.437438579	27820.270833259	1.5	0.1
0.01	1	0.00346486800117418	1	63	NA	170.156584608001	0	0.15	2.66	1	168.126359971	168.129824839001	"12"	27826.437438579	27820.270833259	1.5	0.1
0.01	1	0.451329477000399	1	63	NA	170.156584608001	0	0.15	2.66	1	168.360198936	168.811528413	"12"	27826.437438579	27820.270833259	1.5	0.1
0.01	1	0.00220909700146876	1	63	NA	170.156584608001	0	0.15	2.66	1	169.044543403001	169.046752500002	"12"	27826.437438579	27820.270833259	1.5	0.1
0.01	1	0.00224332400102867	1	63	NA	170.156584608001	0	0.15	2.66	1	169.278374994999	169.280618319	"12"	27826.437438579	27820.270833259	1.5	0.1
0.01	1	0.00224495499787736	1	63	NA	170.156584608001	0	0.15	2.66	1	169.512136608002	169.514381563	"12"	27826.437438579	27820.270833259	1.5	0.1
0.01	1	0.0020896130008623	1	63	NA	170.156584608001	0	0.15	2.66	1	169.745839784002	169.747929397003	"12"	27826.437438579	27820.270833259	1.5	0.1
0.01	1	0.175387912000588	2	63	NA	170.156584608001	0	0.15	2.66	1	169.979637191002	170.155025103002	"12"	27826.437438579	27820.270833259	1.5	0.1
0.01	1	0.396609370000078	1	54	NA	179.366164160001	0	0.25	2.91	1	172.199935158002	172.596544528002	"13"	27826.437438579	27820.270833259	1.5	0.1
0.01	1	0.00268358799803536	1	54	NA	179.366164160001	0	0.25	2.91	1	172.834320417001	172.837004004999	"13"	27826.437438579	27820.270833259	1.5	0.1
0.01	1	0.00207953100107261	1	54	NA	179.366164160001	0	0.25	2.91	1	173.06805111	173.070130641001	"13"	27826.437438579	27820.270833259	1.5	0.1
0.01	1	0.00242368000181159	1	54	NA	179.366164160001	0	0.25	2.91	1	173.301715161	173.304138841002	"13"	27826.437438579	27820.270833259	1.5	0.1
0.01	1	0.0020998360014346	1	54	NA	179.366164160001	0	0.25	2.91	1	173.535489989001	173.537589825002	"13"	27826.437438579	27820.270833259	1.5	0.1
0.01	1	0.00465802700273343	1	54	NA	179.366164160001	0	0.25	2.91	1	173.769363271	173.774021298002	"13"	27826.437438579	27820.270833259	1.5	0.1
0.01	1	0.00208396100060781	1	54	NA	179.366164160001	0	0.25	2.91	1	174.002955287	174.005039248001	"13"	27826.437438579	27820.270833259	1.5	0.1
0.01	1	0.00204259300153353	1	54	NA	179.366164160001	0	0.25	2.91	1	174.236688176999	174.238730770001	"13"	27826.437438579	27820.270833259	1.5	0.1
0.01	1	0.00366384299923084	1	54	NA	179.366164160001	0	0.25	2.91	1	174.470440738001	174.474104581001	"13"	27826.437438579	27820.270833259	1.5	0.1
0.01	1	0.00717037099821027	1	54	NA	179.366164160001	0	0.25	2.91	1	174.704153148003	174.711323519001	"13"	27826.437438579	27820.270833259	1.5	0.1
0.01	1	0.0180506569995487	1	54	NA	179.366164160001	0	0.25	2.91	1	174.937916831001	174.955967488	"13"	27826.437438579	27820.270833259	1.5	0.1
0.01	1	0.00220735800030525	1	54	NA	179.366164160001	0	0.25	2.91	1	175.188274337001	175.190481695001	"13"	27826.437438579	27820.270833259	1.5	0.1
0.01	1	0.00816138799928012	1	54	NA	179.366164160001	0	0.25	2.91	1	175.422020313003	175.430181701002	"13"	27826.437438579	27820.270833259	1.5	0.1
0.01	1	0.0119035770003393	1	54	NA	179.366164160001	0	0.25	2.91	1	175.655767321001	175.667670898001	"13"	27826.437438579	27820.270833259	1.5	0.1
0.01	1	0.00403725700016366	1	54	NA	179.366164160001	0	0.25	2.91	1	175.906108646002	175.910145903003	"13"	27826.437438579	27820.270833259	1.5	0.1
0.01	1	0.0152677499972924	1	54	NA	179.366164160001	0	0.25	2.91	1	176.139872726002	176.155140475999	"13"	27826.437438579	27820.270833259	1.5	0.1
0.01	1	0.0135919570020633	1	54	NA	179.366164160001	0	0.25	2.91	1	176.390343338	176.403935295002	"13"	27826.437438579	27820.270833259	1.5	0.1
0.01	1	0.0111138479987858	1	54	NA	179.366164160001	0	0.25	2.91	1	176.640829341002	176.651943189001	"13"	27826.437438579	27820.270833259	1.5	0.1
0.01	1	0.0419512199987366	1	54	NA	179.366164160001	0	0.25	2.91	1	176.874485961001	176.916437181	"13"	27826.437438579	27820.270833259	1.5	0.1
0.01	1	0.03132106799967	1	54	NA	179.366164160001	0	0.25	2.91	1	177.141598861002	177.172919929002	"13"	27826.437438579	27820.270833259	1.5	0.1
0.01	1	0.604226267998456	1	54	NA	179.366164160001	0	0.25	2.91	1	177.408768191002	178.012994459001	"13"	27826.437438579	27820.270833259	1.5	0.1
0.01	1	0.00459117500213324	1	54	NA	179.366164160001	0	0.25	2.91	1	178.243540361	178.248131536002	"13"	27826.437438579	27820.270833259	1.5	0.1
0.01	1	0.00212835199999972	1	54	NA	179.366164160001	0	0.25	2.91	1	178.477192709001	178.479321061001	"13"	27826.437438579	27820.270833259	1.5	0.1
0.01	1	0.00207318300090265	1	54	NA	179.366164160001	0	0.25	2.91	1	178.71097	178.713043183001	"13"	27826.437438579	27820.270833259	1.5	0.1
0.01	1	0.00207298299937975	1	54	NA	179.366164160001	0	0.25	2.91	1	178.944619154001	178.946692137	"13"	27826.437438579	27820.270833259	1.5	0.1
0.01	1	0.186201938999147	2	54	NA	179.366164160001	0	0.25	2.91	1	179.178392091002	179.364594030001	"13"	27826.437438579	27820.270833259	1.5	0.1
0.01	1	0.388588800000434	1	103	NA	187.924677297	0	0.25	3.16	1	181.398753686	181.787342486001	"14"	27826.437438579	27820.270833259	1.5	0.1
0.01	1	0.00711893200059421	1	103	NA	187.924677297	0	0.25	3.16	1	182.016391731002	182.023510663003	"14"	27826.437438579	27820.270833259	1.5	0.1
0.01	1	0.00994243199966149	1	103	NA	187.924677297	0	0.25	3.16	1	182.250296441001	182.260238873001	"14"	27826.437438579	27820.270833259	1.5	0.1
0.01	1	0.00365216999853146	1	103	NA	187.924677297	0	0.25	3.16	1	182.483939165002	182.487591335001	"14"	27826.437438579	27820.270833259	1.5	0.1
0.01	1	0.013543999997637	1	103	NA	187.924677297	0	0.25	3.16	1	182.717765911002	182.731309911	"14"	27826.437438579	27820.270833259	1.5	0.1
0.01	1	0.00351040999885299	1	103	NA	187.924677297	0	0.25	3.16	1	182.968112073002	182.971622483001	"14"	27826.437438579	27820.270833259	1.5	0.1
0.01	1	0.00308972400307539	1	103	NA	187.924677297	0	0.25	3.16	1	183.201756723	183.204846447003	"14"	27826.437438579	27820.270833259	1.5	0.1
0.01	1	0.00228910199803067	1	103	NA	187.924677297	0	0.25	3.16	1	183.435419347003	183.437708449001	"14"	27826.437438579	27820.270833259	1.5	0.1
0.01	1	0.00376965900068171	1	103	NA	187.924677297	0	0.25	3.16	1	183.669176246	183.672945905	"14"	27826.437438579	27820.270833259	1.5	0.1
0.01	1	0.00319391599987284	1	103	NA	187.924677297	0	0.25	3.16	1	183.902950185002	183.906144101002	"14"	27826.437438579	27820.270833259	1.5	0.1
0.01	1	0.00334342000132892	1	103	NA	187.924677297	0	0.25	3.16	1	184.136615519001	184.139958939002	"14"	27826.437438579	27820.270833259	1.5	0.1
0.01	1	0.0111000799988688	1	103	NA	187.924677297	0	0.25	3.16	1	184.370430471001	184.381530551	"14"	27826.437438579	27820.270833259	1.5	0.1
0.01	1	0.00963129800220486	1	103	NA	187.924677297	0	0.25	3.16	1	184.604056710999	184.613688009002	"14"	27826.437438579	27820.270833259	1.5	0.1
0.01	1	0.0214949620021798	1	103	NA	187.924677297	0	0.25	3.16	1	184.837899471	184.859394433002	"14"	27826.437438579	27820.270833259	1.5	0.1
0.01	1	0.0113358499984315	1	103	NA	187.924677297	0	0.25	3.16	1	185.088323783002	185.099659633001	"14"	27826.437438579	27820.270833259	1.5	0.1
0.01	1	0.0179440020001493	1	103	NA	187.924677297	0	0.25	3.16	1	185.322024880999	185.339968883	"14"	27826.437438579	27820.270833259	1.5	0.1
0.01	1	0.0306475139987015	1	103	NA	187.924677297	0	0.25	3.16	1	185.572507878001	185.603155392	"14"	27826.437438579	27820.270833259	1.5	0.1
0.01	1	0.00371257300139405	1	103	NA	187.924677297	0	0.25	3.16	1	185.839487506	185.843200079002	"14"	27826.437438579	27820.270833259	1.5	0.1
0.01	1	0.0119683899974916	1	103	NA	187.924677297	0	0.25	3.16	1	186.073248446002	186.085216836	"14"	27826.437438579	27820.270833259	1.5	0.1
0.01	1	0.00381299400032731	1	103	NA	187.924677297	0	0.25	3.16	1	186.323716442999	186.327529437	"14"	27826.437438579	27820.270833259	1.5	0.1
0.01	1	0.0230210100016848	1	103	NA	187.924677297	0	0.25	3.16	1	186.557472836001	186.580493846002	"14"	27826.437438579	27820.270833259	1.5	0.1
0.01	1	0.00311136800155509	1	103	NA	187.924677297	0	0.25	3.16	1	186.807774274999	186.810885643001	"14"	27826.437438579	27820.270833259	1.5	0.1
0.01	1	0.00447410500055412	1	103	NA	187.924677297	0	0.25	3.16	1	187.041599673001	187.046073778001	"14"	27826.437438579	27820.270833259	1.5	0.1
0.01	1	0.0039046199999575	1	103	NA	187.924677297	0	0.25	3.16	1	187.275261883002	187.279166503002	"14"	27826.437438579	27820.270833259	1.5	0.1
0.01	1	0.00210918200173182	1	103	NA	187.924677297	0	0.25	3.16	1	187.50894064	187.511049822002	"14"	27826.437438579	27820.270833259	1.5	0.1
0.01	1	0.180307185997663	2	103	NA	187.924677297	0	0.25	3.16	1	187.742788456002	187.923095642	"14"	27826.437438579	27820.270833259	1.5	0.1
0.01	1	0.408414763998735	1	120	NA	196.613930848001	0	0.25	3.41	1	189.963099741002	190.371514505001	"15"	27826.437438579	27820.270833259	1.5	0.1
0.01	1	0.00358641600178089	1	120	NA	196.613930848001	0	0.25	3.41	1	190.597587131	190.601173547002	"15"	27826.437438579	27820.270833259	1.5	0.1
0.01	1	0.0196108160016593	1	120	NA	196.613930848001	0	0.25	3.41	1	190.831307062999	190.850917879001	"15"	27826.437438579	27820.270833259	1.5	0.1
0.01	1	0.00322744200093439	1	120	NA	196.613930848001	0	0.25	3.41	1	191.081632087	191.084859529001	"15"	27826.437438579	27820.270833259	1.5	0.1
0.01	1	0.01551681699857	1	120	NA	196.613930848001	0	0.25	3.41	1	191.315390306001	191.330907123	"15"	27826.437438579	27820.270833259	1.5	0.1
0.01	1	0.00717076599903521	1	120	NA	196.613930848001	0	0.25	3.41	1	191.565930961002	191.573101727001	"15"	27826.437438579	27820.270833259	1.5	0.1
0.01	1	0.00727532899691141	1	120	NA	196.613930848001	0	0.25	3.41	1	191.799585258002	191.806860586999	"15"	27826.437438579	27820.270833259	1.5	0.1
0.01	1	0.0257424689989421	1	120	NA	196.613930848001	0	0.25	3.41	1	192.033372801001	192.05911527	"15"	27826.437438579	27820.270833259	1.5	0.1
0.01	1	0.00225125199722243	1	120	NA	196.613930848001	0	0.25	3.41	1	192.283662207003	192.285913459	"15"	27826.437438579	27820.270833259	1.5	0.1
0.01	1	0.0140443189993675	1	120	NA	196.613930848001	0	0.25	3.41	1	192.517395428	192.531439746999	"15"	27826.437438579	27820.270833259	1.5	0.1
0.01	1	0.00203109100039001	1	120	NA	196.613930848001	0	0.25	3.41	1	192.767933257001	192.769964348001	"15"	27826.437438579	27820.270833259	1.5	0.1
0.01	1	0.00221783799861441	1	120	NA	196.613930848001	0	0.25	3.41	1	193.001485486002	193.003703324001	"15"	27826.437438579	27820.270833259	1.5	0.1
0.01	1	0.0112124740007857	1	120	NA	196.613930848001	0	0.25	3.41	1	193.235351661002	193.246564135003	"15"	27826.437438579	27820.270833259	1.5	0.1
0.01	1	0.0238499599981878	1	120	NA	196.613930848001	0	0.25	3.41	1	193.469078911003	193.492928871001	"15"	27826.437438579	27820.270833259	1.5	0.1
0.01	1	0.0209236890004831	1	120	NA	196.613930848001	0	0.25	3.41	1	193.719446568	193.740370257001	"15"	27826.437438579	27820.270833259	1.5	0.1
0.01	1	0.0174492390033265	1	120	NA	196.613930848001	0	0.25	3.41	1	193.969949410999	193.987398650002	"15"	27826.437438579	27820.270833259	1.5	0.1
0.01	1	0.0148649820002902	1	120	NA	196.613930848001	0	0.25	3.41	1	194.22035087	194.235215852001	"15"	27826.437438579	27820.270833259	1.5	0.1
0.01	1	0.00331379599811044	1	120	NA	196.613930848001	0	0.25	3.41	1	194.470742567002	194.474056363	"15"	27826.437438579	27820.270833259	1.5	0.1
0.01	1	0.0193668149986479	1	120	NA	196.613930848001	0	0.25	3.41	1	194.704509941002	194.723876756001	"15"	27826.437438579	27820.270833259	1.5	0.1
0.01	1	0.0112879419975798	1	120	NA	196.613930848001	0	0.25	3.41	1	194.954881461003	194.966169403	"15"	27826.437438579	27820.270833259	1.5	0.1
0.01	1	0.0400925089998054	1	120	NA	196.613930848001	0	0.25	3.41	1	195.188583546002	195.228676055001	"15"	27826.437438579	27820.270833259	1.5	0.1
0.01	1	0.0136846260029415	1	120	NA	196.613930848001	0	0.25	3.41	1	195.455764050999	195.469448677002	"15"	27826.437438579	27820.270833259	1.5	0.1
0.01	1	0.00235712599896942	1	120	NA	196.613930848001	0	0.25	3.41	1	195.706080259002	195.708437385001	"15"	27826.437438579	27820.270833259	1.5	0.1
0.01	1	0.0161940429970855	1	120	NA	196.613930848001	0	0.25	3.41	1	195.939851106003	195.956045149	"15"	27826.437438579	27820.270833259	1.5	0.1
0.01	1	0.00391205699997954	1	120	NA	196.613930848001	0	0.25	3.41	1	196.190266616002	196.194178673002	"15"	27826.437438579	27820.270833259	1.5	0.1
0.01	1	0.188292268998339	2	120	NA	196.613930848001	0	0.25	3.41	1	196.424024561002	196.61231683	"15"	27826.437438579	27820.270833259	1.5	0.1
0.01	1	0.319231098001183	1	109	NA	205.382042697001	0	0.25	3.66	1	198.661123751001	198.980354849002	"16"	27826.437438579	27820.270833259	1.5	0.1
0.01	1	0.016048363999289	1	109	NA	205.382042697001	0	0.25	3.66	1	199.212059968002	199.228108332001	"16"	27826.437438579	27820.270833259	1.5	0.1
0.01	1	0.00709141499828547	1	109	NA	205.382042697001	0	0.25	3.66	1	199.462364776002	199.469456191	"16"	27826.437438579	27820.270833259	1.5	0.1
0.01	1	0.0194579029994202	1	109	NA	205.382042697001	0	0.25	3.66	1	199.696157066002	199.715614969002	"16"	27826.437438579	27820.270833259	1.5	0.1
0.01	1	0.0100298560028023	1	109	NA	205.382042697001	0	0.25	3.66	1	199.946598295999	199.956628152002	"16"	27826.437438579	27820.270833259	1.5	0.1
0.01	1	0.023149888998887	1	109	NA	205.382042697001	0	0.25	3.66	1	200.180436746003	200.203586635002	"16"	27826.437438579	27820.270833259	1.5	0.1
0.01	1	0.00843810099831899	1	109	NA	205.382042697001	0	0.25	3.66	1	200.430826046002	200.439264147	"16"	27826.437438579	27820.270833259	1.5	0.1
0.01	1	0.0363765440015413	1	109	NA	205.382042697001	0	0.25	3.66	1	200.664565821	200.700942365002	"16"	27826.437438579	27820.270833259	1.5	0.1
0.01	1	0.0172164120012894	1	109	NA	205.382042697001	0	0.25	3.66	1	200.931667303001	200.948883715002	"16"	27826.437438579	27820.270833259	1.5	0.1
0.01	1	0.00721032300134539	1	109	NA	205.382042697001	0	0.25	3.66	1	201.181966656	201.189176979002	"16"	27826.437438579	27820.270833259	1.5	0.1
0.01	1	0.0284055779993651	1	109	NA	205.382042697001	0	0.25	3.66	1	201.415773837001	201.444179415001	"16"	27826.437438579	27820.270833259	1.5	0.1
0.01	1	0.00976581800205167	1	109	NA	205.382042697001	0	0.25	3.66	1	201.666197011	201.675962829002	"16"	27826.437438579	27820.270833259	1.5	0.1
0.01	1	0.0399975219988846	1	109	NA	205.382042697001	0	0.25	3.66	1	201.899890566001	201.939888088	"16"	27826.437438579	27820.270833259	1.5	0.1
0.01	1	0.0120364409995091	1	109	NA	205.382042697001	0	0.25	3.66	1	202.166986788001	202.179023229	"16"	27826.437438579	27820.270833259	1.5	0.1
0.01	1	0.0122006479978154	1	109	NA	205.382042697001	0	0.25	3.66	1	202.417437718002	202.429638366	"16"	27826.437438579	27820.270833259	1.5	0.1
0.01	1	0.0101102269982221	1	109	NA	205.382042697001	0	0.25	3.66	1	202.667849288002	202.677959515	"16"	27826.437438579	27820.270833259	1.5	0.1
0.01	1	0.0306725149966951	1	109	NA	205.382042697001	0	0.25	3.66	1	202.901647746003	202.932320260999	"16"	27826.437438579	27820.270833259	1.5	0.1
0.01	1	0.012208541000291	1	109	NA	205.382042697001	0	0.25	3.66	1	203.168642258002	203.180850799003	"16"	27826.437438579	27820.270833259	1.5	0.1
0.01	1	0.00960874900192721	1	109	NA	205.382042697001	0	0.25	3.66	1	203.419129370999	203.428738120001	"16"	27826.437438579	27820.270833259	1.5	0.1
0.01	1	0.0153151939994132	1	109	NA	205.382042697001	0	0.25	3.66	1	203.652824978002	203.668140172002	"16"	27826.437438579	27820.270833259	1.5	0.1
0.01	1	0.0283360450011969	1	109	NA	205.382042697001	0	0.25	3.66	1	203.903234236001	203.931570281002	"16"	27826.437438579	27820.270833259	1.5	0.1
0.01	1	0.0267401279998012	1	109	NA	205.382042697001	0	0.25	3.66	1	204.153609911002	204.180350039001	"16"	27826.437438579	27820.270833259	1.5	0.1
0.01	1	0.0232333620006102	1	109	NA	205.382042697001	0	0.25	3.66	1	204.404140661001	204.427374023002	"16"	27826.437438579	27820.270833259	1.5	0.1
0.01	1	0.0133988620000309	1	109	NA	205.382042697001	0	0.25	3.66	1	204.654507605999	204.667906467999	"16"	27826.437438579	27820.270833259	1.5	0.1
0.01	1	0.00218850799865322	1	109	NA	205.382042697001	0	0.25	3.66	1	204.904930918001	204.907119426	"16"	27826.437438579	27820.270833259	1.5	0.1
0.01	1	0.241758452000795	2	109	NA	205.382042697001	0	0.25	3.66	1	205.138718216	205.380476668	"16"	27826.437438579	27820.270833259	1.5	0.1
0.01	1	0.370111928001279	1	71	NA	214.245418042003	0	0.25	3.91	1	207.425843692999	207.795955621001	"17"	27826.437438579	27820.270833259	1.5	0.1
0.01	1	0.00385614500191878	1	71	NA	214.245418042003	0	0.25	3.91	1	208.026797568	208.030653713002	"17"	27826.437438579	27820.270833259	1.5	0.1
0.01	1	0.00770590500178514	1	71	NA	214.245418042003	0	0.25	3.91	1	208.26066951	208.268375415002	"17"	27826.437438579	27820.270833259	1.5	0.1
0.01	1	0.00220519899812643	1	71	NA	214.245418042003	0	0.25	3.91	1	208.494241290002	208.496446489	"17"	27826.437438579	27820.270833259	1.5	0.1
0.01	1	0.00315385000067181	1	71	NA	214.245418042003	0	0.25	3.91	1	208.728061189002	208.731215039003	"17"	27826.437438579	27820.270833259	1.5	0.1
0.01	1	0.0189131909974094	1	71	NA	214.245418042003	0	0.25	3.91	1	208.961719588002	208.980632778999	"17"	27826.437438579	27820.270833259	1.5	0.1
0.01	1	0.0157682760000171	1	71	NA	214.245418042003	0	0.25	3.91	1	209.212232641003	209.228000917003	"17"	27826.437438579	27820.270833259	1.5	0.1
0.01	1	0.014195176998328	1	71	NA	214.245418042003	0	0.25	3.91	1	209.462734871002	209.476930048	"17"	27826.437438579	27820.270833259	1.5	0.1
0.01	1	0.00383874699764419	1	71	NA	214.245418042003	0	0.25	3.91	1	209.713108618002	209.716947364999	"17"	27826.437438579	27820.270833259	1.5	0.1
0.01	1	0.0245913520011527	1	71	NA	214.245418042003	0	0.25	3.91	1	209.946831556001	209.971422908002	"17"	27826.437438579	27820.270833259	1.5	0.1
0.01	1	0.0159723849974398	1	71	NA	214.245418042003	0	0.25	3.91	1	210.197101361002	210.213073745999	"17"	27826.437438579	27820.270833259	1.5	0.1
0.01	1	0.0194968340001651	1	71	NA	214.245418042003	0	0.25	3.91	1	210.447582338002	210.467079172002	"17"	27826.437438579	27820.270833259	1.5	0.1
0.01	1	0.0426700829993933	1	71	NA	214.245418042003	0	0.25	3.91	1	210.697991863002	210.740661946002	"17"	27826.437438579	27820.270833259	1.5	0.1
0.01	1	0.00355925799885881	1	71	NA	214.245418042003	0	0.25	3.91	1	210.981766831002	210.985326089001	"17"	27826.437438579	27820.270833259	1.5	0.1
0.01	1	0.00421381900014239	1	71	NA	214.245418042003	0	0.25	3.91	1	211.215470399002	211.219684218002	"17"	27826.437438579	27820.270833259	1.5	0.1
0.01	1	0.0186615620004886	1	71	NA	214.245418042003	0	0.25	3.91	1	211.449423808001	211.468085370001	"17"	27826.437438579	27820.270833259	1.5	0.1
0.01	1	0.0321132870012661	1	71	NA	214.245418042003	0	0.25	3.91	1	211.699772781001	211.731886068002	"17"	27826.437438579	27820.270833259	1.5	0.1
0.01	1	0.0137201010002173	1	71	NA	214.245418042003	0	0.25	3.91	1	211.966920856001	211.980640957001	"17"	27826.437438579	27820.270833259	1.5	0.1
0.01	1	0.0195890409995627	1	71	NA	214.245418042003	0	0.25	3.91	1	212.217181788001	212.236770829	"17"	27826.437438579	27820.270833259	1.5	0.1
0.01	1	0.0158287199992628	1	71	NA	214.245418042003	0	0.25	3.91	1	212.467700786001	212.483529506	"17"	27826.437438579	27820.270833259	1.5	0.1
0.01	1	0.0308043089971761	1	71	NA	214.245418042003	0	0.25	3.91	1	212.717990143003	212.748794452	"17"	27826.437438579	27820.270833259	1.5	0.1
0.01	1	0.0115631510016101	1	71	NA	214.245418042003	0	0.25	3.91	1	212.985203223001	212.996766374003	"17"	27826.437438579	27820.270833259	1.5	0.1
0.01	1	0.024332676002814	1	71	NA	214.245418042003	0	0.25	3.91	1	213.218896216	213.243228892003	"17"	27826.437438579	27820.270833259	1.5	0.1
0.01	1	0.0304457589991216	1	71	NA	214.245418042003	0	0.25	3.91	1	213.469416391003	213.499862150002	"17"	27826.437438579	27820.270833259	1.5	0.1
0.01	1	0.00202685000112979	1	71	NA	214.245418042003	0	0.25	3.91	1	213.736500405001	213.738527255002	"17"	27826.437438579	27820.270833259	1.5	0.1
0.01	1	0.273722316000203	2	71	NA	214.245418042003	0	0.25	3.91	1	213.970117743	214.243840059	"17"	27826.437438579	27820.270833259	1.5	0.1
0.01	1	0.577550342000904	1	96	NA	223.436819139002	0	0.25	4.16	1	216.274059443	216.851609785001	"18"	27826.437438579	27820.270833259	1.5	0.1
0.01	1	0.0166142769994622	1	96	NA	223.436819139002	0	0.25	4.16	1	217.092106861001	217.108721138	"18"	27826.437438579	27820.270833259	1.5	0.1
0.01	1	0.00722151399895665	1	96	NA	223.436819139002	0	0.25	4.16	1	217.342608071001	217.349829585	"18"	27826.437438579	27820.270833259	1.5	0.1
0.01	1	0.0365550220012665	1	96	NA	223.436819139002	0	0.25	4.16	1	217.576292600999	217.612847623001	"18"	27826.437438579	27820.270833259	1.5	0.1
0.01	1	0.0253417890016863	1	96	NA	223.436819139002	0	0.25	4.16	1	217.843303897	217.868645686001	"18"	27826.437438579	27820.270833259	1.5	0.1
0.01	1	0.0466599280007358	1	96	NA	223.436819139002	0	0.25	4.16	1	218.093870246001	218.140530174001	"18"	27826.437438579	27820.270833259	1.5	0.1
0.01	1	0.00387932499870658	1	96	NA	223.436819139002	0	0.25	4.16	1	218.377650828003	218.381530153001	"18"	27826.437438579	27820.270833259	1.5	0.1
0.01	1	0.0248078389995499	1	96	NA	223.436819139002	0	0.25	4.16	1	218.611365191002	218.636173030001	"18"	27826.437438579	27820.270833259	1.5	0.1
0.01	1	0.0299795370010543	1	96	NA	223.436819139002	0	0.25	4.16	1	218.861755188002	218.891734725003	"18"	27826.437438579	27820.270833259	1.5	0.1
0.01	1	0.0268516460018873	1	96	NA	223.436819139002	0	0.25	4.16	1	219.128912786	219.155764432002	"18"	27826.437438579	27820.270833259	1.5	0.1
0.01	1	0.0318318870013172	1	96	NA	223.436819139002	0	0.25	4.16	1	219.379267048	219.411098935001	"18"	27826.437438579	27820.270833259	1.5	0.1
0.01	1	0.0135545280027145	1	96	NA	223.436819139002	0	0.25	4.16	1	219.646429441	219.659983969002	"18"	27826.437438579	27820.270833259	1.5	0.1
0.01	1	0.0184038150000561	1	96	NA	223.436819139002	0	0.25	4.16	1	219.896805857999	219.915209672999	"18"	27826.437438579	27820.270833259	1.5	0.1
0.01	1	0.0401237639998726	1	96	NA	223.436819139002	0	0.25	4.16	1	220.147204026001	220.187327790001	"18"	27826.437438579	27820.270833259	1.5	0.1
0.01	1	0.0372383699977945	1	96	NA	223.436819139002	0	0.25	4.16	1	220.414338196002	220.451576566	"18"	27826.437438579	27820.270833259	1.5	0.1
0.01	1	0.0184196360023634	1	96	NA	223.436819139002	0	0.25	4.16	1	220.681554133	220.699973769002	"18"	27826.437438579	27820.270833259	1.5	0.1
0.01	1	0.0318729530008568	1	96	NA	223.436819139002	0	0.25	4.16	1	220.931988108001	220.963861061002	"18"	27826.437438579	27820.270833259	1.5	0.1
0.01	1	0.0120014749991242	1	96	NA	223.436819139002	0	0.25	4.16	1	221.199092266001	221.211093741	"18"	27826.437438579	27820.270833259	1.5	0.1
0.01	1	0.0117430610007432	1	96	NA	223.436819139002	0	0.25	4.16	1	221.449395591	221.461138652001	"18"	27826.437438579	27820.270833259	1.5	0.1
0.01	1	0.0243498970012297	1	96	NA	223.436819139002	0	0.25	4.16	1	221.683104099	221.707453996001	"18"	27826.437438579	27820.270833259	1.5	0.1
0.01	1	0.037339463000535	1	96	NA	223.436819139002	0	0.25	4.16	1	221.933687998	221.971027461001	"18"	27826.437438579	27820.270833259	1.5	0.1
0.01	1	0.02794375799931	1	96	NA	223.436819139002	0	0.25	4.16	1	222.200734848	222.228678605999	"18"	27826.437438579	27820.270833259	1.5	0.1
0.01	1	0.00969658599933609	1	96	NA	223.436819139002	0	0.25	4.16	1	222.451171293	222.460867878999	"18"	27826.437438579	27820.270833259	1.5	0.1
0.01	1	0.0224187170024379	1	96	NA	223.436819139002	0	0.25	4.16	1	222.684942696	222.707361413002	"18"	27826.437438579	27820.270833259	1.5	0.1
0.01	1	0.00727944800019031	1	96	NA	223.436819139002	0	0.25	4.16	1	222.935360801002	222.942640249003	"18"	27826.437438579	27820.270833259	1.5	0.1
0.01	1	0.266185962002055	2	96	NA	223.436819139002	0	0.25	4.16	1	223.169033201	223.435219163002	"18"	27826.437438579	27820.270833259	1.5	0.1
0.01	1	0.41026051299923	1	91	NA	232.357331406001	0	0.25	4.41	1	225.489633331003	225.899893844002	"19"	27826.437438579	27820.270833259	1.5	0.1
0.01	1	0.00996825499896659	1	91	NA	232.357331406001	0	0.25	4.41	1	226.140648376	226.150616630999	"19"	27826.437438579	27820.270833259	1.5	0.1
0.01	1	0.0141864359975443	1	91	NA	232.357331406001	0	0.25	4.41	1	226.374414091002	226.388600527	"19"	27826.437438579	27820.270833259	1.5	0.1
0.01	1	0.0122784209997917	1	91	NA	232.357331406001	0	0.25	4.41	1	226.624828103002	226.637106524002	"19"	27826.437438579	27820.270833259	1.5	0.1
0.01	1	0.0029471800007741	1	91	NA	232.357331406001	0	0.25	4.41	1	226.875264351002	226.878211531002	"19"	27826.437438579	27820.270833259	1.5	0.1
0.01	1	0.00367056200047955	1	91	NA	232.357331406001	0	0.25	4.41	1	227.108917561	227.112588123	"19"	27826.437438579	27820.270833259	1.5	0.1
0.01	1	0.0132946970006742	1	91	NA	232.357331406001	0	0.25	4.41	1	227.342715385999	227.356010083	"19"	27826.437438579	27820.270833259	1.5	0.1
0.01	1	0.00400645099944086	1	91	NA	232.357331406001	0	0.25	4.41	1	227.593198998002	227.597205449001	"19"	27826.437438579	27820.270833259	1.5	0.1
0.01	1	0.0251843620026193	1	91	NA	232.357331406001	0	0.25	4.41	1	227.826872445999	227.852056808002	"19"	27826.437438579	27820.270833259	1.5	0.1
0.01	1	0.0236812319999444	1	91	NA	232.357331406001	0	0.25	4.41	1	228.077202916	228.100884148	"19"	27826.437438579	27820.270833259	1.5	0.1
0.01	1	0.00707053499718313	1	91	NA	232.357331406001	0	0.25	4.41	1	228.327682408002	228.334752942999	"19"	27826.437438579	27820.270833259	1.5	0.1
0.01	1	0.0265255319973221	1	91	NA	232.357331406001	0	0.25	4.41	1	228.561430551003	228.587956083	"19"	27826.437438579	27820.270833259	1.5	0.1
0.01	1	0.0411166739977489	1	91	NA	232.357331406001	0	0.25	4.41	1	228.811836346002	228.852953019999	"19"	27826.437438579	27820.270833259	1.5	0.1
0.01	1	0.0207747050008038	1	91	NA	232.357331406001	0	0.25	4.41	1	229.078994528001	229.099769233002	"19"	27826.437438579	27820.270833259	1.5	0.1
0.01	1	0.0179699360014638	1	91	NA	232.357331406001	0	0.25	4.41	1	229.329423130999	229.347393067001	"19"	27826.437438579	27820.270833259	1.5	0.1
0.01	1	0.0159525580020272	1	91	NA	232.357331406001	0	0.25	4.41	1	229.579819471001	229.595772029003	"19"	27826.437438579	27820.270833259	1.5	0.1
0.01	1	0.0037742580025224	1	91	NA	232.357331406001	0	0.25	4.41	1	229.830240892999	229.834015151002	"19"	27826.437438579	27820.270833259	1.5	0.1
0.01	1	0.0279347050018259	1	91	NA	232.357331406001	0	0.25	4.41	1	230.064017358	230.091952063001	"19"	27826.437438579	27820.270833259	1.5	0.1
0.01	1	0.0255188219998672	1	91	NA	232.357331406001	0	0.25	4.41	1	230.314345276001	230.339864098001	"19"	27826.437438579	27820.270833259	1.5	0.1
0.01	1	0.0393120939988876	1	91	NA	232.357331406001	0	0.25	4.41	1	230.564738708003	230.604050802001	"19"	27826.437438579	27820.270833259	1.5	0.1
0.01	1	0.0364628450006421	1	91	NA	232.357331406001	0	0.25	4.41	1	230.831839795999	230.868302641	"19"	27826.437438579	27820.270833259	1.5	0.1
0.01	1	0.0176115289978043	1	91	NA	232.357331406001	0	0.25	4.41	1	231.099051746001	231.116663274999	"19"	27826.437438579	27820.270833259	1.5	0.1
0.01	1	0.00349987000299734	1	91	NA	232.357331406001	0	0.25	4.41	1	231.349421501	231.352921371003	"19"	27826.437438579	27820.270833259	1.5	0.1
0.01	1	0.00712885500252014	1	91	NA	232.357331406001	0	0.25	4.41	1	231.583197696	231.590326551002	"19"	27826.437438579	27820.270833259	1.5	0.1
0.01	1	0.0122577639995143	1	91	NA	232.357331406001	0	0.25	4.41	1	231.816855641002	231.829113405001	"19"	27826.437438579	27820.270833259	1.5	0.1
0.01	1	0.288414746999479	2	91	NA	232.357331406001	0	0.25	4.41	1	232.067368178003	232.355782925002	"19"	27826.437438579	27820.270833259	1.5	0.1
0.01	1	0.367104443001153	1	5	235.826653816002	NA	1	0	4.41	1	234.404518306001	234.771622749002	"20"	27826.437438579	27820.270833259	1.5	0.1
0.01	1	0.00221460400280193	1	5	235.826653816002	NA	1	0	4.41	1	235.005535357999	235.007749962002	"20"	27826.437438579	27820.270833259	1.5	0.1
0.01	1	0.00223380100214854	1	5	235.826653816002	NA	1	0	4.41	1	235.239260265	235.241494066002	"20"	27826.437438579	27820.270833259	1.5	0.1
0.01	1	0.00471170500168228	1	5	235.826653816002	NA	1	0	4.41	1	235.473012431001	235.477724136003	"20"	27826.437438579	27820.270833259	1.5	0.1
0.01	1	0.00374341499991715	1	5	235.826653816002	NA	1	0	4.41	1	235.706808065999	235.710551480999	"20"	27826.437438579	27820.270833259	1.5	0.1
0.01	1	0.384176829000353	1	123	NA	244.940777801003	0	0.25	4.66	1	237.860403277002	238.244580106002	"21"	27826.437438579	27820.270833259	1.5	0.1
0.01	1	0.00344909600244137	1	123	NA	244.940777801003	0	0.25	4.66	1	238.478109303	238.481558399002	"21"	27826.437438579	27820.270833259	1.5	0.1
0.01	1	0.00341058800040628	1	123	NA	244.940777801003	0	0.25	4.66	1	238.711756049001	238.715166637001	"21"	27826.437438579	27820.270833259	1.5	0.1
0.01	1	0.00387059899730957	1	123	NA	244.940777801003	0	0.25	4.66	1	238.945637986002	238.949508584999	"21"	27826.437438579	27820.270833259	1.5	0.1
0.01	1	0.00375208200057386	1	123	NA	244.940777801003	0	0.25	4.66	1	239.179293560999	239.183045643	"21"	27826.437438579	27820.270833259	1.5	0.1
0.01	1	0.00381542499962961	1	123	NA	244.940777801003	0	0.25	4.66	1	239.412924228	239.416739652999	"21"	27826.437438579	27820.270833259	1.5	0.1
0.01	1	0.0134270660018956	1	123	NA	244.940777801003	0	0.25	4.66	1	239.646725551	239.660152617002	"21"	27826.437438579	27820.270833259	1.5	0.1
0.01	1	0.0195413839974208	1	123	NA	244.940777801003	0	0.25	4.66	1	239.897174976002	239.91671636	"21"	27826.437438579	27820.270833259	1.5	0.1
0.01	1	0.0489238279988058	1	123	NA	244.940777801003	0	0.25	4.66	1	240.147542711002	240.196466539001	"21"	27826.437438579	27820.270833259	1.5	0.1
0.01	1	0.0288953210001637	1	123	NA	244.940777801003	0	0.25	4.66	1	240.431402806	240.460298127	"21"	27826.437438579	27820.270833259	1.5	0.1
0.01	1	0.0113213160002488	1	123	NA	244.940777801003	0	0.25	4.66	1	240.698609561001	240.709930877001	"21"	27826.437438579	27820.270833259	1.5	0.1
0.01	1	0.0392834249978478	1	123	NA	244.940777801003	0	0.25	4.66	1	240.932195501002	240.971478926	"21"	27826.437438579	27820.270833259	1.5	0.1
0.01	1	0.0534165110002505	1	123	NA	244.940777801003	0	0.25	4.66	1	241.199360088001	241.252776599002	"21"	27826.437438579	27820.270833259	1.5	0.1
0.01	1	0.0336148120004509	1	123	NA	244.940777801003	0	0.25	4.66	1	241.483110923	241.516725735	"21"	27826.437438579	27820.270833259	1.5	0.1
0.01	1	0.0384577799995895	1	123	NA	244.940777801003	0	0.25	4.66	1	241.750289226002	241.788747006001	"21"	27826.437438579	27820.270833259	1.5	0.1
0.01	1	0.0342521240017959	1	123	NA	244.940777801003	0	0.25	4.66	1	242.017380791	242.051632915001	"21"	27826.437438579	27820.270833259	1.5	0.1
0.01	1	0.0228631799982395	1	123	NA	244.940777801003	0	0.25	4.66	1	242.284543001002	242.307406181	"21"	27826.437438579	27820.270833259	1.5	0.1
0.01	1	0.0442183129998739	1	123	NA	244.940777801003	0	0.25	4.66	1	242.534997696002	242.579216009002	"21"	27826.437438579	27820.270833259	1.5	0.1
0.01	1	0.0658669359982014	1	123	NA	244.940777801003	0	0.25	4.66	1	242.801974901002	242.867841837	"21"	27826.437438579	27820.270833259	1.5	0.1
0.01	1	0.0453188179999415	1	123	NA	244.940777801003	0	0.25	4.66	1	243.102506153002	243.147824971002	"21"	27826.437438579	27820.270833259	1.5	0.1
0.01	1	0.073418058000243	1	123	NA	244.940777801003	0	0.25	4.66	1	243.386406527999	243.459824586	"21"	27826.437438579	27820.270833259	1.5	0.1
0.01	1	0.0288937560035265	1	123	NA	244.940777801003	0	0.25	4.66	1	243.686924780999	243.715818537003	"21"	27826.437438579	27820.270833259	1.5	0.1
0.01	1	0.0172734970001329	1	123	NA	244.940777801003	0	0.25	4.66	1	243.953947546001	243.971221043001	"21"	27826.437438579	27820.270833259	1.5	0.1
0.01	1	0.0471269720001146	1	123	NA	244.940777801003	0	0.25	4.66	1	244.204414206	244.251541178	"21"	27826.437438579	27820.270833259	1.5	0.1
0.01	1	0.0363672819985368	1	123	NA	244.940777801003	0	0.25	4.66	1	244.488274816002	244.524642098	"21"	27826.437438579	27820.270833259	1.5	0.1
0.01	1	0.183864230999461	2	123	NA	244.940777801003	0	0.25	4.66	1	244.755364167002	244.939228398001	"21"	27826.437438579	27820.270833259	1.5	0.1
0.01	1	0.316087636998418	1	81	NA	253.581658887	0	0.25	4.91	1	246.975649118001	247.291736755	"22"	27826.437438579	27820.270833259	1.5	0.1
0.01	1	0.0138798690022668	1	81	NA	253.581658887	0	0.25	4.91	1	247.526628926	247.540508795002	"22"	27826.437438579	27820.270833259	1.5	0.1
0.01	1	0.0342693339989637	1	81	NA	253.581658887	0	0.25	4.91	1	247.777093975001	247.811363309	"22"	27826.437438579	27820.270833259	1.5	0.1
0.01	1	0.00212043000283302	1	81	NA	253.581658887	0	0.25	4.91	1	248.044189734999	248.046310165002	"22"	27826.437438579	27820.270833259	1.5	0.1
0.01	1	0.00357771199924173	1	81	NA	253.581658887	0	0.25	4.91	1	248.277876701002	248.281454413001	"22"	27826.437438579	27820.270833259	1.5	0.1
0.01	1	0.0081107840014738	1	81	NA	253.581658887	0	0.25	4.91	1	248.511620931	248.519731715001	"22"	27826.437438579	27820.270833259	1.5	0.1
0.01	1	0.00387272000079975	1	81	NA	253.581658887	0	0.25	4.91	1	248.745278671002	248.749151391003	"22"	27826.437438579	27820.270833259	1.5	0.1
0.01	1	0.0174323440005537	1	81	NA	253.581658887	0	0.25	4.91	1	248.979139616	248.99657196	"22"	27826.437438579	27820.270833259	1.5	0.1
0.01	1	0.00368386799891596	1	81	NA	253.581658887	0	0.25	4.91	1	249.229438463	249.233122330999	"22"	27826.437438579	27820.270833259	1.5	0.1
0.01	1	0.0135880410016398	1	81	NA	253.581658887	0	0.25	4.91	1	249.463458406	249.477046447002	"22"	27826.437438579	27820.270833259	1.5	0.1
0.01	1	0.00391235000279266	1	81	NA	253.581658887	0	0.25	4.91	1	249.713651741	249.717564091003	"22"	27826.437438579	27820.270833259	1.5	0.1
0.01	1	0.00369807600145577	1	81	NA	253.581658887	0	0.25	4.91	1	249.947348463	249.951046539001	"22"	27826.437438579	27820.270833259	1.5	0.1
0.01	1	0.0154963439999847	1	81	NA	253.581658887	0	0.25	4.91	1	250.181005311002	250.196501655002	"22"	27826.437438579	27820.270833259	1.5	0.1
0.01	1	0.0137652179982979	1	81	NA	253.581658887	0	0.25	4.91	1	250.431545831001	250.445311048999	"22"	27826.437438579	27820.270833259	1.5	0.1
0.01	1	0.00981908700123313	1	81	NA	253.581658887	0	0.25	4.91	1	250.681972243001	250.691791330002	"22"	27826.437438579	27820.270833259	1.5	0.1
0.01	1	0.0247971300013887	1	81	NA	253.581658887	0	0.25	4.91	1	250.915718811	250.940515941002	"22"	27826.437438579	27820.270833259	1.5	0.1
0.01	1	0.00799160899987328	1	81	NA	253.581658887	0	0.25	4.91	1	251.166117910001	251.174109519001	"22"	27826.437438579	27820.270833259	1.5	0.1
0.01	1	0.019466605001071	1	81	NA	253.581658887	0	0.25	4.91	1	251.399837638	251.419304243002	"22"	27826.437438579	27820.270833259	1.5	0.1
0.01	1	0.0094920160008769	1	81	NA	253.581658887	0	0.25	4.91	1	251.650276298002	251.659768314003	"22"	27826.437438579	27820.270833259	1.5	0.1
0.01	1	0.0154737330012722	1	81	NA	253.581658887	0	0.25	4.91	1	251.883962786	251.899436519001	"22"	27826.437438579	27820.270833259	1.5	0.1
0.01	1	0.0141111169978103	1	81	NA	253.581658887	0	0.25	4.91	1	252.134367391001	252.148478507999	"22"	27826.437438579	27820.270833259	1.5	0.1
0.01	1	0.0118059250016813	1	81	NA	253.581658887	0	0.25	4.91	1	252.384896156	252.396702081001	"22"	27826.437438579	27820.270833259	1.5	0.1
0.01	1	0.00248989600004279	1	81	NA	253.581658887	0	0.25	4.91	1	252.635201141002	252.637691037002	"22"	27826.437438579	27820.270833259	1.5	0.1
0.01	1	0.00261562400191906	1	81	NA	253.581658887	0	0.25	4.91	1	252.868944495	252.871560119002	"22"	27826.437438579	27820.270833259	1.5	0.1
0.01	1	0.00209311000071466	1	81	NA	253.581658887	0	0.25	4.91	1	253.102723118001	253.104816228002	"22"	27826.437438579	27820.270833259	1.5	0.1
0.01	1	0.243569818998367	2	81	NA	253.581658887	0	0.25	4.91	1	253.336526636002	253.580096455	"22"	27826.437438579	27820.270833259	1.5	0.1
0.01	1	0.412790710000991	1	117	NA	262.56602613	0	0.25	5.16	1	255.606872296001	256.019663006002	"23"	27826.437438579	27820.270833259	1.5	0.1
0.01	1	0.00395568200110574	1	117	NA	262.56602613	0	0.25	5.16	1	256.257963993001	256.261919675002	"23"	27826.437438579	27820.270833259	1.5	0.1
0.01	1	0.0234174899997015	1	117	NA	262.56602613	0	0.25	5.16	1	256.491682096002	256.515099586002	"23"	27826.437438579	27820.270833259	1.5	0.1
0.01	1	0.0211218469994492	1	117	NA	262.56602613	0	0.25	5.16	1	256.742133336	256.763255182999	"23"	27826.437438579	27820.270833259	1.5	0.1
0.01	1	0.0120975820027525	1	117	NA	262.56602613	0	0.25	5.16	1	256.992539583	257.004637165002	"23"	27826.437438579	27820.270833259	1.5	0.1
0.01	1	0.0099222649987496	1	117	NA	262.56602613	0	0.25	5.16	1	257.243008458001	257.252930723	"23"	27826.437438579	27820.270833259	1.5	0.1
0.01	1	0.0399957240006188	1	117	NA	262.56602613	0	0.25	5.16	1	257.476733296	257.516729020001	"23"	27826.437438579	27820.270833259	1.5	0.1
0.01	1	0.00796992599862278	1	117	NA	262.56602613	0	0.25	5.16	1	257.743938003001	257.751907929	"23"	27826.437438579	27820.270833259	1.5	0.1
0.01	1	0.0431962820002809	1	117	NA	262.56602613	0	0.25	5.16	1	257.977542563	258.020738845	"23"	27826.437438579	27820.270833259	1.5	0.1
0.01	1	0.0397477869992144	1	117	NA	262.56602613	0	0.25	5.16	1	258.244666003	258.284413789999	"23"	27826.437438579	27820.270833259	1.5	0.1
0.01	1	0.0365031500004989	1	117	NA	262.56602613	0	0.25	5.16	1	258.511788971002	258.548292121002	"23"	27826.437438579	27820.270833259	1.5	0.1
0.01	1	0.00919214699752047	1	117	NA	262.56602613	0	0.25	5.16	1	258.778974608002	258.788166754999	"23"	27826.437438579	27820.270833259	1.5	0.1
0.01	1	0.0559849829987797	1	117	NA	262.56602613	0	0.25	5.16	1	259.012597786001	259.068582768999	"23"	27826.437438579	27820.270833259	1.5	0.1
0.01	1	0.0194088399985048	1	117	NA	262.56602613	0	0.25	5.16	1	259.296499126001	259.315907966	"23"	27826.437438579	27820.270833259	1.5	0.1
0.01	1	0.0176159239999834	1	117	NA	262.56602613	0	0.25	5.16	1	259.546814506	259.56443043	"23"	27826.437438579	27820.270833259	1.5	0.1
0.01	1	0.0228830190026201	1	117	NA	262.56602613	0	0.25	5.16	1	259.797226967999	259.820109987002	"23"	27826.437438579	27820.270833259	1.5	0.1
0.01	1	0.0284520850000263	1	117	NA	262.56602613	0	0.25	5.16	1	260.047741539001	260.076193624001	"23"	27826.437438579	27820.270833259	1.5	0.1
0.01	1	0.0414829309993365	1	117	NA	262.56602613	0	0.25	5.16	1	260.298241351	260.339724281999	"23"	27826.437438579	27820.270833259	1.5	0.1
0.01	1	0.0309593429992674	1	117	NA	262.56602613	0	0.25	5.16	1	260.565204396	260.596163738999	"23"	27826.437438579	27820.270833259	1.5	0.1
0.01	1	0.0187290800022311	1	117	NA	262.56602613	0	0.25	5.16	1	260.832389450999	260.851118531002	"23"	27826.437438579	27820.270833259	1.5	0.1
0.01	1	0.0323718140025449	1	117	NA	262.56602613	0	0.25	5.16	1	261.082708946	261.115080760002	"23"	27826.437438579	27820.270833259	1.5	0.1
0.01	1	0.00687998799912748	1	117	NA	262.56602613	0	0.25	5.16	1	261.350001643001	261.356881631	"23"	27826.437438579	27820.270833259	1.5	0.1
0.01	1	0.00711305700315279	1	117	NA	262.56602613	0	0.25	5.16	1	261.583634436	261.590747493003	"23"	27826.437438579	27820.270833259	1.5	0.1
0.01	1	0.0179549789972953	1	117	NA	262.56602613	0	0.25	5.16	1	261.817384616003	261.835339595	"23"	27826.437438579	27820.270833259	1.5	0.1
0.01	1	0.00206842099942151	1	117	NA	262.56602613	0	0.25	5.16	1	262.06779108	262.069859501	"23"	27826.437438579	27820.270833259	1.5	0.1
0.01	1	0.262910148998344	2	117	NA	262.56602613	0	0.25	5.16	1	262.301497488002	262.564407637001	"23"	27826.437438579	27820.270833259	1.5	0.1
0.01	1	0.405037174001336	1	84	NA	271.382064525002	0	0.25	5.41	1	264.622084021001	265.027121195002	"24"	27826.437438579	27820.270833259	1.5	0.1
0.01	1	0.0192397399987385	1	84	NA	271.382064525002	0	0.25	5.41	1	265.256464851002	265.275704591	"24"	27826.437438579	27820.270833259	1.5	0.1
0.01	1	0.009475933999056	1	84	NA	271.382064525002	0	0.25	5.41	1	265.506885983003	265.516361917002	"24"	27826.437438579	27820.270833259	1.5	0.1
0.01	1	0.00960703500095406	1	84	NA	271.382064525002	0	0.25	5.41	1	265.740552738	265.750159773001	"24"	27826.437438579	27820.270833259	1.5	0.1
0.01	1	0.0216686040002969	1	84	NA	271.382064525002	0	0.25	5.41	1	265.974312961	265.995981565	"24"	27826.437438579	27820.270833259	1.5	0.1
0.01	1	0.0184008860014728	1	84	NA	271.382064525002	0	0.25	5.41	1	266.224776321	266.243177207001	"24"	27826.437438579	27820.270833259	1.5	0.1
0.01	1	0.0170523070009949	1	84	NA	271.382064525002	0	0.25	5.41	1	266.475179228	266.492231535001	"24"	27826.437438579	27820.270833259	1.5	0.1
0.01	1	0.00699334800083307	1	84	NA	271.382064525002	0	0.25	5.41	1	266.725654603	266.732647951001	"24"	27826.437438579	27820.270833259	1.5	0.1
0.01	1	0.01243600500311	1	84	NA	271.382064525002	0	0.25	5.41	1	266.959323352999	266.971759358003	"24"	27826.437438579	27820.270833259	1.5	0.1
