"payoff.level"	"balloon"	"rt"	"resp"	"explode.trial"	"explode.time"	"finish.time"	"exploded"	"trial.total"	"cumulative.total"	"finished"	"trial.start"	"trial.end"	"trial.num"	"secs"	"start.time"	"iti"	"isi"
0.01	1	0.854964548998396	1	64	NA	14.5222673870012	0	0.06	0.06	1	0.00966136500210268	0.864625914000499	"1"	24114.930087029	24108.173873605	1.5	0.1
0.01	1	0.951372134000849	1	64	NA	14.5222673870012	0	0.06	0.06	1	1.5287863529993	2.48015848700015	"1"	24114.930087029	24108.173873605	1.5	0.1
0.01	1	1.35838740500185	1	64	NA	14.5222673870012	0	0.06	0.06	1	2.71409761299947	4.07248501800132	"1"	24114.930087029	24108.173873605	1.5	0.1
0.01	1	1.37236055500034	1	64	NA	14.5222673870012	0	0.06	0.06	1	4.30012187800094	5.67248243300128	"1"	24114.930087029	24108.173873605	1.5	0.1
0.01	1	4.32004925599904	1	64	NA	14.5222673870012	0	0.06	0.06	1	5.90283971300232	10.2228889690014	"1"	24114.930087029	24108.173873605	1.5	0.1
0.01	1	2.45948446699913	1	64	NA	14.5222673870012	0	0.06	0.06	1	10.4605685250026	12.9200529920017	"1"	24114.930087029	24108.173873605	1.5	0.1
0.01	1	1.37216820200047	2	64	NA	14.5222673870012	0	0.06	0.06	1	13.1483346880013	14.5205028900018	"1"	24114.930087029	24108.173873605	1.5	0.1
0.01	1	1.20484219199716	1	68	NA	27.2498834910002	0	0.06	0.12	1	16.5708844880028	17.7757266799999	"2"	24114.930087029	24108.173873605	1.5	0.1
0.01	1	1.07422368500193	1	68	NA	27.2498834910002	0	0.06	0.12	1	18.0066077129995	19.0808313980015	"2"	24114.930087029	24108.173873605	1.5	0.1
0.01	1	1.31535737299782	1	68	NA	27.2498834910002	0	0.06	0.12	1	19.3087507080018	20.6241080809996	"2"	24114.930087029	24108.173873605	1.5	0.1
0.01	1	1.28163141799814	1	68	NA	27.2498834910002	0	0.06	0.12	1	20.8613670330014	22.1429984509996	"2"	24114.930087029	24108.173873605	1.5	0.1
0.01	1	1.31606141999873	1	68	NA	27.2498834910002	0	0.06	0.12	1	22.380560253001	23.6966216729998	"2"	24114.930087029	24108.173873605	1.5	0.1
0.01	1	1.29098831200099	1	68	NA	27.2498834910002	0	0.06	0.12	1	23.9332258899994	25.2242142020004	"2"	24114.930087029	24108.173873605	1.5	0.1
0.01	1	1.7958518230007	2	68	NA	27.2498834910002	0	0.06	0.12	1	25.4523403800013	27.248192203002	"2"	24114.930087029	24108.173873605	1.5	0.1
0.01	1	0.370937511997909	1	33	NA	44.441565137	0	0.1	0.22	1	29.3088735150013	29.6798110269992	"3"	24114.930087029	24108.173873605	1.5	0.1
0.01	1	1.3703389580005	1	33	NA	44.441565137	0	0.1	0.22	1	29.9098447430006	31.2801837010011	"3"	24114.930087029	24108.173873605	1.5	0.1
0.01	1	1.44014386400158	1	33	NA	44.441565137	0	0.1	0.22	1	31.5125341679995	32.9526780320011	"3"	24114.930087029	24108.173873605	1.5	0.1
0.01	1	1.25082913400183	1	33	NA	44.441565137	0	0.1	0.22	1	33.181972118	34.4328012520018	"3"	24114.930087029	24108.173873605	1.5	0.1
0.01	1	1.29282271900229	1	33	NA	44.441565137	0	0.1	0.22	1	34.6678237380002	35.9606464570024	"3"	24114.930087029	24108.173873605	1.5	0.1
0.01	1	1.37225865400251	1	33	NA	44.441565137	0	0.1	0.22	1	36.187133378	37.5593920320025	"3"	24114.930087029	24108.173873605	1.5	0.1
0.01	1	1.52178152600027	1	33	NA	44.441565137	0	0.1	0.22	1	37.7898935030025	39.3116750290028	"3"	24114.930087029	24108.173873605	1.5	0.1
0.01	1	1.26440607499899	1	33	NA	44.441565137	0	0.1	0.22	1	39.542813373002	40.807219448001	"3"	24114.930087029	24108.173873605	1.5	0.1
0.01	1	1.11399151599835	1	33	NA	44.441565137	0	0.1	0.22	1	41.0452926030011	42.1592841189995	"3"	24114.930087029	24108.173873605	1.5	0.1
0.01	1	1.35457684100038	1	33	NA	44.441565137	0	0.1	0.22	1	42.3975598290017	43.7521366700021	"3"	24114.930087029	24108.173873605	1.5	0.1
0.01	1	0.456414918997325	2	33	NA	44.441565137	0	0.1	0.22	1	43.9834920730027	44.439906992	"3"	24114.930087029	24108.173873605	1.5	0.1
0.01	1	0.79285088600227	1	105	NA	66.5384386920014	0	0.15	0.37	1	46.4710934489995	47.2639443350017	"4"	24114.930087029	24108.173873605	1.5	0.1
0.01	1	1.06321828200089	1	105	NA	66.5384386920014	0	0.15	0.37	1	47.4893842700003	48.5526025520012	"4"	24114.930087029	24108.173873605	1.5	0.1
0.01	1	1.00868229400294	1	105	NA	66.5384386920014	0	0.15	0.37	1	48.7916262079998	49.8003085020027	"4"	24114.930087029	24108.173873605	1.5	0.1
0.01	1	0.891948033000517	1	105	NA	66.5384386920014	0	0.15	0.37	1	50.0271444560021	50.9190924890027	"4"	24114.930087029	24108.173873605	1.5	0.1
0.01	1	0.677484168001683	1	105	NA	66.5384386920014	0	0.15	0.37	1	51.1456116900008	51.8230958580025	"4"	24114.930087029	24108.173873605	1.5	0.1
0.01	1	0.89528866999899	1	105	NA	66.5384386920014	0	0.15	0.37	1	52.0637684350004	52.9590571049994	"4"	24114.930087029	24108.173873605	1.5	0.1
0.01	1	0.978079937001894	1	105	NA	66.5384386920014	0	0.15	0.37	1	53.1824121280006	54.1604920650025	"4"	24114.930087029	24108.173873605	1.5	0.1
0.01	1	0.943296985999041	1	105	NA	66.5384386920014	0	0.15	0.37	1	54.3843771030006	55.3276740889996	"4"	24114.930087029	24108.173873605	1.5	0.1
0.01	1	0.927499264998914	1	105	NA	66.5384386920014	0	0.15	0.37	1	55.5529943530018	56.4804936180008	"4"	24114.930087029	24108.173873605	1.5	0.1
0.01	1	0.829738103999262	1	105	NA	66.5384386920014	0	0.15	0.37	1	56.7217064430006	57.5514445469998	"4"	24114.930087029	24108.173873605	1.5	0.1
0.01	1	0.994562397998379	1	105	NA	66.5384386920014	0	0.15	0.37	1	57.7733744150028	58.7679368130011	"4"	24114.930087029	24108.173873605	1.5	0.1
0.01	1	0.976723062998644	1	105	NA	66.5384386920014	0	0.15	0.37	1	58.9921087200019	59.9688317830005	"4"	24114.930087029	24108.173873605	1.5	0.1
0.01	1	0.90230148000046	1	105	NA	66.5384386920014	0	0.15	0.37	1	60.1942109880001	61.0965124680006	"4"	24114.930087029	24108.173873605	1.5	0.1
0.01	1	1.10974616100066	1	105	NA	66.5384386920014	0	0.15	0.37	1	61.3294346930015	62.4391808540022	"4"	24114.930087029	24108.173873605	1.5	0.1
0.01	1	1.48794152700066	1	105	NA	66.5384386920014	0	0.15	0.37	1	62.6648990050016	64.1528405320023	"4"	24114.930087029	24108.173873605	1.5	0.1
0.01	1	2.15227276800215	2	105	NA	66.5384386920014	0	0.15	0.37	1	64.3844907929997	66.5367635610019	"4"	24114.930087029	24108.173873605	1.5	0.1
0.01	1	0.61585479200221	1	73	NA	92.5800226880019	0	0.14	0.51	1	68.5917681829997	69.2076229750019	"5"	24114.930087029	24108.173873605	1.5	0.1
0.01	1	1.30885313800172	1	73	NA	92.5800226880019	0	0.14	0.51	1	69.4431267430009	70.7519798810026	"5"	24114.930087029	24108.173873605	1.5	0.1
0.01	1	1.30848091200096	1	73	NA	92.5800226880019	0	0.14	0.51	1	70.978914673	72.2873955850009	"5"	24114.930087029	24108.173873605	1.5	0.1
0.01	1	0.869562204003159	1	73	NA	92.5800226880019	0	0.14	0.51	1	72.5148581979993	73.3844204020024	"5"	24114.930087029	24108.173873605	1.5	0.1
0.01	1	0.97601129800023	1	73	NA	92.5800226880019	0	0.14	0.51	1	73.6167161680023	74.5927274660025	"5"	24114.930087029	24108.173873605	1.5	0.1
0.01	1	0.89399436900203	1	73	NA	92.5800226880019	0	0.14	0.51	1	74.8187845030006	75.7127788720027	"5"	24114.930087029	24108.173873605	1.5	0.1
0.01	1	0.982632663999539	1	73	NA	92.5800226880019	0	0.14	0.51	1	75.9372769729998	76.9199096369994	"5"	24114.930087029	24108.173873605	1.5	0.1
0.01	1	0.908590417999221	1	73	NA	92.5800226880019	0	0.14	0.51	1	77.1560208250012	78.0646112430004	"5"	24114.930087029	24108.173873605	1.5	0.1
0.01	1	0.933604936999473	1	73	NA	92.5800226880019	0	0.14	0.51	1	78.2913170080028	79.2249219450023	"5"	24114.930087029	24108.173873605	1.5	0.1
0.01	1	0.972712418999436	1	73	NA	92.5800226880019	0	0.14	0.51	1	79.460090503002	80.4328029220014	"5"	24114.930087029	24108.173873605	1.5	0.1
0.01	1	0.929089081997517	1	73	NA	92.5800226880019	0	0.14	0.51	1	80.6619242930028	81.5910133750003	"5"	24114.930087029	24108.173873605	1.5	0.1
0.01	1	1.76897591799934	1	73	NA	92.5800226880019	0	0.14	0.51	1	81.8305716600007	83.5995475780001	"5"	24114.930087029	24108.173873605	1.5	0.1
0.01	1	1.76607919200251	1	73	NA	92.5800226880019	0	0.14	0.51	1	83.8340078229994	85.6000870150019	"5"	24114.930087029	24108.173873605	1.5	0.1
0.01	1	3.90993266499936	1	73	NA	92.5800226880019	0	0.14	0.51	1	85.8372872790023	89.7472199440017	"5"	24114.930087029	24108.173873605	1.5	0.1
0.01	1	2.60060981300194	2	73	NA	92.5800226880019	0	0.14	0.51	1	89.9777340180008	92.5783438310027	"5"	24114.930087029	24108.173873605	1.5	0.1
0.01	1	0.606202465001843	1	45	NA	121.628967221	0	0.27	0.78	1	94.6355714460005	95.2417739110024	"6"	24114.930087029	24108.173873605	1.5	0.1
0.01	1	0.299993336997431	1	45	NA	121.628967221	0	0.27	0.78	1	95.4702482980028	95.7702416350003	"6"	24114.930087029	24108.173873605	1.5	0.1
0.01	1	0.174142378997203	1	45	NA	121.628967221	0	0.27	0.78	1	96.0044569580023	96.1785993369995	"6"	24114.930087029	24108.173873605	1.5	0.1
0.01	1	0.590419008000026	1	45	NA	121.628967221	0	0.27	0.78	1	96.4051703430014	96.9955893510014	"6"	24114.930087029	24108.173873605	1.5	0.1
0.01	1	0.578585760998976	1	45	NA	121.628967221	0	0.27	0.78	1	97.2232799910016	97.8018657520006	"6"	24114.930087029	24108.173873605	1.5	0.1
0.01	1	0.481884022003214	1	45	NA	121.628967221	0	0.27	0.78	1	98.0244882629995	98.5063722850027	"6"	24114.930087029	24108.173873605	1.5	0.1
0.01	1	0.476411394000024	1	45	NA	121.628967221	0	0.27	0.78	1	98.7424208180018	99.2188322120019	"6"	24114.930087029	24108.173873605	1.5	0.1
0.01	1	0.414077045999875	1	45	NA	121.628967221	0	0.27	0.78	1	99.460204498002	99.8742815440019	"6"	24114.930087029	24108.173873605	1.5	0.1
0.01	1	0.459502556001098	1	45	NA	121.628967221	0	0.27	0.78	1	100.111328423001	100.570830979002	"6"	24114.930087029	24108.173873605	1.5	0.1
0.01	1	0.535541183999158	1	45	NA	121.628967221	0	0.27	0.78	1	100.79581295	101.331354133999	"6"	24114.930087029	24108.173873605	1.5	0.1
0.01	1	0.591774675001943	1	45	NA	121.628967221	0	0.27	0.78	1	101.563757345	102.155532020002	"6"	24114.930087029	24108.173873605	1.5	0.1
0.01	1	0.772235968001041	1	45	NA	121.628967221	0	0.27	0.78	1	102.381954259999	103.154190228001	"6"	24114.930087029	24108.173873605	1.5	0.1
0.01	1	0.618947981998645	1	45	NA	121.628967221	0	0.27	0.78	1	103.383589470002	104.002537452001	"6"	24114.930087029	24108.173873605	1.5	0.1
0.01	1	0.583515867998358	1	45	NA	121.628967221	0	0.27	0.78	1	104.234985800002	104.818501668	"6"	24114.930087029	24108.173873605	1.5	0.1
0.01	1	0.550635876999877	1	45	NA	121.628967221	0	0.27	0.78	1	105.053072483002	105.603708360002	"6"	24114.930087029	24108.173873605	1.5	0.1
0.01	1	0.613410278998344	1	45	NA	121.628967221	0	0.27	0.78	1	105.837652368002	106.451062647	"6"	24114.930087029	24108.173873605	1.5	0.1
0.01	1	0.600986613000714	1	45	NA	121.628967221	0	0.27	0.78	1	106.689049065	107.290035678001	"6"	24114.930087029	24108.173873605	1.5	0.1
0.01	1	0.599151996000728	1	45	NA	121.628967221	0	0.27	0.78	1	107.523787713002	108.122939709003	"6"	24114.930087029	24108.173873605	1.5	0.1
0.01	1	0.651670973998989	1	45	NA	121.628967221	0	0.27	0.78	1	108.358710463002	109.010381437001	"6"	24114.930087029	24108.173873605	1.5	0.1
0.01	1	0.622889537000447	1	45	NA	121.628967221	0	0.27	0.78	1	109.243471665002	109.866361202003	"6"	24114.930087029	24108.173873605	1.5	0.1
0.01	1	0.691218728999957	1	45	NA	121.628967221	0	0.27	0.78	1	110.094936628	110.786155357	"6"	24114.930087029	24108.173873605	1.5	0.1
0.01	1	0.74948479899831	1	45	NA	121.628967221	0	0.27	0.78	1	111.013013938002	111.762498737	"6"	24114.930087029	24108.173873605	1.5	0.1
0.01	1	0.91585549699812	1	45	NA	121.628967221	0	0.27	0.78	1	111.998155863002	112.914011360001	"6"	24114.930087029	24108.173873605	1.5	0.1
0.01	1	3.26153430499835	1	45	NA	121.628967221	0	0.27	0.78	1	113.149882703001	116.411417007999	"6"	24114.930087029	24108.173873605	1.5	0.1
0.01	1	2.1953135549993	1	45	NA	121.628967221	0	0.27	0.78	1	116.639132505003	118.834446060002	"6"	24114.930087029	24108.173873605	1.5	0.1
0.01	1	0.678170708000835	1	45	NA	121.628967221	0	0.27	0.78	1	119.059932998	119.738103706	"6"	24114.930087029	24108.173873605	1.5	0.1
0.01	1	0.761287051002	1	45	NA	121.628967221	0	0.27	0.78	1	119.97807134	120.739358391002	"6"	24114.930087029	24108.173873605	1.5	0.1
0.01	1	0.664107442000386	2	45	NA	121.628967221	0	0.27	0.78	1	120.963139120002	121.627246562002	"6"	24114.930087029	24108.173873605	1.5	0.1
0.01	1	0.701636805999442	1	10	129.798706887999	NA	1	0	0.78	1	123.684365075002	124.386001881001	"7"	24114.930087029	24108.173873605	1.5	0.1
0.01	1	0.222883852999075	1	10	129.798706887999	NA	1	0	0.78	1	124.619295398003	124.842179251002	"7"	24114.930087029	24108.173873605	1.5	0.1
0.01	1	0.581296581000061	1	10	129.798706887999	NA	1	0	0.78	1	125.070026028003	125.651322609003	"7"	24114.930087029	24108.173873605	1.5	0.1
0.01	1	0.370348186999763	1	10	129.798706887999	NA	1	0	0.78	1	125.888079880002	126.258428067002	"7"	24114.930087029	24108.173873605	1.5	0.1
0.01	1	0.497764872001426	1	10	129.798706887999	NA	1	0	0.78	1	126.489093813001	126.986858685003	"7"	24114.930087029	24108.173873605	1.5	0.1
0.01	1	0.19471996500215	1	10	129.798706887999	NA	1	0	0.78	1	127.22364805	127.418368015002	"7"	24114.930087029	24108.173873605	1.5	0.1
0.01	1	0.473819258997537	1	10	129.798706887999	NA	1	0	0.78	1	127.657728262002	128.131547520999	"7"	24114.930087029	24108.173873605	1.5	0.1
0.01	1	0.155305939002574	1	10	129.798706887999	NA	1	0	0.78	1	128.358939682999	128.514245622002	"7"	24114.930087029	24108.173873605	1.5	0.1
0.01	1	0.571781555998314	1	10	129.798706887999	NA	1	0	0.78	1	128.742841112002	129.314622668	"7"	24114.930087029	24108.173873605	1.5	0.1
0.01	1	0.130788154998299	1	10	129.798706887999	NA	1	0	0.78	1	129.544250513001	129.675038668	"7"	24114.930087029	24108.173873605	1.5	0.1
0.01	1	1.21954773000107	1	37	NA	144.908685356	0	0.1	0.88	1	131.848102518001	133.067650248002	"8"	24114.930087029	24108.173873605	1.5	0.1
0.01	1	0.334728754001844	1	37	NA	144.908685356	0	0.1	0.88	1	133.300579968	133.635308722001	"8"	24114.930087029	24108.173873605	1.5	0.1
0.01	1	0.567569515998912	1	37	NA	144.908685356	0	0.1	0.88	1	133.868135725003	134.435705241001	"8"	24114.930087029	24108.173873605	1.5	0.1
0.01	1	0.533937071002583	1	37	NA	144.908685356	0	0.1	0.88	1	134.669446238	135.203383309003	"8"	24114.930087029	24108.173873605	1.5	0.1
0.01	1	0.692373599002167	1	37	NA	144.908685356	0	0.1	0.88	1	135.437610458001	136.129984057003	"8"	24114.930087029	24108.173873605	1.5	0.1
0.01	1	0.863981239999703	1	37	NA	144.908685356	0	0.1	0.88	1	136.355754520002	137.219735760002	"8"	24114.930087029	24108.173873605	1.5	0.1
0.01	1	0.744775158000266	1	37	NA	144.908685356	0	0.1	0.88	1	137.457498573	138.202273731	"8"	24114.930087029	24108.173873605	1.5	0.1
0.01	1	1.50529551100044	1	37	NA	144.908685356	0	0.1	0.88	1	138.425852903001	139.931148414002	"8"	24114.930087029	24108.173873605	1.5	0.1
0.01	1	0.84792180599834	1	37	NA	144.908685356	0	0.1	0.88	1	140.162084865002	141.010006671	"8"	24114.930087029	24108.173873605	1.5	0.1
0.01	1	2.30716682799903	1	37	NA	144.908685356	0	0.1	0.88	1	141.247226245003	143.554393073002	"8"	24114.930087029	24108.173873605	1.5	0.1
0.01	1	1.12220926100053	2	37	NA	144.908685356	0	0.1	0.88	1	143.784916542001	144.907125803002	"8"	24114.930087029	24108.173873605	1.5	0.1
0.01	1	0.862326692000352	1	108	NA	192.219716183001	0	0.35	1.23	1	146.956861848001	147.819188540001	"9"	24114.930087029	24108.173873605	1.5	0.1
0.01	1	1.14326250900194	1	108	NA	192.219716183001	0	0.35	1.23	1	148.058637325001	149.201899834003	"9"	24114.930087029	24108.173873605	1.5	0.1
0.01	1	0.59156111899938	1	108	NA	192.219716183001	0	0.35	1.23	1	149.427605540001	150.019166659	"9"	24114.930087029	24108.173873605	1.5	0.1
0.01	1	0.684176173002925	1	108	NA	192.219716183001	0	0.35	1.23	1	150.245672743	150.929848916003	"9"	24114.930087029	24108.173873605	1.5	0.1
0.01	1	0.495481199999631	1	108	NA	192.219716183001	0	0.35	1.23	1	151.163905563	151.659386763	"9"	24114.930087029	24108.173873605	1.5	0.1
0.01	1	0.592995285001962	1	108	NA	192.219716183001	0	0.35	1.23	1	151.881875518	152.474870803002	"9"	24114.930087029	24108.173873605	1.5	0.1
0.01	1	0.590322858999571	1	108	NA	192.219716183001	0	0.35	1.23	1	152.699932755	153.290255614	"9"	24114.930087029	24108.173873605	1.5	0.1
0.01	1	0.732611873998394	1	108	NA	192.219716183001	0	0.35	1.23	1	153.517990038003	154.250601912001	"9"	24114.930087029	24108.173873605	1.5	0.1
0.01	1	0.66111857299984	1	108	NA	192.219716183001	0	0.35	1.23	1	154.486167758001	155.147286331001	"9"	24114.930087029	24108.173873605	1.5	0.1
0.01	1	0.832683798002108	1	108	NA	192.219716183001	0	0.35	1.23	1	155.371006142999	156.203689941001	"9"	24114.930087029	24108.173873605	1.5	0.1
0.01	1	1.30831513700105	1	108	NA	192.219716183001	0	0.35	1.23	1	156.439449653	157.747764790001	"9"	24114.930087029	24108.173873605	1.5	0.1
0.01	1	1.08242900799814	1	108	NA	192.219716183001	0	0.35	1.23	1	157.975402080003	159.057831088001	"9"	24114.930087029	24108.173873605	1.5	0.1
0.01	1	1.21950701599781	1	108	NA	192.219716183001	0	0.35	1.23	1	159.294328678003	160.513835694001	"9"	24114.930087029	24108.173873605	1.5	0.1
0.01	1	1.15209579300063	1	108	NA	192.219716183001	0	0.35	1.23	1	160.746640178	161.898735971001	"9"	24114.930087029	24108.173873605	1.5	0.1
0.01	1	1.37379233500178	1	108	NA	192.219716183001	0	0.35	1.23	1	162.132368967999	163.506161303001	"9"	24114.930087029	24108.173873605	1.5	0.1
0.01	1	1.10757330100023	1	108	NA	192.219716183001	0	0.35	1.23	1	163.735081193001	164.842654494001	"9"	24114.930087029	24108.173873605	1.5	0.1
0.01	1	1.21223418099908	1	108	NA	192.219716183001	0	0.35	1.23	1	165.070753328	166.282987508999	"9"	24114.930087029	24108.173873605	1.5	0.1
0.01	1	1.04794209299871	1	108	NA	192.219716183001	0	0.35	1.23	1	166.523096288001	167.571038381	"9"	24114.930087029	24108.173873605	1.5	0.1
0.01	1	1.34694271600165	1	108	NA	192.219716183001	0	0.35	1.23	1	167.808614555001	169.155557271002	"9"	24114.930087029	24108.173873605	1.5	0.1
0.01	1	1.15956032800023	1	108	NA	192.219716183001	0	0.35	1.23	1	169.394687573	170.554247901	"9"	24114.930087029	24108.173873605	1.5	0.1
0.01	1	1.52573271000074	1	108	NA	192.219716183001	0	0.35	1.23	1	170.780327832999	172.306060543	"9"	24114.930087029	24108.173873605	1.5	0.1
0.01	1	1.17315552299988	1	108	NA	192.219716183001	0	0.35	1.23	1	172.533218123001	173.706373646	"9"	24114.930087029	24108.173873605	1.5	0.1
0.01	1	1.07581379399926	1	108	NA	192.219716183001	0	0.35	1.23	1	173.935520645002	175.011334439001	"9"	24114.930087029	24108.173873605	1.5	0.1
0.01	1	1.08509527299975	1	108	NA	192.219716183001	0	0.35	1.23	1	175.237950008002	176.323045281002	"9"	24114.930087029	24108.173873605	1.5	0.1
0.01	1	1.07771816599779	1	108	NA	192.219716183001	0	0.35	1.23	1	176.556609685002	177.634327850999	"9"	24114.930087029	24108.173873605	1.5	0.1
0.01	1	1.21510064999893	1	108	NA	192.219716183001	0	0.35	1.23	1	177.85883995	179.073940599999	"9"	24114.930087029	24108.173873605	1.5	0.1
0.01	1	0.979083737998735	1	108	NA	192.219716183001	0	0.35	1.23	1	179.311248590002	180.290332328001	"9"	24114.930087029	24108.173873605	1.5	0.1
0.01	1	1.01736806500048	1	108	NA	192.219716183001	0	0.35	1.23	1	180.530089060001	181.547457125002	"9"	24114.930087029	24108.173873605	1.5	0.1
0.01	1	1.14141834399925	1	108	NA	192.219716183001	0	0.35	1.23	1	181.782127405	182.923545748999	"9"	24114.930087029	24108.173873605	1.5	0.1
0.01	1	1.12318082500133	1	108	NA	192.219716183001	0	0.35	1.23	1	183.151155744999	184.274336570001	"9"	24114.930087029	24108.173873605	1.5	0.1
0.01	1	1.10703673399985	1	108	NA	192.219716183001	0	0.35	1.23	1	184.503478038001	185.610514772001	"9"	24114.930087029	24108.173873605	1.5	0.1
0.01	1	1.23639207100132	1	108	NA	192.219716183001	0	0.35	1.23	1	185.838918760001	187.075310831002	"9"	24114.930087029	24108.173873605	1.5	0.1
0.01	1	0.959217037998314	1	108	NA	192.219716183001	0	0.35	1.23	1	187.308095585002	188.267312623	"9"	24114.930087029	24108.173873605	1.5	0.1
0.01	1	1.16588055199827	1	108	NA	192.219716183001	0	0.35	1.23	1	188.493571490002	189.659452042	"9"	24114.930087029	24108.173873605	1.5	0.1
0.01	1	1.14010932799647	1	108	NA	192.219716183001	0	0.35	1.23	1	189.895799453003	191.035908780999	"9"	24114.930087029	24108.173873605	1.5	0.1
0.01	1	0.953293597998709	2	108	NA	192.219716183001	0	0.35	1.23	1	191.264851103002	192.218144701001	"9"	24114.930087029	24108.173873605	1.5	0.1
0.01	1	0.524848029999703	1	18	214.389240658002	NA	1	0	1.23	1	194.26981252	194.79466055	"10"	24114.930087029	24108.173873605	1.5	0.1
0.01	1	1.06940484900042	1	18	214.389240658002	NA	1	0	1.23	1	195.021077608002	196.090482457003	"10"	24114.930087029	24108.173873605	1.5	0.1
0.01	1	1.14379878299951	1	18	214.389240658002	NA	1	0	1.23	1	196.323266773001	197.467065556	"10"	24114.930087029	24108.173873605	1.5	0.1
0.01	1	1.22309818099893	1	18	214.389240658002	NA	1	0	1.23	1	197.692308830003	198.915407011002	"10"	24114.930087029	24108.173873605	1.5	0.1
0.01	1	1.20927857999777	1	18	214.389240658002	NA	1	0	1.23	1	199.144714125003	200.353992705001	"10"	24114.930087029	24108.173873605	1.5	0.1
0.01	1	0.853415279998444	1	18	214.389240658002	NA	1	0	1.23	1	200.580398358001	201.433813637999	"10"	24114.930087029	24108.173873605	1.5	0.1
0.01	1	0.945576336001977	1	18	214.389240658002	NA	1	0	1.23	1	201.665564532999	202.611140869001	"10"	24114.930087029	24108.173873605	1.5	0.1
0.01	1	0.8482073640007	1	18	214.389240658002	NA	1	0	1.23	1	202.850971637999	203.699179002	"10"	24114.930087029	24108.173873605	1.5	0.1
0.01	1	0.659503386999859	1	18	214.389240658002	NA	1	0	1.23	1	203.936133825002	204.595637212002	"10"	24114.930087029	24108.173873605	1.5	0.1
0.01	1	0.766924830000789	1	18	214.389240658002	NA	1	0	1.23	1	204.820998993	205.587923823001	"10"	24114.930087029	24108.173873605	1.5	0.1
0.01	1	1.29985338999904	1	18	214.389240658002	NA	1	0	1.23	1	205.822623665001	207.122477055	"10"	24114.930087029	24108.173873605	1.5	0.1
0.01	1	0.67697679900084	1	18	214.389240658002	NA	1	0	1.23	1	207.358567223	208.035544022001	"10"	24114.930087029	24108.173873605	1.5	0.1
0.01	1	0.574705519000418	1	18	214.389240658002	NA	1	0	1.23	1	208.260076273	208.834781792	"10"	24114.930087029	24108.173873605	1.5	0.1
0.01	1	0.861007557999983	1	18	214.389240658002	NA	1	0	1.23	1	209.06140056	209.922408118	"10"	24114.930087029	24108.173873605	1.5	0.1
0.01	1	0.623168386999168	1	18	214.389240658002	NA	1	0	1.23	1	210.163172158002	210.786340545001	"10"	24114.930087029	24108.173873605	1.5	0.1
0.01	1	1.15596549399925	1	18	214.389240658002	NA	1	0	1.23	1	211.014585278001	212.170550772	"10"	24114.930087029	24108.173873605	1.5	0.1
0.01	1	0.850273250998725	1	18	214.389240658002	NA	1	0	1.23	1	212.400215478003	213.250488729002	"10"	24114.930087029	24108.173873605	1.5	0.1
0.01	1	0.79726446299901	1	18	214.389240658002	NA	1	0	1.23	1	213.485453785001	214.282718248	"10"	24114.930087029	24108.173873605	1.5	0.1
0.01	1	0.31503789099952	1	2	218.596997403001	NA	1	0	1.23	1	216.423787388001	216.738825279001	"11"	24114.930087029	24108.173873605	1.5	0.1
0.01	1	1.51563718000034	1	2	218.596997403001	NA	1	0	1.23	1	216.974792608002	218.490429788002	"11"	24114.930087029	24108.173873605	1.5	0.1
0.01	1	0.3149343269979	1	107	NA	253.700900419	0	0.29	1.52	1	220.647502898002	220.962437225	"12"	24114.930087029	24108.173873605	1.5	0.1
0.01	1	0.355739299000561	1	107	NA	253.700900419	0	0.29	1.52	1	221.198441228	221.554180527	"12"	24114.930087029	24108.173873605	1.5	0.1
0.01	1	0.403901731999213	1	107	NA	253.700900419	0	0.29	1.52	1	221.782832388002	222.186734120001	"12"	24114.930087029	24108.173873605	1.5	0.1
0.01	1	0.593656741999439	1	107	NA	253.700900419	0	0.29	1.52	1	222.417208678002	223.010865420001	"12"	24114.930087029	24108.173873605	1.5	0.1
0.01	1	0.74397409499943	1	107	NA	253.700900419	0	0.29	1.52	1	223.235237968001	223.979212063001	"12"	24114.930087029	24108.173873605	1.5	0.1
0.01	1	0.70302380800058	1	107	NA	253.700900419	0	0.29	1.52	1	224.220349302999	224.923373111	"12"	24114.930087029	24108.173873605	1.5	0.1
0.01	1	1.24002486500103	1	107	NA	253.700900419	0	0.29	1.52	1	225.155054938001	226.395079803002	"12"	24114.930087029	24108.173873605	1.5	0.1
0.01	1	0.810613569999987	1	107	NA	253.700900419	0	0.29	1.52	1	226.624267568001	227.434881138	"12"	24114.930087029	24108.173873605	1.5	0.1
0.01	1	0.95067461799772	1	107	NA	253.700900419	0	0.29	1.52	1	227.659350403002	228.610025021	"12"	24114.930087029	24108.173873605	1.5	0.1
0.01	1	0.885155782998481	1	107	NA	253.700900419	0	0.29	1.52	1	228.844715095001	229.729870878	"12"	24114.930087029	24108.173873605	1.5	0.1
0.01	1	1.44651956300004	1	107	NA	253.700900419	0	0.29	1.52	1	229.963217608001	231.409737171001	"12"	24114.930087029	24108.173873605	1.5	0.1
0.01	1	0.865871890000562	1	107	NA	253.700900419	0	0.29	1.52	1	231.632741513	232.498613403	"12"	24114.930087029	24108.173873605	1.5	0.1
0.01	1	0.811680689002969	1	107	NA	253.700900419	0	0.29	1.52	1	232.734536163	233.546216852003	"12"	24114.930087029	24108.173873605	1.5	0.1
0.01	1	0.952632086002268	1	107	NA	253.700900419	0	0.29	1.52	1	233.769780107999	234.722412194002	"12"	24114.930087029	24108.173873605	1.5	0.1
0.01	1	1.18327449199933	1	107	NA	253.700900419	0	0.29	1.52	1	234.954931778	236.13820627	"12"	24114.930087029	24108.173873605	1.5	0.1
0.01	1	0.987877798001136	1	107	NA	253.700900419	0	0.29	1.52	1	236.37408062	237.361958418001	"12"	24114.930087029	24108.173873605	1.5	0.1
0.01	1	0.881980479000049	1	107	NA	253.700900419	0	0.29	1.52	1	237.592829093002	238.474809572002	"12"	24114.930087029	24108.173873605	1.5	0.1
0.01	1	1.02872421600114	1	107	NA	253.700900419	0	0.29	1.52	1	238.711226993	239.739951209001	"12"	24114.930087029	24108.173873605	1.5	0.1
0.01	1	1.04766155299876	1	107	NA	253.700900419	0	0.29	1.52	1	239.980167188001	241.027828741	"12"	24114.930087029	24108.173873605	1.5	0.1
0.01	1	1.11408732799828	1	107	NA	253.700900419	0	0.29	1.52	1	241.265611893003	242.379699221001	"12"	24114.930087029	24108.173873605	1.5	0.1
0.01	1	1.05713515300158	1	107	NA	253.700900419	0	0.29	1.52	1	242.601238378	243.658373531001	"12"	24114.930087029	24108.173873605	1.5	0.1
0.01	1	0.987776459001907	1	107	NA	253.700900419	0	0.29	1.52	1	243.886763093	244.874539552002	"12"	24114.930087029	24108.173873605	1.5	0.1
0.01	1	0.842430986998806	1	107	NA	253.700900419	0	0.29	1.52	1	245.105356878001	245.947787865	"12"	24114.930087029	24108.173873605	1.5	0.1
0.01	1	0.877115171002515	1	107	NA	253.700900419	0	0.29	1.52	1	246.173881683	247.050996854003	"12"	24114.930087029	24108.173873605	1.5	0.1
0.01	1	0.702830891001213	1	107	NA	253.700900419	0	0.29	1.52	1	247.275736943	247.978567834001	"12"	24114.930087029	24108.173873605	1.5	0.1
0.01	1	0.952855003000877	1	107	NA	253.700900419	0	0.29	1.52	1	248.210589718001	249.163444721002	"12"	24114.930087029	24108.173873605	1.5	0.1
0.01	1	0.919199063002452	1	107	NA	253.700900419	0	0.29	1.52	1	249.3959889	250.315187963002	"12"	24114.930087029	24108.173873605	1.5	0.1
0.01	1	0.981907684999896	1	107	NA	253.700900419	0	0.29	1.52	1	250.547909618002	251.529817303002	"12"	24114.930087029	24108.173873605	1.5	0.1
0.01	1	0.844425322000461	1	107	NA	253.700900419	0	0.29	1.52	1	251.766677277999	252.6111026	"12"	24114.930087029	24108.173873605	1.5	0.1
0.01	1	0.864245529999607	2	107	NA	253.700900419	0	0.29	1.52	1	252.835092693	253.699338222999	"12"	24114.930087029	24108.173873605	1.5	0.1
0.01	1	1.34966176200032	1	119	NA	274.549114522	0	0.22	1.74	1	255.756597518	257.106259280001	"13"	24114.930087029	24108.173873605	1.5	0.1
0.01	1	0.436651929998334	1	119	NA	274.549114522	0	0.22	1.74	1	257.342723158003	257.779375088001	"13"	24114.930087029	24108.173873605	1.5	0.1
0.01	1	0.616547656998591	1	119	NA	274.549114522	0	0.22	1.74	1	258.010495548002	258.627043205001	"13"	24114.930087029	24108.173873605	1.5	0.1
0.01	1	0.245249732000957	1	119	NA	274.549114522	0	0.22	1.74	1	258.861923648001	259.107173380002	"13"	24114.930087029	24108.173873605	1.5	0.1
0.01	1	0.1605598549977	1	119	NA	274.549114522	0	0.22	1.74	1	259.329341863002	259.489901718	"13"	24114.930087029	24108.173873605	1.5	0.1
0.01	1	0.410228395001468	1	119	NA	274.549114522	0	0.22	1.74	1	259.713237740001	260.123466135003	"13"	24114.930087029	24108.173873605	1.5	0.1
0.01	1	0.519261386998551	1	119	NA	274.549114522	0	0.22	1.74	1	260.364382732001	260.883644119	"13"	24114.930087029	24108.173873605	1.5	0.1
0.01	1	0.478315571999701	1	119	NA	274.549114522	0	0.22	1.74	1	261.115690913	261.594006485	"13"	24114.930087029	24108.173873605	1.5	0.1
0.01	1	0.426254022000649	1	119	NA	274.549114522	0	0.22	1.74	1	261.81680696	262.243060982	"13"	24114.930087029	24108.173873605	1.5	0.1
0.01	1	0.39151755200146	1	119	NA	274.549114522	0	0.22	1.74	1	262.467932408999	262.859449961001	"13"	24114.930087029	24108.173873605	1.5	0.1
0.01	1	0.557419138000114	1	119	NA	274.549114522	0	0.22	1.74	1	263.085608343001	263.643027481001	"13"	24114.930087029	24108.173873605	1.5	0.1
0.01	1	0.684866414998396	1	119	NA	274.549114522	0	0.22	1.74	1	263.870349028002	264.555215443001	"13"	24114.930087029	24108.173873605	1.5	0.1
0.01	1	0.622118619001412	1	119	NA	274.549114522	0	0.22	1.74	1	264.788497969999	265.410616589001	"13"	24114.930087029	24108.173873605	1.5	0.1
0.01	1	0.602535669997451	1	119	NA	274.549114522	0	0.22	1.74	1	265.639928880002	266.24246455	"13"	24114.930087029	24108.173873605	1.5	0.1
0.01	1	0.449254291997931	1	119	NA	274.549114522	0	0.22	1.74	1	266.474669833002	266.923924125	"13"	24114.930087029	24108.173873605	1.5	0.1
0.01	1	0.643223139999463	1	119	NA	274.549114522	0	0.22	1.74	1	267.159120283002	267.802343423002	"13"	24114.930087029	24108.173873605	1.5	0.1
0.01	1	0.871960471999046	1	119	NA	274.549114522	0	0.22	1.74	1	268.027308593002	268.899269065001	"13"	24114.930087029	24108.173873605	1.5	0.1
0.01	1	0.722523653999815	1	119	NA	274.549114522	0	0.22	1.74	1	269.129182140001	269.851705794001	"13"	24114.930087029	24108.173873605	1.5	0.1
0.01	1	0.682996139999887	1	119	NA	274.549114522	0	0.22	1.74	1	270.080751433001	270.763747573001	"13"	24114.930087029	24108.173873605	1.5	0.1
0.01	1	0.684539747002418	1	119	NA	274.549114522	0	0.22	1.74	1	270.999003113	271.683542860002	"13"	24114.930087029	24108.173873605	1.5	0.1
0.01	1	0.718680109999696	1	119	NA	274.549114522	0	0.22	1.74	1	271.917097345002	272.635777455002	"13"	24114.930087029	24108.173873605	1.5	0.1
0.01	1	0.798115593999682	1	119	NA	274.549114522	0	0.22	1.74	1	272.868708248003	273.666823842002	"13"	24114.930087029	24108.173873605	1.5	0.1
0.01	1	0.643683129997953	2	119	NA	274.549114522	0	0.22	1.74	1	273.903826803002	274.547509933	"13"	24114.930087029	24108.173873605	1.5	0.1
0.01	1	1.10784107899963	1	71	NA	327.605167786001	0	0.53	2.27	1	276.591677008	277.699518087	"14"	24114.930087029	24108.173873605	1.5	0.1
0.01	1	0.459174067000276	1	71	NA	327.605167786001	0	0.53	2.27	1	277.927344768003	278.386518835003	"14"	24114.930087029	24108.173873605	1.5	0.1
0.01	1	0.334459318000881	1	71	NA	327.605167786001	0	0.53	2.27	1	278.611796130001	278.946255448001	"14"	24114.930087029	24108.173873605	1.5	0.1
0.01	1	0.352053554001031	1	71	NA	327.605167786001	0	0.53	2.27	1	279.179399615001	279.531453169002	"14"	24114.930087029	24108.173873605	1.5	0.1
0.01	1	0.447519807999925	1	71	NA	327.605167786001	0	0.53	2.27	1	279.763721623	280.211241431	"14"	24114.930087029	24108.173873605	1.5	0.1
0.01	1	0.610051281000779	1	71	NA	327.605167786001	0	0.53	2.27	1	280.448182083001	281.058233364001	"14"	24114.930087029	24108.173873605	1.5	0.1
0.01	1	0.672327473999758	1	71	NA	327.605167786001	0	0.53	2.27	1	281.282946204999	281.955273678999	"14"	24114.930087029	24108.173873605	1.5	0.1
0.01	1	0.594978452001669	1	71	NA	327.605167786001	0	0.53	2.27	1	282.184429303001	282.779407755002	"14"	24114.930087029	24108.173873605	1.5	0.1
0.01	1	0.606681653000123	1	71	NA	327.605167786001	0	0.53	2.27	1	283.019143728001	283.625825381001	"14"	24114.930087029	24108.173873605	1.5	0.1
0.01	1	1.00496171499981	1	71	NA	327.605167786001	0	0.53	2.27	1	283.853989833002	284.858951548002	"14"	24114.930087029	24108.173873605	1.5	0.1
0.01	1	0.738124622999749	1	71	NA	327.605167786001	0	0.53	2.27	1	285.089271598001	285.827396221001	"14"	24114.930087029	24108.173873605	1.5	0.1
0.01	1	2.801628797999	1	71	NA	327.605167786001	0	0.53	2.27	1	286.057606270002	288.859235068001	"14"	24114.930087029	24108.173873605	1.5	0.1
0.01	1	1.45849917500163	1	71	NA	327.605167786001	0	0.53	2.27	1	289.096010465	290.554509640002	"14"	24114.930087029	24108.173873605	1.5	0.1
0.01	1	0.460391450000316	1	71	NA	327.605167786001	0	0.53	2.27	1	290.782234810002	291.242626260002	"14"	24114.930087029	24108.173873605	1.5	0.1
0.01	1	0.815383437002311	1	71	NA	327.605167786001	0	0.53	2.27	1	291.466702628	292.282086065003	"14"	24114.930087029	24108.173873605	1.5	0.1
0.01	1	0.708663240999158	1	71	NA	327.605167786001	0	0.53	2.27	1	292.51843634	293.227099580999	"14"	24114.930087029	24108.173873605	1.5	0.1
0.01	1	0.614028959000279	1	71	NA	327.605167786001	0	0.53	2.27	1	293.45332389	294.067352849001	"14"	24114.930087029	24108.173873605	1.5	0.1
0.01	1	0.793829239002662	1	71	NA	327.605167786001	0	0.53	2.27	1	294.304836108	295.098665347003	"14"	24114.930087029	24108.173873605	1.5	0.1
0.01	1	0.639960358999815	1	71	NA	327.605167786001	0	0.53	2.27	1	295.323243000003	295.963203359002	"14"	24114.930087029	24108.173873605	1.5	0.1
0.01	1	0.715725259000465	1	71	NA	327.605167786001	0	0.53	2.27	1	296.191324268002	296.907049527003	"14"	24114.930087029	24108.173873605	1.5	0.1
0.01	1	0.556836144001863	1	71	NA	327.605167786001	0	0.53	2.27	1	297.142947713	297.699783857002	"14"	24114.930087029	24108.173873605	1.5	0.1
0.01	1	0.602762485999847	1	71	NA	327.605167786001	0	0.53	2.27	1	297.927605063	298.530367548999	"14"	24114.930087029	24108.173873605	1.5	0.1
0.01	1	0.592196590001549	1	71	NA	327.605167786001	0	0.53	2.27	1	298.76227078	299.354467370002	"14"	24114.930087029	24108.173873605	1.5	0.1
0.01	1	0.677660121000372	1	71	NA	327.605167786001	0	0.53	2.27	1	299.580384809	300.25804493	"14"	24114.930087029	24108.173873605	1.5	0.1
0.01	1	0.624984426998708	1	71	NA	327.605167786001	0	0.53	2.27	1	300.481969718003	301.106954145002	"14"	24114.930087029	24108.173873605	1.5	0.1
0.01	1	0.73387255399939	1	71	NA	327.605167786001	0	0.53	2.27	1	301.333363178001	302.067235732	"14"	24114.930087029	24108.173873605	1.5	0.1
0.01	1	0.68433772699791	1	71	NA	327.605167786001	0	0.53	2.27	1	302.301638168003	302.985975895001	"14"	24114.930087029	24108.173873605	1.5	0.1
0.01	1	0.663369658999727	1	71	NA	327.605167786001	0	0.53	2.27	1	303.219875530001	303.883245189001	"14"	24114.930087029	24108.173873605	1.5	0.1
0.01	1	0.817316469001526	1	71	NA	327.605167786001	0	0.53	2.27	1	304.121432428001	304.938748897002	"14"	24114.930087029	24108.173873605	1.5	0.1
0.01	1	0.693744251999306	1	71	NA	327.605167786001	0	0.53	2.27	1	305.173123218003	305.866867470002	"14"	24114.930087029	24108.173873605	1.5	0.1
0.01	1	0.64791039299962	1	71	NA	327.605167786001	0	0.53	2.27	1	306.091375518001	306.739285911	"14"	24114.930087029	24108.173873605	1.5	0.1
0.01	1	0.705751669000165	1	71	NA	327.605167786001	0	0.53	2.27	1	306.976203296002	307.681954965003	"14"	24114.930087029	24108.173873605	1.5	0.1
0.01	1	0.772950082999159	1	71	NA	327.605167786001	0	0.53	2.27	1	307.911083890001	308.684033973001	"14"	24114.930087029	24108.173873605	1.5	0.1
0.01	1	0.809710583998822	1	71	NA	327.605167786001	0	0.53	2.27	1	308.912698165001	309.722408748999	"14"	24114.930087029	24108.173873605	1.5	0.1
0.01	1	0.79985879999731	1	71	NA	327.605167786001	0	0.53	2.27	1	309.947930018003	310.747788818	"14"	24114.930087029	24108.173873605	1.5	0.1
0.01	1	0.76368833900051	1	71	NA	327.605167786001	0	0.53	2.27	1	310.982875872	311.746564211	"14"	24114.930087029	24108.173873605	1.5	0.1
0.01	1	0.753780400002142	1	71	NA	327.605167786001	0	0.53	2.27	1	311.984575877999	312.738356278001	"14"	24114.930087029	24108.173873605	1.5	0.1
0.01	1	0.809597559000395	1	71	NA	327.605167786001	0	0.53	2.27	1	312.969516893001	313.779114452002	"14"	24114.930087029	24108.173873605	1.5	0.1
0.01	1	0.653892117999931	1	71	NA	327.605167786001	0	0.53	2.27	1	314.004617648003	314.658509766003	"14"	24114.930087029	24108.173873605	1.5	0.1
0.01	1	0.674405313002353	1	71	NA	327.605167786001	0	0.53	2.27	1	314.889506058	315.563911371002	"14"	24114.930087029	24108.173873605	1.5	0.1
0.01	1	0.700827275002666	1	71	NA	327.605167786001	0	0.53	2.27	1	315.79100261	316.491829885003	"14"	24114.930087029	24108.173873605	1.5	0.1
0.01	1	0.645814784002141	1	71	NA	327.605167786001	0	0.53	2.27	1	316.725842065	317.371656849002	"14"	24114.930087029	24108.173873605	1.5	0.1
0.01	1	0.560051043001295	1	71	NA	327.605167786001	0	0.53	2.27	1	317.593910551001	318.153961594002	"14"	24114.930087029	24108.173873605	1.5	0.1
0.01	1	0.590565941001842	1	71	NA	327.605167786001	0	0.53	2.27	1	318.395295923001	318.985861864003	"14"	24114.930087029	24108.173873605	1.5	0.1
0.01	1	0.71723452399965	1	71	NA	327.605167786001	0	0.53	2.27	1	319.213354353	319.930588877	"14"	24114.930087029	24108.173873605	1.5	0.1
0.01	1	0.638245484999061	1	71	NA	327.605167786001	0	0.53	2.27	1	320.164963170002	320.803208655001	"14"	24114.930087029	24108.173873605	1.5	0.1
0.01	1	0.658269077001023	1	71	NA	327.605167786001	0	0.53	2.27	1	321.033106085	321.691375162001	"14"	24114.930087029	24108.173873605	1.5	0.1
0.01	1	0.563788865001698	1	71	NA	327.605167786001	0	0.53	2.27	1	321.917991838	322.481780703001	"14"	24114.930087029	24108.173873605	1.5	0.1
0.01	1	0.683154659000138	1	71	NA	327.605167786001	0	0.53	2.27	1	322.719266453001	323.402421112001	"14"	24114.930087029	24108.173873605	1.5	0.1
0.01	1	0.57257800500156	1	71	NA	327.605167786001	0	0.53	2.27	1	323.637497183001	324.210075188003	"14"	24114.930087029	24108.173873605	1.5	0.1
0.01	1	0.65152954000223	1	71	NA	327.605167786001	0	0.53	2.27	1	324.438821525	325.090351065002	"14"	24114.930087029	24108.173873605	1.5	0.1
0.01	1	0.583236433998536	1	71	NA	327.605167786001	0	0.53	2.27	1	325.323766813002	325.907003247001	"14"	24114.930087029	24108.173873605	1.5	0.1
0.01	1	0.756254975000047	1	71	NA	327.605167786001	0	0.53	2.27	1	326.141689420001	326.897944395001	"14"	24114.930087029	24108.173873605	1.5	0.1
0.01	1	0.476957981998567	2	71	NA	327.605167786001	0	0.53	2.27	1	327.126629958002	327.603587940001	"14"	24114.930087029	24108.173873605	1.5	0.1
0.01	1	0.163402418998885	1	32	NA	353.235959123002	0	0.29	2.56	1	329.647643513003	329.811045932001	"15"	24114.930087029	24108.173873605	1.5	0.1
0.01	1	0.490125542000897	1	32	NA	353.235959123002	0	0.29	2.56	1	330.048302403	330.538427945001	"15"	24114.930087029	24108.173873605	1.5	0.1
0.01	1	0.68424284700086	1	32	NA	353.235959123002	0	0.29	2.56	1	330.766183560001	331.450426407002	"15"	24114.930087029	24108.173873605	1.5	0.1
0.01	1	0.415517241999623	1	32	NA	353.235959123002	0	0.29	2.56	1	331.684349595002	332.099866837001	"15"	24114.930087029	24108.173873605	1.5	0.1
0.01	1	0.491082051998092	1	32	NA	353.235959123002	0	0.29	2.56	1	332.335477978002	332.82656003	"15"	24114.930087029	24108.173873605	1.5	0.1
0.01	1	0.461189691999607	1	32	NA	353.235959123002	0	0.29	2.56	1	333.053387633001	333.514577325001	"15"	24114.930087029	24108.173873605	1.5	0.1
0.01	1	0.400712169001054	1	32	NA	353.235959123002	0	0.29	2.56	1	333.754474573001	334.155186742002	"15"	24114.930087029	24108.173873605	1.5	0.1
0.01	1	0.469930175000627	1	32	NA	353.235959123002	0	0.29	2.56	1	334.388900293001	334.858830468002	"15"	24114.930087029	24108.173873605	1.5	0.1
0.01	1	0.57634692099964	1	32	NA	353.235959123002	0	0.29	2.56	1	335.090164648002	335.666511569001	"15"	24114.930087029	24108.173873605	1.5	0.1
0.01	1	0.575811129001522	1	32	NA	353.235959123002	0	0.29	2.56	1	335.891439290001	336.467250419002	"15"	24114.930087029	24108.173873605	1.5	0.1
0.01	1	0.637088096998923	1	32	NA	353.235959123002	0	0.29	2.56	1	336.692851758002	337.329939855001	"15"	24114.930087029	24108.173873605	1.5	0.1
0.01	1	0.521349047998228	1	32	NA	353.235959123002	0	0.29	2.56	1	337.560998938003	338.082347986001	"15"	24114.930087029	24108.173873605	1.5	0.1
0.01	1	0.499098199998116	1	32	NA	353.235959123002	0	0.29	2.56	1	338.312256068002	338.811354268	"15"	24114.930087029	24108.173873605	1.5	0.1
0.01	1	0.460773644001165	1	32	NA	353.235959123002	0	0.29	2.56	1	339.046735068001	339.507508712002	"15"	24114.930087029	24108.173873605	1.5	0.1
0.01	1	0.600469054999849	1	32	NA	353.235959123002	0	0.29	2.56	1	339.731184448003	340.331653503003	"15"	24114.930087029	24108.173873605	1.5	0.1
0.01	1	0.556952311999339	1	32	NA	353.235959123002	0	0.29	2.56	1	340.565975205001	341.122927517001	"15"	24114.930087029	24108.173873605	1.5	0.1
0.01	1	0.508147612999892	1	32	NA	353.235959123002	0	0.29	2.56	1	341.350661678	341.858809290999	"15"	24114.930087029	24108.173873605	1.5	0.1
0.01	1	0.534119431998988	1	32	NA	353.235959123002	0	0.29	2.56	1	342.085285953002	342.619405385001	"15"	24114.930087029	24108.173873605	1.5	0.1
0.01	1	0.78201759500007	1	32	NA	353.235959123002	0	0.29	2.56	1	342.853198165001	343.635215760001	"15"	24114.930087029	24108.173873605	1.5	0.1
0.01	1	0.810931505999179	1	32	NA	353.235959123002	0	0.29	2.56	1	343.871449623002	344.682381129001	"15"	24114.930087029	24108.173873605	1.5	0.1
0.01	1	0.696630026999628	1	32	NA	353.235959123002	0	0.29	2.56	1	344.906654545	345.603284572	"15"	24114.930087029	24108.173873605	1.5	0.1
0.01	1	0.64081424500182	1	32	NA	353.235959123002	0	0.29	2.56	1	345.84150382	346.482318065002	"15"	24114.930087029	24108.173873605	1.5	0.1
0.01	1	0.637064888000168	1	32	NA	353.235959123002	0	0.29	2.56	1	346.709688433002	347.346753321002	"15"	24114.930087029	24108.173873605	1.5	0.1
0.01	1	0.609453397999459	1	32	NA	353.235959123002	0	0.29	2.56	1	347.577763450001	348.187216848	"15"	24114.930087029	24108.173873605	1.5	0.1
0.01	1	0.647315862999676	1	32	NA	353.235959123002	0	0.29	2.56	1	348.412472513002	349.059788376002	"15"	24114.930087029	24108.173873605	1.5	0.1
0.01	1	0.649482049000653	1	32	NA	353.235959123002	0	0.29	2.56	1	349.297397618	349.946879667001	"15"	24114.930087029	24108.173873605	1.5	0.1
0.01	1	0.57252933700147	1	32	NA	353.235959123002	0	0.29	2.56	1	350.182187402999	350.754716740001	"15"	24114.930087029	24108.173873605	1.5	0.1
0.01	1	0.659165879998909	1	32	NA	353.235959123002	0	0.29	2.56	1	350.983450248001	351.642616128	"15"	24114.930087029	24108.173873605	1.5	0.1
0.01	1	0.638294057000167	1	32	NA	353.235959123002	0	0.29	2.56	1	351.868378833002	352.506672890002	"15"	24114.930087029	24108.173873605	1.5	0.1
0.01	1	0.497964660000434	2	32	NA	353.235959123002	0	0.29	2.56	1	352.736433088001	353.234397748001	"15"	24114.930087029	24108.173873605	1.5	0.1
0.01	1	0.631066317000659	1	7	NA	358.155879687001	0	0.03	2.59	1	355.290692338	355.921758655	"16"	24114.930087029	24108.173873605	1.5	0.1
0.01	1	0.563997952998761	1	7	NA	358.155879687001	0	0.03	2.59	1	356.158972378002	356.722970331	"16"	24114.930087029	24108.173873605	1.5	0.1
0.01	1	0.507239624999784	1	7	NA	358.155879687001	0	0.03	2.59	1	356.960174115	357.46741374	"16"	24114.930087029	24108.173873605	1.5	0.1
0.01	1	0.459489247998135	2	7	NA	358.155879687001	0	0.03	2.59	1	357.694787543001	358.154276791	"16"	24114.930087029	24108.173873605	1.5	0.1
0.01	1	0.0035064900002908	1	49	396.730139713	NA	1	0	2.59	1	360.198995045001	360.202501535001	"17"	24114.930087029	24108.173873605	1.5	0.1
0.01	1	0.259005059000629	1	49	396.730139713	NA	1	0	2.59	1	360.432794290002	360.691799349002	"17"	24114.930087029	24108.173873605	1.5	0.1
0.01	1	0.406364567999844	1	49	396.730139713	NA	1	0	2.59	1	360.916872513	361.323237081	"17"	24114.930087029	24108.173873605	1.5	0.1
0.01	1	0.491961703002744	1	49	396.730139713	NA	1	0	2.59	1	361.551232438	362.043194141002	"17"	24114.930087029	24108.173873605	1.5	0.1
0.01	1	0.804912462001084	1	49	396.730139713	NA	1	0	2.59	1	362.269121783	363.074034245001	"17"	24114.930087029	24108.173873605	1.5	0.1
0.01	1	0.738687453998864	1	49	396.730139713	NA	1	0	2.59	1	363.304309933003	364.042997387001	"17"	24114.930087029	24108.173873605	1.5	0.1
0.01	1	0.681814883999323	1	49	396.730139713	NA	1	0	2.59	1	364.272526098001	364.954340982	"17"	24114.930087029	24108.173873605	1.5	0.1
0.01	1	0.62055761100055	1	49	396.730139713	NA	1	0	2.59	1	365.19079823	365.811355841	"17"	24114.930087029	24108.173873605	1.5	0.1
0.01	1	0.640036172997497	1	49	396.730139713	NA	1	0	2.59	1	366.042194133002	366.682230306	"17"	24114.930087029	24108.173873605	1.5	0.1
0.01	1	0.611939694001194	1	49	396.730139713	NA	1	0	2.59	1	366.91029493	367.522234624001	"17"	24114.930087029	24108.173873605	1.5	0.1
0.01	1	0.546014297000511	1	49	396.730139713	NA	1	0	2.59	1	367.761654828002	368.307669125003	"17"	24114.930087029	24108.173873605	1.5	0.1
0.01	1	0.505640499999572	1	49	396.730139713	NA	1	0	2.59	1	368.529664420003	369.035304920002	"17"	24114.930087029	24108.173873605	1.5	0.1
0.01	1	0.555217793000338	1	49	396.730139713	NA	1	0	2.59	1	369.264319450001	369.819537243002	"17"	24114.930087029	24108.173873605	1.5	0.1
0.01	1	0.609790986000007	1	49	396.730139713	NA	1	0	2.59	1	370.048910293001	370.658701279001	"17"	24114.930087029	24108.173873605	1.5	0.1
0.01	1	0.583519668001827	1	49	396.730139713	NA	1	0	2.59	1	370.900346208	371.483865876002	"17"	24114.930087029	24108.173873605	1.5	0.1
0.01	1	0.50007870799891	1	49	396.730139713	NA	1	0	2.59	1	371.718390605001	372.218469313	"17"	24114.930087029	24108.173873605	1.5	0.1
0.01	1	0.501823575999879	1	49	396.730139713	NA	1	0	2.59	1	372.452959888	372.954783464	"17"	24114.930087029	24108.173873605	1.5	0.1
0.01	1	0.495410537998396	1	49	396.730139713	NA	1	0	2.59	1	373.187466529002	373.682877067	"17"	24114.930087029	24108.173873605	1.5	0.1
0.01	1	0.5374756659985	1	49	396.730139713	NA	1	0	2.59	1	373.922119203002	374.459594869	"17"	24114.930087029	24108.173873605	1.5	0.1
0.01	1	0.552942624999559	1	49	396.730139713	NA	1	0	2.59	1	374.690034463001	375.242977088001	"17"	24114.930087029	24108.173873605	1.5	0.1
0.01	1	0.560786793001171	1	49	396.730139713	NA	1	0	2.59	1	375.474764348	376.035551141002	"17"	24114.930087029	24108.173873605	1.5	0.1
0.01	1	0.543225798999629	1	49	396.730139713	NA	1	0	2.59	1	376.259299943002	376.802525742001	"17"	24114.930087029	24108.173873605	1.5	0.1
0.01	1	0.49556266700165	1	49	396.730139713	NA	1	0	2.59	1	377.044048252999	377.539610920001	"17"	24114.930087029	24108.173873605	1.5	0.1
0.01	1	0.584814960002404	1	49	396.730139713	NA	1	0	2.59	1	377.761923783	378.346738743003	"17"	24114.930087029	24108.173873605	1.5	0.1
0.01	1	0.647564874001546	1	49	396.730139713	NA	1	0	2.59	1	378.579868263001	379.227433137003	"17"	24114.930087029	24108.173873605	1.5	0.1
0.01	1	0.498677903000498	1	49	396.730139713	NA	1	0	2.59	1	379.464806380001	379.963484283002	"17"	24114.930087029	24108.173873605	1.5	0.1
0.01	1	0.532076945997687	1	49	396.730139713	NA	1	0	2.59	1	380.199493333002	380.731570279	"17"	24114.930087029	24108.173873605	1.5	0.1
0.01	1	0.530814297999314	1	49	396.730139713	NA	1	0	2.59	1	380.967409728	381.498224026	"17"	24114.930087029	24108.173873605	1.5	0.1
0.01	1	0.476306948999991	1	49	396.730139713	NA	1	0	2.59	1	381.735222417999	382.211529366999	"17"	24114.930087029	24108.173873605	1.5	0.1
0.01	1	0.494167351000215	1	49	396.730139713	NA	1	0	2.59	1	382.43636603	382.930533381001	"17"	24114.930087029	24108.173873605	1.5	0.1
0.01	1	0.440819288000057	1	49	396.730139713	NA	1	0	2.59	1	383.171002327999	383.611821615999	"17"	24114.930087029	24108.173873605	1.5	0.1
0.01	1	0.515698025999882	1	49	396.730139713	NA	1	0	2.59	1	383.838738965002	384.354436991001	"17"	24114.930087029	24108.173873605	1.5	0.1
0.01	1	0.453214209999715	1	49	396.730139713	NA	1	0	2.59	1	384.590128010001	385.04334222	"17"	24114.930087029	24108.173873605	1.5	0.1
0.01	1	0.639541813998221	1	49	396.730139713	NA	1	0	2.59	1	385.274611125002	385.914152939	"17"	24114.930087029	24108.173873605	1.5	0.1
0.01	1	0.420317692001845	1	49	396.730139713	NA	1	0	2.59	1	386.142646023	386.562963715001	"17"	24114.930087029	24108.173873605	1.5	0.1
0.01	1	0.489434139002697	1	49	396.730139713	NA	1	0	2.59	1	386.793721053	387.283155192003	"17"	24114.930087029	24108.173873605	1.5	0.1
0.01	1	0.51505587200154	1	49	396.730139713	NA	1	0	2.59	1	387.511589268001	388.026645140002	"17"	24114.930087029	24108.173873605	1.5	0.1
0.01	1	0.499503607999941	1	49	396.730139713	NA	1	0	2.59	1	388.262840493	388.762344101	"17"	24114.930087029	24108.173873605	1.5	0.1
0.01	1	0.468997895000939	1	49	396.730139713	NA	1	0	2.59	1	388.997430028001	389.466427923002	"17"	24114.930087029	24108.173873605	1.5	0.1
0.01	1	0.480318186000659	1	49	396.730139713	NA	1	0	2.59	1	389.698663588002	390.178981774003	"17"	24114.930087029	24108.173873605	1.5	0.1
0.01	1	0.45805169200321	1	49	396.730139713	NA	1	0	2.59	1	390.416556228	390.874607920003	"17"	24114.930087029	24108.173873605	1.5	0.1
0.01	1	0.573131401000865	1	49	396.730139713	NA	1	0	2.59	1	391.101064099999	391.674195501	"17"	24114.930087029	24108.173873605	1.5	0.1
0.01	1	0.525572203998308	1	49	396.730139713	NA	1	0	2.59	1	391.902267265003	392.427839469001	"17"	24114.930087029	24108.173873605	1.5	0.1
0.01	1	0.453080059000058	1	49	396.730139713	NA	1	0	2.59	1	392.653622002999	393.106702061999	"17"	24114.930087029	24108.173873605	1.5	0.1
0.01	1	0.497387613002502	1	49	396.730139713	NA	1	0	2.59	1	393.338091578	393.835479191002	"17"	24114.930087029	24108.173873605	1.5	0.1
0.01	1	0.497758176999923	1	49	396.730139713	NA	1	0	2.59	1	394.072637719	394.570395896	"17"	24114.930087029	24108.173873605	1.5	0.1
0.01	1	0.411854246998701	1	49	396.730139713	NA	1	0	2.59	1	394.807240575003	395.219094822001	"17"	24114.930087029	24108.173873605	1.5	0.1
0.01	1	0.464526856998418	1	49	396.730139713	NA	1	0	2.59	1	395.441661561003	395.906188418001	"17"	24114.930087029	24108.173873605	1.5	0.1
0.01	1	0.467808389999846	1	49	396.730139713	NA	1	0	2.59	1	396.142855368002	396.610663758001	"17"	24114.930087029	24108.173873605	1.5	0.1
0.01	1	0.503753714001505	1	17	NA	408.005424646002	0	0.14	2.73	1	398.763816911	399.267570625001	"18"	24114.930087029	24108.173873605	1.5	0.1
0.01	1	0.191689805000351	1	17	NA	408.005424646002	0	0.14	2.73	1	399.498479288002	399.690169093003	"18"	24114.930087029	24108.173873605	1.5	0.1
0.01	1	0.239206093003304	1	17	NA	408.005424646002	0	0.14	2.73	1	399.915806692999	400.155012786003	"18"	24114.930087029	24108.173873605	1.5	0.1
0.01	1	0.196631343998888	1	17	NA	408.005424646002	0	0.14	2.73	1	400.383228113002	400.579859457001	"18"	24114.930087029	24108.173873605	1.5	0.1
0.01	1	0.392672636000498	1	17	NA	408.005424646002	0	0.14	2.73	1	400.817363415001	401.210036051001	"18"	24114.930087029	24108.173873605	1.5	0.1
0.01	1	0.583445080999809	1	17	NA	408.005424646002	0	0.14	2.73	1	401.435113179999	402.018558260999	"18"	24114.930087029	24108.173873605	1.5	0.1
0.01	1	0.470636104997538	1	17	NA	408.005424646002	0	0.14	2.73	1	402.253105613003	402.723741718	"18"	24114.930087029	24108.173873605	1.5	0.1
0.01	1	0.49579223299952	1	17	NA	408.005424646002	0	0.14	2.73	1	402.954280463	403.450072696	"18"	24114.930087029	24108.173873605	1.5	0.1
0.01	1	0.451727442999982	1	17	NA	408.005424646002	0	0.14	2.73	1	403.672083140002	404.123810583002	"18"	24114.930087029	24108.173873605	1.5	0.1
0.01	1	0.454375232999155	1	17	NA	408.005424646002	0	0.14	2.73	1	404.356684508002	404.811059741001	"18"	24114.930087029	24108.173873605	1.5	0.1
0.01	1	0.473645787998976	1	17	NA	408.005424646002	0	0.14	2.73	1	405.041100350001	405.514746138	"18"	24114.930087029	24108.173873605	1.5	0.1
0.01	1	0.428897879999568	1	17	NA	408.005424646002	0	0.14	2.73	1	405.742351698002	406.171249578001	"18"	24114.930087029	24108.173873605	1.5	0.1
0.01	1	0.457514360001369	1	17	NA	408.005424646002	0	0.14	2.73	1	406.410171295	406.867685655001	"18"	24114.930087029	24108.173873605	1.5	0.1
0.01	1	0.373183993997372	1	17	NA	408.005424646002	0	0.14	2.73	1	407.094558790002	407.467742784	"18"	24114.930087029	24108.173873605	1.5	0.1
0.01	1	0.308242982999218	2	17	NA	408.005424646002	0	0.14	2.73	1	407.695542358	408.003785340999	"18"	24114.930087029	24108.173873605	1.5	0.1
0.01	1	0.352322041999287	1	20	423.793201830002	NA	1	0	2.73	1	410.049494103001	410.401816145	"19"	24114.930087029	24108.173873605	1.5	0.1
0.01	1	0.328991832997417	1	20	423.793201830002	NA	1	0	2.73	1	410.633795903002	410.962787736	"19"	24114.930087029	24108.173873605	1.5	0.1
0.01	1	0.426682586999959	1	20	423.793201830002	NA	1	0	2.73	1	411.184814231001	411.611496818001	"19"	24114.930087029	24108.173873605	1.5	0.1
0.01	1	0.415596208997158	1	20	423.793201830002	NA	1	0	2.73	1	411.835919683002	412.251515892	"19"	24114.930087029	24108.173873605	1.5	0.1
0.01	1	0.651582039001369	1	20	423.793201830002	NA	1	0	2.73	1	412.487017215	413.138599254002	"19"	24114.930087029	24108.173873605	1.5	0.1
0.01	1	0.430567441999301	1	20	423.793201830002	NA	1	0	2.73	1	413.371784813	413.802352254999	"19"	24114.930087029	24108.173873605	1.5	0.1
0.01	1	0.482637700999476	1	20	423.793201830002	NA	1	0	2.73	1	414.039519000002	414.522156701001	"19"	24114.930087029	24108.173873605	1.5	0.1
0.01	1	0.50040124500083	1	20	423.793201830002	NA	1	0	2.73	1	414.757471510002	415.257872755003	"19"	24114.930087029	24108.173873605	1.5	0.1
0.01	1	0.454465768998489	1	20	423.793201830002	NA	1	0	2.73	1	415.492082240002	415.946548009	"19"	24114.930087029	24108.173873605	1.5	0.1
0.01	1	0.505670144997566	1	20	423.793201830002	NA	1	0	2.73	1	416.176540570003	416.682210715	"19"	24114.930087029	24108.173873605	1.5	0.1
0.01	1	0.43480907400226	1	20	423.793201830002	NA	1	0	2.73	1	416.911144061	417.345953135002	"19"	24114.930087029	24108.173873605	1.5	0.1
0.01	1	0.4957363120011	1	20	423.793201830002	NA	1	0	2.73	1	417.578857518001	418.074593830002	"19"	24114.930087029	24108.173873605	1.5	0.1
0.01	1	0.465756752000743	1	20	423.793201830002	NA	1	0	2.73	1	418.296688351002	418.762445103002	"19"	24114.930087029	24108.173873605	1.5	0.1
0.01	1	0.412983319998602	1	20	423.793201830002	NA	1	0	2.73	1	418.997905788001	419.410889108	"19"	24114.930087029	24108.173873605	1.5	0.1
0.01	1	0.481004704000952	1	20	423.793201830002	NA	1	0	2.73	1	419.649010138	420.130014842001	"19"	24114.930087029	24108.173873605	1.5	0.1
0.01	1	0.484123534999526	1	20	423.793201830002	NA	1	0	2.73	1	420.366857278001	420.850980813	"19"	24114.930087029	24108.173873605	1.5	0.1
0.01	1	0.413622773998213	1	20	423.793201830002	NA	1	0	2.73	1	421.084867543002	421.498490317001	"19"	24114.930087029	24108.173873605	1.5	0.1
0.01	1	0.474918748001073	1	20	423.793201830002	NA	1	0	2.73	1	421.735777333	422.210696081002	"19"	24114.930087029	24108.173873605	1.5	0.1
0.01	1	0.461335808999138	1	20	423.793201830002	NA	1	0	2.73	1	422.437182953003	422.898518762002	"19"	24114.930087029	24108.173873605	1.5	0.1
0.01	1	0.552263722001953	1	20	423.793201830002	NA	1	0	2.73	1	423.121533322999	423.673797045001	"19"	24114.930087029	24108.173873605	1.5	0.1
0.01	1	0.00376950099962414	1	21	NA	436.852574853001	0	0.18	2.91	1	425.842832940001	425.846602441001	"20"	24114.930087029	24108.173873605	1.5	0.1
0.01	1	0.151051487999212	1	21	NA	436.852574853001	0	0.18	2.91	1	426.076524323002	426.227575811001	"20"	24114.930087029	24108.173873605	1.5	0.1
0.01	1	0.125939313002164	1	21	NA	436.852574853001	0	0.18	2.91	1	426.460404505	426.586343818002	"20"	24114.930087029	24108.173873605	1.5	0.1
0.01	1	0.535397356998146	1	21	NA	436.852574853001	0	0.18	2.91	1	426.811110048002	427.346507405	"20"	24114.930087029	24108.173873605	1.5	0.1
0.01	1	0.326873783000337	1	21	NA	436.852574853001	0	0.18	2.91	1	427.579083068002	427.905956851002	"20"	24114.930087029	24108.173873605	1.5	0.1
0.01	1	0.27237708499888	1	21	NA	436.852574853001	0	0.18	2.91	1	428.129950439001	428.402327524	"20"	24114.930087029	24108.173873605	1.5	0.1
0.01	1	0.395570732998749	1	21	NA	436.852574853001	0	0.18	2.91	1	428.630832090003	429.026402823001	"20"	24114.930087029	24108.173873605	1.5	0.1
0.01	1	0.40301344999898	1	21	NA	436.852574853001	0	0.18	2.91	1	429.248490985003	429.651504435002	"20"	24114.930087029	24108.173873605	1.5	0.1
0.01	1	0.391430182997283	1	21	NA	436.852574853001	0	0.18	2.91	1	429.882963398002	430.274393580999	"20"	24114.930087029	24108.173873605	1.5	0.1
0.01	1	0.335191381000186	1	21	NA	436.852574853001	0	0.18	2.91	1	430.50058208	430.835773461	"20"	24114.930087029	24108.173873605	1.5	0.1
0.01	1	0.414396609001415	1	21	NA	436.852574853001	0	0.18	2.91	1	431.068234823	431.482631432002	"20"	24114.930087029	24108.173873605	1.5	0.1
0.01	1	0.420446226999047	1	21	NA	436.852574853001	0	0.18	2.91	1	431.719311838002	432.139758065001	"20"	24114.930087029	24108.173873605	1.5	0.1
0.01	1	0.392547970001033	1	21	NA	436.852574853001	0	0.18	2.91	1	432.370456918001	432.763004888002	"20"	24114.930087029	24108.173873605	1.5	0.1
0.01	1	0.422683958000562	1	21	NA	436.852574853001	0	0.18	2.91	1	432.988217563001	433.410901521002	"20"	24114.930087029	24108.173873605	1.5	0.1
0.01	1	0.427211458001693	1	21	NA	436.852574853001	0	0.18	2.91	1	433.63914983	434.066361288002	"20"	24114.930087029	24108.173873605	1.5	0.1
0.01	1	0.512691942996753	1	21	NA	436.852574853001	0	0.18	2.91	1	434.307132608003	434.819824550999	"20"	24114.930087029	24108.173873605	1.5	0.1
0.01	1	0.521345697001379	1	21	NA	436.852574853001	0	0.18	2.91	1	435.058356203001	435.579701900002	"20"	24114.930087029	24108.173873605	1.5	0.1
0.01	1	0.464735850000579	1	21	NA	436.852574853001	0	0.18	2.91	1	435.809581938	436.274317788	"20"	24114.930087029	24108.173873605	1.5	0.1
0.01	1	0.340460369003267	2	21	NA	436.852574853001	0	0.18	2.91	1	436.510552457999	436.851012827003	"20"	24114.930087029	24108.173873605	1.5	0.1
0.01	1	0.328005982999457	1	26	NA	452.755351930002	0	0.15	3.06	1	438.898080748	439.226086731	"21"	24114.930087029	24108.173873605	1.5	0.1
0.01	1	0.29815474699717	1	26	NA	452.755351930002	0	0.15	3.06	1	439.465634038002	439.763788785	"21"	24114.930087029	24108.173873605	1.5	0.1
0.01	1	0.347254606000206	1	26	NA	452.755351930002	0	0.15	3.06	1	439.999953398001	440.347208004001	"21"	24114.930087029	24108.173873605	1.5	0.1
0.01	1	0.313912224999513	1	26	NA	452.755351930002	0	0.15	3.06	1	440.584214953	440.898127177999	"21"	24114.930087029	24108.173873605	1.5	0.1
0.01	1	0.466796825003257	1	26	NA	452.755351930002	0	0.15	3.06	1	441.135123194999	441.601920020003	"21"	24114.930087029	24108.173873605	1.5	0.1
0.01	1	0.366293107999809	1	26	NA	452.755351930002	0	0.15	3.06	1	441.836399123	442.202692231	"21"	24114.930087029	24108.173873605	1.5	0.1
0.01	1	0.430159781000839	1	26	NA	452.755351930002	0	0.15	3.06	1	442.43740182	442.867561601	"21"	24114.930087029	24108.173873605	1.5	0.1
0.01	1	0.641344985000615	1	26	NA	452.755351930002	0	0.15	3.06	1	443.105109008	443.746453993001	"21"	24114.930087029	24108.173873605	1.5	0.1
0.01	1	0.420796379999956	1	26	NA	452.755351930002	0	0.15	3.06	1	443.973323168	444.394119548	"21"	24114.930087029	24108.173873605	1.5	0.1
0.01	1	0.386097197999334	1	26	NA	452.755351930002	0	0.15	3.06	1	444.624399363001	445.010496561001	"21"	24114.930087029	24108.173873605	1.5	0.1
0.01	1	0.393671470999834	1	26	NA	452.755351930002	0	0.15	3.06	1	445.242086578	445.635758049	"21"	24114.930087029	24108.173873605	1.5	0.1
0.01	1	0.391183592000743	1	26	NA	452.755351930002	0	0.15	3.06	1	445.859806528002	446.250990120003	"21"	24114.930087029	24108.173873605	1.5	0.1
0.01	1	0.621458268000424	1	26	NA	452.755351930002	0	0.15	3.06	1	446.47752525	447.098983518001	"21"	24114.930087029	24108.173873605	1.5	0.1
0.01	1	0.522727970997948	1	26	NA	452.755351930002	0	0.15	3.06	1	447.328931070002	447.851659041	"21"	24114.930087029	24108.173873605	1.5	0.1
0.01	1	0.755451093002193	1	26	NA	452.755351930002	0	0.15	3.06	1	448.080272838	448.835723931003	"21"	24114.930087029	24108.173873605	1.5	0.1
0.01	1	3.68856087200038	2	26	NA	452.755351930002	0	0.15	3.06	1	449.065215852999	452.753776725	"21"	24114.930087029	24108.173873605	1.5	0.1
0.01	1	0.0832033679980668	1	97	NA	470.500245263	0	0.21	3.27	1	454.808160265002	454.891363633	"22"	24114.930087029	24108.173873605	1.5	0.1
0.01	1	0.453783765002299	1	97	NA	470.500245263	0	0.21	3.27	1	455.125307894999	455.579091660002	"22"	24114.930087029	24108.173873605	1.5	0.1
0.01	1	0.496409590999974	1	97	NA	470.500245263	0	0.21	3.27	1	455.809864035	456.306273626	"22"	24114.930087029	24108.173873605	1.5	0.1
0.01	1	0.51437418900241	1	97	NA	470.500245263	0	0.21	3.27	1	456.544490212	457.058864401002	"22"	24114.930087029	24108.173873605	1.5	0.1
0.01	1	0.452091635997931	1	97	NA	470.500245263	0	0.21	3.27	1	457.295680833002	457.747772469	"22"	24114.930087029	24108.173873605	1.5	0.1
0.01	1	0.478690824998921	1	97	NA	470.500245263	0	0.21	3.27	1	457.980180408002	458.458871233001	"22"	24114.930087029	24108.173873605	1.5	0.1
0.01	1	0.528399077000358	1	97	NA	470.500245263	0	0.21	3.27	1	458.697967931999	459.226367009	"22"	24114.930087029	24108.173873605	1.5	0.1
0.01	1	0.522251299000345	1	97	NA	470.500245263	0	0.21	3.27	1	459.449385005002	459.971636304002	"22"	24114.930087029	24108.173873605	1.5	0.1
0.01	1	0.553435347999766	1	97	NA	470.500245263	0	0.21	3.27	1	460.200505173001	460.753940521001	"22"	24114.930087029	24108.173873605	1.5	0.1
0.01	1	0.513638323001942	1	97	NA	470.500245263	0	0.21	3.27	1	460.985219124999	461.498857448001	"22"	24114.930087029	24108.173873605	1.5	0.1
0.01	1	0.795364662000793	1	97	NA	470.500245263	0	0.21	3.27	1	461.736435553001	462.531800215002	"22"	24114.930087029	24108.173873605	1.5	0.1
0.01	1	0.607686204999482	1	97	NA	470.500245263	0	0.21	3.27	1	462.754857369	463.362543574	"22"	24114.930087029	24108.173873605	1.5	0.1
0.01	1	0.428327177000028	1	97	NA	470.500245263	0	0.21	3.27	1	463.58958742	464.017914597	"22"	24114.930087029	24108.173873605	1.5	0.1
0.01	1	0.497851943000569	1	97	NA	470.500245263	0	0.21	3.27	1	464.240756993	464.738608936001	"22"	24114.930087029	24108.173873605	1.5	0.1
0.01	1	0.419797460002883	1	97	NA	470.500245263	0	0.21	3.27	1	464.975352488	465.395149948003	"22"	24114.930087029	24108.173873605	1.5	0.1
0.01	1	0.56775978099904	1	97	NA	470.500245263	0	0.21	3.27	1	465.626365788001	466.194125569	"22"	24114.930087029	24108.173873605	1.5	0.1
0.01	1	0.462786307998613	1	97	NA	470.500245263	0	0.21	3.27	1	466.427741373001	466.890527681	"22"	24114.930087029	24108.173873605	1.5	0.1
0.01	1	0.513037451997661	1	97	NA	470.500245263	0	0.21	3.27	1	467.128922653003	467.641960105	"22"	24114.930087029	24108.173873605	1.5	0.1
0.01	1	0.553697996001574	1	97	NA	470.500245263	0	0.21	3.27	1	467.880196657999	468.433894654001	"22"	24114.930087029	24108.173873605	1.5	0.1
0.01	1	0.59297342499849	1	97	NA	470.500245263	0	0.21	3.27	1	468.664797138001	469.257770562999	"22"	24114.930087029	24108.173873605	1.5	0.1
0.01	1	0.503367631998117	1	97	NA	470.500245263	0	0.21	3.27	1	469.482869268002	469.9862369	"22"	24114.930087029	24108.173873605	1.5	0.1
0.01	1	0.281431030001841	2	97	NA	470.500245263	0	0.21	3.27	1	470.217362470001	470.498793500003	"22"	24114.930087029	24108.173873605	1.5	0.1
0.01	1	0.543687109002349	1	118	NA	489.757476858002	0	0.2	3.47	1	472.55461956	473.098306669002	"23"	24114.930087029	24108.173873605	1.5	0.1
0.01	1	0.318439383001532	1	118	NA	489.757476858002	0	0.2	3.47	1	473.339435225	473.657874608001	"23"	24114.930087029	24108.173873605	1.5	0.1
0.01	1	0.51320975300041	1	118	NA	489.757476858002	0	0.2	3.47	1	473.890280970001	474.403490723002	"23"	24114.930087029	24108.173873605	1.5	0.1
0.01	1	0.448343800002476	1	118	NA	489.757476858002	0	0.2	3.47	1	474.641534438	475.089878238003	"23"	24114.930087029	24108.173873605	1.5	0.1
0.01	1	0.492155074000038	1	118	NA	489.757476858002	0	0.2	3.47	1	475.326061193002	475.818216267002	"23"	24114.930087029	24108.173873605	1.5	0.1
0.01	1	0.534293036998861	1	118	NA	489.757476858002	0	0.2	3.47	1	476.043833953001	476.57812699	"23"	24114.930087029	24108.173873605	1.5	0.1
0.01	1	0.463322428000538	1	118	NA	489.757476858002	0	0.2	3.47	1	476.8119143	477.275236728001	"23"	24114.930087029	24108.173873605	1.5	0.1
0.01	1	0.441023003000737	1	118	NA	489.757476858002	0	0.2	3.47	1	477.51302522	477.954048223	"23"	24114.930087029	24108.173873605	1.5	0.1
0.01	1	0.349717516000965	1	118	NA	489.757476858002	0	0.2	3.47	1	478.180774278	478.530491794001	"23"	24114.930087029	24108.173873605	1.5	0.1
0.01	1	0.406453821000468	1	118	NA	489.757476858002	0	0.2	3.47	1	478.765124865	479.171578686	"23"	24114.930087029	24108.173873605	1.5	0.1
0.01	1	0.539848732998507	1	118	NA	489.757476858002	0	0.2	3.47	1	479.399621585002	479.939470318001	"23"	24114.930087029	24108.173873605	1.5	0.1
0.01	1	0.682943571999203	1	118	NA	489.757476858002	0	0.2	3.47	1	480.167499175001	480.850442747	"23"	24114.930087029	24108.173873605	1.5	0.1
0.01	1	0.493419051999808	1	118	NA	489.757476858002	0	0.2	3.47	1	481.085707915001	481.579126967001	"23"	24114.930087029	24108.173873605	1.5	0.1
0.01	1	0.479413187000318	1	118	NA	489.757476858002	0	0.2	3.47	1	481.803607113001	482.283020300001	"23"	24114.930087029	24108.173873605	1.5	0.1
0.01	1	0.473916620001546	1	118	NA	489.757476858002	0	0.2	3.47	1	482.504778743001	482.978695363003	"23"	24114.930087029	24108.173873605	1.5	0.1
0.01	1	0.364444164002634	1	118	NA	489.757476858002	0	0.2	3.47	1	483.20592031	483.570364474002	"23"	24114.930087029	24108.173873605	1.5	0.1
0.01	1	0.555485308999778	1	118	NA	489.757476858002	0	0.2	3.47	1	483.806957717999	484.362443026999	"23"	24114.930087029	24108.173873605	1.5	0.1
0.01	1	0.522337152997352	1	118	NA	489.757476858002	0	0.2	3.47	1	484.591644045002	485.113981197999	"23"	24114.930087029	24108.173873605	1.5	0.1
0.01	1	1.42838054800086	1	118	NA	489.757476858002	0	0.2	3.47	1	485.34282794	486.771208488	"23"	24114.930087029	24108.173873605	1.5	0.1
0.01	1	1.29496863999884	1	118	NA	489.757476858002	0	0.2	3.47	1	487.012282448002	488.307251088001	"23"	24114.930087029	24108.173873605	1.5	0.1
0.01	1	1.22425229700093	2	118	NA	489.757476858002	0	0.2	3.47	1	488.531641463	489.755893760001	"23"	24114.930087029	24108.173873605	1.5	0.1
0.01	1	0.295786759998009	1	100	NA	521.851981071002	0	0.38	3.85	1	491.803729490002	492.09951625	"24"	24114.930087029	24108.173873605	1.5	0.1
0.01	1	0.361585842998466	1	100	NA	521.851981071002	0	0.38	3.85	1	492.337958225002	492.699544068	"24"	24114.930087029	24108.173873605	1.5	0.1
0.01	1	0.401079638999363	1	100	NA	521.851981071002	0	0.38	3.85	1	492.922328608001	493.323408247001	"24"	24114.930087029	24108.173873605	1.5	0.1
0.01	1	0.365575353000168	1	100	NA	521.851981071002	0	0.38	3.85	1	493.556621468	493.922196821	"24"	24114.930087029	24108.173873605	1.5	0.1
0.01	1	0.476665451998997	1	100	NA	521.851981071002	0	0.38	3.85	1	494.157699003001	494.634364455	"24"	24114.930087029	24108.173873605	1.5	0.1
0.01	1	0.456122129002324	1	100	NA	521.851981071002	0	0.38	3.85	1	494.858817048	495.314939177002	"24"	24114.930087029	24108.173873605	1.5	0.1
0.01	1	0.394449764997262	1	100	NA	521.851981071002	0	0.38	3.85	1	495.543418993002	495.937868757999	"24"	24114.930087029	24108.173873605	1.5	0.1
0.01	1	0.513235692000308	1	100	NA	521.851981071002	0	0.38	3.85	1	496.177831500001	496.691067192001	"24"	24114.930087029	24108.173873605	1.5	0.1
0.01	1	0.595058383998548	1	100	NA	521.851981071002	0	0.38	3.85	1	496.912294273003	497.507352657001	"24"	24114.930087029	24108.173873605	1.5	0.1
0.01	1	0.545445794999978	1	100	NA	521.851981071002	0	0.38	3.85	1	497.730378570002	498.275824365002	"24"	24114.930087029	24108.173873605	1.5	0.1
0.01	1	0.712092923997261	1	100	NA	521.851981071002	0	0.38	3.85	1	498.498277705003	499.210370629	"24"	24114.930087029	24108.173873605	1.5	0.1
0.01	1	0.649832202998368	1	100	NA	521.851981071002	0	0.38	3.85	1	499.449870985001	500.099703188	"24"	24114.930087029	24108.173873605	1.5	0.1
0.01	1	0.547525976999168	1	100	NA	521.851981071002	0	0.38	3.85	1	500.334786285002	500.882312262002	"24"	24114.930087029	24108.173873605	1.5	0.1
0.01	1	0.658402651999495	1	100	NA	521.851981071002	0	0.38	3.85	1	501.119424913002	501.777827565002	"24"	24114.930087029	24108.173873605	1.5	0.1
0.01	1	0.605949730001157	1	100	NA	521.851981071002	0	0.38	3.85	1	502.00430466	502.610254390002	"24"	24114.930087029	24108.173873605	1.5	0.1
0.01	1	0.634838533998845	1	100	NA	521.851981071002	0	0.38	3.85	1	502.838983043002	503.473821577001	"24"	24114.930087029	24108.173873605	1.5	0.1
0.01	1	0.712427606998972	1	100	NA	521.851981071002	0	0.38	3.85	1	503.707082360001	504.419509967	"24"	24114.930087029	24108.173873605	1.5	0.1
0.01	1	0.824974620998546	1	100	NA	521.851981071002	0	0.38	3.85	1	504.641931228001	505.466905849	"24"	24114.930087029	24108.173873605	1.5	0.1
0.01	1	0.565261835999991	1	100	NA	521.851981071002	0	0.38	3.85	1	505.693805988001	506.259067824001	"24"	24114.930087029	24108.173873605	1.5	0.1
0.01	1	0.740400358001352	1	100	NA	521.851981071002	0	0.38	3.85	1	506.495146703001	507.235547061002	"24"	24114.930087029	24108.173873605	1.5	0.1
0.01	1	0.603101344000606	1	100	NA	521.851981071002	0	0.38	3.85	1	507.463409550001	508.066510894001	"24"	24114.930087029	24108.173873605	1.5	0.1
0.01	1	0.60894551399906	1	100	NA	521.851981071002	0	0.38	3.85	1	508.298232138	508.907177652	"24"	24114.930087029	24108.173873605	1.5	0.1
0.01	1	0.613586853996821	1	100	NA	521.851981071002	0	0.38	3.85	1	509.132851640003	509.746438493999	"24"	24114.930087029	24108.173873605	1.5	0.1
0.01	1	0.667001841000456	1	100	NA	521.851981071002	0	0.38	3.85	1	509.984299098	510.651300939	"24"	24114.930087029	24108.173873605	1.5	0.1
0.01	1	0.65380747800009	1	100	NA	521.851981071002	0	0.38	3.85	1	510.885782560003	511.539590038003	"24"	24114.930087029	24108.173873605	1.5	0.1
0.01	1	0.545283315997949	1	100	NA	521.851981071002	0	0.38	3.85	1	511.770731953002	512.316015269	"24"	24114.930087029	24108.173873605	1.5	0.1
0.01	1	0.503237844000978	1	100	NA	521.851981071002	0	0.38	3.85	1	512.538568053002	513.041805897003	"24"	24114.930087029	24108.173873605	1.5	0.1
0.01	1	0.577208705002704	1	100	NA	521.851981071002	0	0.38	3.85	1	513.27318529	513.850393995002	"24"	24114.930087029	24108.173873605	1.5	0.1
0.01	1	0.471530620998237	1	100	NA	521.851981071002	0	0.38	3.85	1	514.074566645002	514.546097266	"24"	24114.930087029	24108.173873605	1.5	0.1
0.01	1	0.530262298998423	1	100	NA	521.851981071002	0	0.38	3.85	1	514.775763093003	515.306025392001	"24"	24114.930087029	24108.173873605	1.5	0.1
0.01	1	0.450659882000764	1	100	NA	521.851981071002	0	0.38	3.85	1	515.543660503001	515.994320385002	"24"	24114.930087029	24108.173873605	1.5	0.1
0.01	1	0.406591684000887	1	100	NA	521.851981071002	0	0.38	3.85	1	516.228161258001	516.634752942002	"24"	24114.930087029	24108.173873605	1.5	0.1
0.01	1	0.459507986997778	1	100	NA	521.851981071002	0	0.38	3.85	1	516.862458039002	517.321966026	"24"	24114.930087029	24108.173873605	1.5	0.1
0.01	1	0.391890177997993	1	100	NA	521.851981071002	0	0.38	3.85	1	517.547008265003	517.938898443001	"24"	24114.930087029	24108.173873605	1.5	0.1
0.01	1	0.541397919998417	1	100	NA	521.851981071002	0	0.38	3.85	1	518.164796675002	518.706194595001	"24"	24114.930087029	24108.173873605	1.5	0.1
0.01	1	0.718662029998086	1	100	NA	521.851981071002	0	0.38	3.85	1	518.932750522003	519.651412552001	"24"	24114.930087029	24108.173873605	1.5	0.1
0.01	1	0.439533750999544	1	100	NA	521.851981071002	0	0.38	3.85	1	519.884319650002	520.323853401002	"24"	24114.930087029	24108.173873605	1.5	0.1
0.01	1	0.466421214001457	1	100	NA	521.851981071002	0	0.38	3.85	1	520.552161853	521.018583067002	"24"	24114.930087029	24108.173873605	1.5	0.1
0.01	1	0.597166696003114	2	100	NA	521.851981071002	0	0.38	3.85	1	521.253266565	521.850433261003	"24"	24114.930087029	24108.173873605	1.5	0.1
0.01	1	0.87119773700033	1	46	NA	556.517273950001	0	0.44	4.29	1	523.90771154	524.778909277	"25"	24114.930087029	24108.173873605	1.5	0.1
0.01	1	0.513137571000698	1	46	NA	556.517273950001	0	0.44	4.29	1	525.009704938002	525.522842509003	"25"	24114.930087029	24108.173873605	1.5	0.1
0.01	1	0.457649151001533	1	46	NA	556.517273950001	0	0.44	4.29	1	525.760866688001	526.218515839002	"25"	24114.930087029	24108.173873605	1.5	0.1
0.01	1	0.390220233999571	1	46	NA	556.517273950001	0	0.44	4.29	1	526.445455443001	526.835675677001	"25"	24114.930087029	24108.173873605	1.5	0.1
0.01	1	0.499918632998742	1	46	NA	556.517273950001	0	0.44	4.29	1	527.063017888002	527.562936521001	"25"	24114.930087029	24108.173873605	1.5	0.1
0.01	1	0.550086593000742	1	46	NA	556.517273950001	0	0.44	4.29	1	527.79772079	528.347807383001	"25"	24114.930087029	24108.173873605	1.5	0.1
0.01	1	0.436587864998728	1	46	NA	556.517273950001	0	0.44	4.29	1	528.582240863001	529.018828728	"25"	24114.930087029	24108.173873605	1.5	0.1
0.01	1	0.456360894997488	1	46	NA	556.517273950001	0	0.44	4.29	1	529.250051482002	529.706412377	"25"	24114.930087029	24108.173873605	1.5	0.1
0.01	1	0.388663991001522	1	46	NA	556.517273950001	0	0.44	4.29	1	529.934547335	530.323211326002	"25"	24114.930087029	24108.173873605	1.5	0.1
0.01	1	0.499150382001972	1	46	NA	556.517273950001	0	0.44	4.29	1	530.552247025	531.051397407002	"25"	24114.930087029	24108.173873605	1.5	0.1
0.01	1	0.435749614000088	1	46	NA	556.517273950001	0	0.44	4.29	1	531.286793903	531.722543517	"25"	24114.930087029	24108.173873605	1.5	0.1
0.01	1	0.41631247499754	1	46	NA	556.517273950001	0	0.44	4.29	1	531.954530418003	532.370842893	"25"	24114.930087029	24108.173873605	1.5	0.1
0.01	1	0.526048296000226	1	46	NA	556.517273950001	0	0.44	4.29	1	532.605714763002	533.131763059002	"25"	24114.930087029	24108.173873605	1.5	0.1
0.01	1	0.44550807700216	1	46	NA	556.517273950001	0	0.44	4.29	1	533.35695799	533.802466067002	"25"	24114.930087029	24108.173873605	1.5	0.1
0.01	1	0.44122177400277	1	46	NA	556.517273950001	0	0.44	4.29	1	534.024690003	534.465911777002	"25"	24114.930087029	24108.173873605	1.5	0.1
0.01	1	0.422838859001786	1	46	NA	556.517273950001	0	0.44	4.29	1	534.692519443	535.115358302002	"25"	24114.930087029	24108.173873605	1.5	0.1
0.01	1	0.491873751998355	1	46	NA	556.517273950001	0	0.44	4.29	1	535.343651408002	535.835525160001	"25"	24114.930087029	24108.173873605	1.5	0.1
0.01	1	0.518259132000821	1	46	NA	556.517273950001	0	0.44	4.29	1	536.06146836	536.579727492001	"25"	24114.930087029	24108.173873605	1.5	0.1
0.01	1	0.501799443998607	1	46	NA	556.517273950001	0	0.44	4.29	1	536.812785293001	537.314584737	"25"	24114.930087029	24108.173873605	1.5	0.1
0.01	1	0.368393837001349	1	46	NA	556.517273950001	0	0.44	4.29	1	537.547429998001	537.915823835003	"25"	24114.930087029	24108.173873605	1.5	0.1
0.01	1	0.487169388001348	1	46	NA	556.517273950001	0	0.44	4.29	1	538.148322479999	538.635491868001	"25"	24114.930087029	24108.173873605	1.5	0.1
0.01	1	0.49677186199915	1	46	NA	556.517273950001	0	0.44	4.29	1	538.866226463	539.362998324999	"25"	24114.930087029	24108.173873605	1.5	0.1
0.01	1	0.491072726999846	1	46	NA	556.517273950001	0	0.44	4.29	1	539.600795533002	540.091868260002	"25"	24114.930087029	24108.173873605	1.5	0.1
0.01	1	0.50861967200035	1	46	NA	556.517273950001	0	0.44	4.29	1	540.318701338001	540.827321010001	"25"	24114.930087029	24108.173873605	1.5	0.1
0.01	1	0.597934522000287	1	46	NA	556.517273950001	0	0.44	4.29	1	541.053247642001	541.651182164002	"25"	24114.930087029	24108.173873605	1.5	0.1
0.01	1	0.626158539998869	1	46	NA	556.517273950001	0	0.44	4.29	1	541.888025268003	542.514183808002	"25"	24114.930087029	24108.173873605	1.5	0.1
0.01	1	0.446516207000968	1	46	NA	556.517273950001	0	0.44	4.29	1	542.739527365	543.186043572001	"25"	24114.930087029	24108.173873605	1.5	0.1
0.01	1	0.507362940999883	1	46	NA	556.517273950001	0	0.44	4.29	1	543.423866138	543.931229079	"25"	24114.930087029	24108.173873605	1.5	0.1
0.01	1	0.483583614000963	1	46	NA	556.517273950001	0	0.44	4.29	1	544.158528340002	544.642111954003	"25"	24114.930087029	24108.173873605	1.5	0.1
0.01	1	0.453528373000154	1	46	NA	556.517273950001	0	0.44	4.29	1	544.876281870002	545.329810243002	"25"	24114.930087029	24108.173873605	1.5	0.1
0.01	1	0.489364155000658	1	46	NA	556.517273950001	0	0.44	4.29	1	545.560764243	546.050128398001	"25"	24114.930087029	24108.173873605	1.5	0.1
0.01	1	0.419554496998899	1	46	NA	556.517273950001	0	0.44	4.29	1	546.278754988001	546.698309485	"25"	24114.930087029	24108.173873605	1.5	0.1
0.01	1	0.784646788000828	1	46	NA	556.517273950001	0	0.44	4.29	1	546.929832573001	547.714479361002	"25"	24114.930087029	24108.173873605	1.5	0.1
0.01	1	0.406305960997997	1	46	NA	556.517273950001	0	0.44	4.29	1	547.948262788002	548.354568749	"25"	24114.930087029	24108.173873605	1.5	0.1
0.01	1	0.484530052999617	1	46	NA	556.517273950001	0	0.44	4.29	1	548.582535920003	549.067065973002	"25"	24114.930087029	24108.173873605	1.5	0.1
0.01	1	0.413972856000328	1	46	NA	556.517273950001	0	0.44	4.29	1	549.300528828	549.714501684	"25"	24114.930087029	24108.173873605	1.5	0.1
0.01	1	0.46846170599747	1	46	NA	556.517273950001	0	0.44	4.29	1	549.951503225002	550.419964930999	"25"	24114.930087029	24108.173873605	1.5	0.1
0.01	1	0.389837480001006	1	46	NA	556.517273950001	0	0.44	4.29	1	550.6526801	551.042517580001	"25"	24114.930087029	24108.173873605	1.5	0.1
0.01	1	0.46005912200053	1	46	NA	556.517273950001	0	0.44	4.29	1	551.270441648001	551.730500770002	"25"	24114.930087029	24108.173873605	1.5	0.1
0.01	1	0.44717330000276	1	46	NA	556.517273950001	0	0.44	4.29	1	551.971530557999	552.418703858002	"25"	24114.930087029	24108.173873605	1.5	0.1
0.01	1	0.475487621999491	1	46	NA	556.517273950001	0	0.44	4.29	1	552.656031185001	553.131518807	"25"	24114.930087029	24108.173873605	1.5	0.1
0.01	1	0.421444429000985	1	46	NA	556.517273950001	0	0.44	4.29	1	553.357321525	553.778765954001	"25"	24114.930087029	24108.173873605	1.5	0.1
0.01	1	0.522858557000291	1	46	NA	556.517273950001	0	0.44	4.29	1	554.008385803001	554.531244360001	"25"	24114.930087029	24108.173873605	1.5	0.1
0.01	1	0.531006772998808	1	46	NA	556.517273950001	0	0.44	4.29	1	554.759717450001	555.290724222999	"25"	24114.930087029	24108.173873605	1.5	0.1
0.01	1	0.988174759000685	2	46	NA	556.517273950001	0	0.44	4.29	1	555.527512799999	556.515687559	"25"	24114.930087029	24108.173873605	1.5	0.1
0.01	1	0.405009297999641	1	102	NA	577.580687015001	0	0.28	4.57	1	558.549314293003	558.954323591002	"26"	24114.930087029	24108.173873605	1.5	0.1
0.01	1	0.347612252000545	1	102	NA	577.580687015001	0	0.28	4.57	1	559.18377951	559.531391762001	"26"	24114.930087029	24108.173873605	1.5	0.1
0.01	1	0.394588220002333	1	102	NA	577.580687015001	0	0.28	4.57	1	559.768122078	560.162710298002	"26"	24114.930087029	24108.173873605	1.5	0.1
0.01	1	0.392754956999852	1	102	NA	577.580687015001	0	0.28	4.57	1	560.385708940001	560.778463897001	"26"	24114.930087029	24108.173873605	1.5	0.1
0.01	1	0.390402051998535	1	102	NA	577.580687015001	0	0.28	4.57	1	561.003467063001	561.393869115	"26"	24114.930087029	24108.173873605	1.5	0.1
0.01	1	0.398208789996715	1	102	NA	577.580687015001	0	0.28	4.57	1	561.621201313003	562.019410102999	"26"	24114.930087029	24108.173873605	1.5	0.1
0.01	1	0.395021421001729	1	102	NA	577.580687015001	0	0.28	4.57	1	562.25554785	562.650569271002	"26"	24114.930087029	24108.173873605	1.5	0.1
0.01	1	0.369919365999522	1	102	NA	577.580687015001	0	0.28	4.57	1	562.889965489001	563.259884855001	"26"	24114.930087029	24108.173873605	1.5	0.1
0.01	1	0.344099080000888	1	102	NA	577.580687015001	0	0.28	4.57	1	563.490913505	563.835012585001	"26"	24114.930087029	24108.173873605	1.5	0.1
0.01	1	0.463288579998334	1	102	NA	577.580687015001	0	0.28	4.57	1	564.058649710001	564.52193829	"26"	24114.930087029	24108.173873605	1.5	0.1
0.01	1	0.347972758001561	1	102	NA	577.580687015001	0	0.28	4.57	1	564.759822018001	565.107794776002	"26"	24114.930087029	24108.173873605	1.5	0.1
0.01	1	0.418171070999961	1	102	NA	577.580687015001	0	0.28	4.57	1	565.344180308002	565.762351379002	"26"	24114.930087029	24108.173873605	1.5	0.1
0.01	1	0.391070639001555	1	102	NA	577.580687015001	0	0.28	4.57	1	565.995200333	566.386270972002	"26"	24114.930087029	24108.173873605	1.5	0.1
0.01	1	0.477385211001092	1	102	NA	577.580687015001	0	0.28	4.57	1	566.612969858001	567.090355069002	"26"	24114.930087029	24108.173873605	1.5	0.1
0.01	1	0.45591584900103	1	102	NA	577.580687015001	0	0.28	4.57	1	567.314068863001	567.769984712002	"26"	24114.930087029	24108.173873605	1.5	0.1
0.01	1	0.469171988002927	1	102	NA	577.580687015001	0	0.28	4.57	1	567.998632524999	568.467804513002	"26"	24114.930087029	24108.173873605	1.5	0.1
0.01	1	0.463462943000195	1	102	NA	577.580687015001	0	0.28	4.57	1	568.699691405	569.163154348	"26"	24114.930087029	24108.173873605	1.5	0.1
0.01	1	0.450799821999681	1	102	NA	577.580687015001	0	0.28	4.57	1	569.400904613001	569.851704435001	"26"	24114.930087029	24108.173873605	1.5	0.1
0.01	1	0.484826470998087	1	102	NA	577.580687015001	0	0.28	4.57	1	570.085352303002	570.570178774	"26"	24114.930087029	24108.173873605	1.5	0.1
0.01	1	0.559611926997604	1	102	NA	577.580687015001	0	0.28	4.57	1	570.803301865002	571.362913792	"26"	24114.930087029	24108.173873605	1.5	0.1
0.01	1	0.517954402999749	1	102	NA	577.580687015001	0	0.28	4.57	1	571.587946453001	572.105900856001	"26"	24114.930087029	24108.173873605	1.5	0.1
0.01	1	0.424633713002549	1	102	NA	577.580687015001	0	0.28	4.57	1	572.339072855	572.763706568003	"26"	24114.930087029	24108.173873605	1.5	0.1
0.01	1	0.51728144200024	1	102	NA	577.580687015001	0	0.28	4.57	1	572.990338120002	573.507619562002	"26"	24114.930087029	24108.173873605	1.5	0.1
0.01	1	0.501748932001647	1	102	NA	577.580687015001	0	0.28	4.57	1	573.741546008001	574.243294940003	"26"	24114.930087029	24108.173873605	1.5	0.1
0.01	1	0.447238737000589	1	102	NA	577.580687015001	0	0.28	4.57	1	574.476128803002	574.923367540003	"26"	24114.930087029	24108.173873605	1.5	0.1
0.01	1	0.466810635000002	1	102	NA	577.580687015001	0	0.28	4.57	1	575.160589183	575.627399818	"26"	24114.930087029	24108.173873605	1.5	0.1
0.01	1	0.41254277400003	1	102	NA	577.580687015001	0	0.28	4.57	1	575.861868888001	576.274411662002	"26"	24114.930087029	24108.173873605	1.5	0.1
0.01	1	0.457348048003041	1	102	NA	577.580687015001	0	0.28	4.57	1	576.512892133	576.970240181003	"26"	24114.930087029	24108.173873605	1.5	0.1
0.01	1	0.381754375997843	2	102	NA	577.580687015001	0	0.28	4.57	1	577.197358140002	577.579112515999	"26"	24114.930087029	24108.173873605	1.5	0.1
0.01	1	0.456937137998466	1	120	NA	612.489420911003	0	0.43	5	1	579.634818383001	580.091755521	"27"	24114.930087029	24108.173873605	1.5	0.1
0.01	1	0.323805843003356	1	120	NA	612.489420911003	0	0.43	5	1	580.319229209999	580.643035053003	"27"	24114.930087029	24108.173873605	1.5	0.1
0.01	1	0.332087244001741	1	120	NA	612.489420911003	0	0.43	5	1	580.870197385	581.202284629002	"27"	24114.930087029	24108.173873605	1.5	0.1
0.01	1	0.292264960000466	1	120	NA	612.489420911003	0	0.43	5	1	581.437835594999	581.730100555	"27"	24114.930087029	24108.173873605	1.5	0.1
0.01	1	0.255403678998846	1	120	NA	612.489420911003	0	0.43	5	1	581.955352700003	582.210756379001	"27"	24114.930087029	24108.173873605	1.5	0.1
0.01	1	0.332026942000084	1	120	NA	612.489420911003	0	0.43	5	1	582.439563839001	582.771590781002	"27"	24114.930087029	24108.173873605	1.5	0.1
0.01	1	0.299011843999324	1	120	NA	612.489420911003	0	0.43	5	1	583.007114083	583.306125927	"27"	24114.930087029	24108.173873605	1.5	0.1
0.01	1	0.180462126001657	1	120	NA	612.489420911003	0	0.43	5	1	583.541371920001	583.721834046002	"27"	24114.930087029	24108.173873605	1.5	0.1
0.01	1	0.548219910997432	1	120	NA	612.489420911003	0	0.43	5	1	583.958826550002	584.507046461	"27"	24114.930087029	24108.173873605	1.5	0.1
0.01	1	0.292052724002133	1	120	NA	612.489420911003	0	0.43	5	1	584.743455843	585.035508567002	"27"	24114.930087029	24108.173873605	1.5	0.1
0.01	1	0.341687895001087	1	120	NA	612.489420911003	0	0.43	5	1	585.260909414999	585.60259731	"27"	24114.930087029	24108.173873605	1.5	0.1
0.01	1	0.70294233399909	1	120	NA	612.489420911003	0	0.43	5	1	585.828495268001	586.531437602	"27"	24114.930087029	24108.173873605	1.5	0.1
0.01	1	0.336002373001975	1	120	NA	612.489420911003	0	0.43	5	1	586.763546568	587.099548941002	"27"	24114.930087029	24108.173873605	1.5	0.1
0.01	1	3.54877871699864	1	120	NA	612.489420911003	0	0.43	5	1	587.331097803002	590.879876520001	"27"	24114.930087029	24108.173873605	1.5	0.1
0.01	1	0.439436081000167	1	120	NA	612.489420911003	0	0.43	5	1	591.120874798002	591.560310879002	"27"	24114.930087029	24108.173873605	1.5	0.1
0.01	1	0.556397075000859	1	120	NA	612.489420911003	0	0.43	5	1	591.788609078001	592.345006153002	"27"	24114.930087029	24108.173873605	1.5	0.1
0.01	1	0.554784800999187	1	120	NA	612.489420911003	0	0.43	5	1	592.573357003002	593.128141804002	"27"	24114.930087029	24108.173873605	1.5	0.1
0.01	1	0.537708923002356	1	120	NA	612.489420911003	0	0.43	5	1	593.357889298	593.895598221003	"27"	24114.930087029	24108.173873605	1.5	0.1
0.01	1	0.530709860999195	1	120	NA	612.489420911003	0	0.43	5	1	594.125891258002	594.656601119001	"27"	24114.930087029	24108.173873605	1.5	0.1
0.01	1	0.499210981000942	1	120	NA	612.489420911003	0	0.43	5	1	594.893793805	595.393004786001	"27"	24114.930087029	24108.173873605	1.5	0.1
0.01	1	0.412433184999827	1	120	NA	612.489420911003	0	0.43	5	1	595.628377208002	596.040810393002	"27"	24114.930087029	24108.173873605	1.5	0.1
0.01	1	0.488095085998793	1	120	NA	612.489420911003	0	0.43	5	1	596.279548703002	596.767643789	"27"	24114.930087029	24108.173873605	1.5	0.1
0.01	1	0.531917478998366	1	120	NA	612.489420911003	0	0.43	5	1	596.997357018001	597.529274496999	"27"	24114.930087029	24108.173873605	1.5	0.1
0.01	1	0.314545123997959	1	120	NA	612.489420911003	0	0.43	5	1	597.765373763003	598.079918887001	"27"	24114.930087029	24108.173873605	1.5	0.1
0.01	1	0.500601804997132	1	120	NA	612.489420911003	0	0.43	5	1	598.316283513002	598.816885318	"27"	24114.930087029	24108.173873605	1.5	0.1
0.01	1	0.421871182999894	1	120	NA	612.489420911003	0	0.43	5	1	599.050719520001	599.472590703001	"27"	24114.930087029	24108.173873605	1.5	0.1
0.01	1	0.507032196997898	1	120	NA	612.489420911003	0	0.43	5	1	599.701908793002	600.20894099	"27"	24114.930087029	24108.173873605	1.5	0.1
0.01	1	0.508892846999515	1	120	NA	612.489420911003	0	0.43	5	1	600.436445138002	600.945337985002	"27"	24114.930087029	24108.173873605	1.5	0.1
0.01	1	0.405120964998787	1	120	NA	612.489420911003	0	0.43	5	1	601.171032263002	601.576153228001	"27"	24114.930087029	24108.173873605	1.5	0.1
0.01	1	0.48373262899986	1	120	NA	612.489420911003	0	0.43	5	1	601.805439783002	602.289172412002	"27"	24114.930087029	24108.173873605	1.5	0.1
0.01	1	0.493673249999119	1	120	NA	612.489420911003	0	0.43	5	1	602.523300553003	603.016973803002	"27"	24114.930087029	24108.173873605	1.5	0.1
0.01	1	0.487401433998457	1	120	NA	612.489420911003	0	0.43	5	1	603.241189888002	603.728591322	"27"	24114.930087029	24108.173873605	1.5	0.1
0.01	1	0.480419062998408	1	120	NA	612.489420911003	0	0.43	5	1	603.959060470002	604.439479533001	"27"	24114.930087029	24108.173873605	1.5	0.1
0.01	1	0.586419975999888	1	120	NA	612.489420911003	0	0.43	5	1	604.676917033001	605.263337009001	"27"	24114.930087029	24108.173873605	1.5	0.1
0.01	1	0.4580466970001	1	120	NA	612.489420911003	0	0.43	5	1	605.495032169001	605.953078866001	"27"	24114.930087029	24108.173873605	1.5	0.1
0.01	1	0.533143193999422	1	120	NA	612.489420911003	0	0.43	5	1	606.179415068	606.712558261999	"27"	24114.930087029	24108.173873605	1.5	0.1
0.01	1	0.483766307999758	1	120	NA	612.489420911003	0	0.43	5	1	606.947453178	607.431219485999	"27"	24114.930087029	24108.173873605	1.5	0.1
0.01	1	0.487651465999079	1	120	NA	612.489420911003	0	0.43	5	1	607.66532892	608.152980385999	"27"	24114.930087029	24108.173873605	1.5	0.1
0.01	1	0.514080508000916	1	120	NA	612.489420911003	0	0.43	5	1	608.383183898	608.897264406001	"27"	24114.930087029	24108.173873605	1.5	0.1
0.01	1	0.61679382100192	1	120	NA	612.489420911003	0	0.43	5	1	609.134394245	609.751188066002	"27"	24114.930087029	24108.173873605	1.5	0.1
0.01	1	0.413734829999157	1	120	NA	612.489420911003	0	0.43	5	1	609.985853990001	610.399588820001	"27"	24114.930087029	24108.173873605	1.5	0.1
0.01	1	0.474420913997164	1	120	NA	612.489420911003	0	0.43	5	1	610.637011238003	611.111432152	"27"	24114.930087029	24108.173873605	1.5	0.1
0.01	1	0.533462625000539	1	120	NA	612.489420911003	0	0.43	5	1	611.338126787999	611.871589413	"27"	24114.930087029	24108.173873605	1.5	0.1
0.01	1	0.381647146998148	2	120	NA	612.489420911003	0	0.43	5	1	612.106113493002	612.48776064	"27"	24114.930087029	24108.173873605	1.5	0.1
0.01	1	0.281114006997086	1	44	644.66470125	NA	1	0	5	1	614.526937598002	614.808051604999	"28"	24114.930087029	24108.173873605	1.5	0.1
0.01	1	0.459721357001399	1	44	644.66470125	NA	1	0	5	1	615.044391168001	615.504112525003	"28"	24114.930087029	24108.173873605	1.5	0.1
0.01	1	0.407973928999127	1	44	644.66470125	NA	1	0	5	1	615.728827163002	616.136801092001	"28"	24114.930087029	24108.173873605	1.5	0.1
0.01	1	0.444777199998498	1	44	644.66470125	NA	1	0	5	1	616.363398343001	616.808175542999	"28"	24114.930087029	24108.173873605	1.5	0.1
0.01	1	0.489283920000162	1	44	644.66470125	NA	1	0	5	1	617.031067290001	617.520351210002	"28"	24114.930087029	24108.173873605	1.5	0.1
0.01	1	0.434738775998994	1	44	644.66470125	NA	1	0	5	1	617.748882300002	618.183621076001	"28"	24114.930087029	24108.173873605	1.5	0.1
0.01	1	0.400364888002514	1	44	644.66470125	NA	1	0	5	1	618.416688038	618.817052926002	"28"	24114.930087029	24108.173873605	1.5	0.1
0.01	1	0.461198097000306	1	44	644.66470125	NA	1	0	5	1	619.051048318001	619.512246415001	"28"	24114.930087029	24108.173873605	1.5	0.1
0.01	1	0.401646852002159	1	44	644.66470125	NA	1	0	5	1	619.735542873001	620.137189725003	"28"	24114.930087029	24108.173873605	1.5	0.1
0.01	1	0.431348443002207	1	44	644.66470125	NA	1	0	5	1	620.369975178	620.801323621003	"28"	24114.930087029	24108.173873605	1.5	0.1
0.01	1	0.449453198998526	1	44	644.66470125	NA	1	0	5	1	621.037765018002	621.487218217	"28"	24114.930087029	24108.173873605	1.5	0.1
0.01	1	0.54112684699794	1	44	644.66470125	NA	1	0	5	1	621.722266463003	622.263393310001	"28"	24114.930087029	24108.173873605	1.5	0.1
0.01	1	0.509072340002604	1	44	644.66470125	NA	1	0	5	1	622.490221497999	622.999293838002	"28"	24114.930087029	24108.173873605	1.5	0.1
0.01	1	0.583594743002323	1	44	644.66470125	NA	1	0	5	1	623.224746893	623.808341636002	"28"	24114.930087029	24108.173873605	1.5	0.1
0.01	1	0.38189024500025	1	44	644.66470125	NA	1	0	5	1	624.042813773001	624.424704018002	"28"	24114.930087029	24108.173873605	1.5	0.1
0.01	1	0.419170283999847	1	44	644.66470125	NA	1	0	5	1	624.660586513	625.079756797	"28"	24114.930087029	24108.173873605	1.5	0.1
0.01	1	0.512554684999486	1	44	644.66470125	NA	1	0	5	1	625.311618803	625.824173487999	"28"	24114.930087029	24108.173873605	1.5	0.1
0.01	1	0.385064398000395	1	44	644.66470125	NA	1	0	5	1	626.046282228002	626.431346626003	"28"	24114.930087029	24108.173873605	1.5	0.1
0.01	1	0.568446654997388	1	44	644.66470125	NA	1	0	5	1	626.663972213002	627.232418868	"28"	24114.930087029	24108.173873605	1.5	0.1
0.01	1	0.398767735001456	1	44	644.66470125	NA	1	0	5	1	627.465325303001	627.864093038002	"28"	24114.930087029	24108.173873605	1.5	0.1
0.01	1	0.436195266000141	1	44	644.66470125	NA	1	0	5	1	628.099665319001	628.535860585002	"28"	24114.930087029	24108.173873605	1.5	0.1
0.01	1	0.41681835000054	1	44	644.66470125	NA	1	0	5	1	628.767446193	629.184264543001	"28"	24114.930087029	24108.173873605	1.5	0.1
0.01	1	0.381494064000435	1	44	644.66470125	NA	1	0	5	1	629.418639356001	629.800133420002	"28"	24114.930087029	24108.173873605	1.5	0.1
0.01	1	0.444763160998264	1	44	644.66470125	NA	1	0	5	1	630.036204650001	630.480967811	"28"	24114.930087029	24108.173873605	1.5	0.1
0.01	1	0.391834367997944	1	44	644.66470125	NA	1	0	5	1	630.720733728002	631.112568095999	"28"	24114.930087029	24108.173873605	1.5	0.1
0.01	1	0.38911970800109	1	44	644.66470125	NA	1	0	5	1	631.338502333001	631.727622041002	"28"	24114.930087029	24108.173873605	1.5	0.1
0.01	1	0.541086666002229	1	44	644.66470125	NA	1	0	5	1	631.956225995	632.497312661002	"28"	24114.930087029	24108.173873605	1.5	0.1
0.01	1	0.507944672001031	1	44	644.66470125	NA	1	0	5	1	632.724040223002	633.231984895003	"28"	24114.930087029	24108.173873605	1.5	0.1
0.01	1	0.509046267001395	1	44	644.66470125	NA	1	0	5	1	633.458619692999	633.967665960001	"28"	24114.930087029	24108.173873605	1.5	0.1
0.01	1	0.480075436000334	1	44	644.66470125	NA	1	0	5	1	634.193251678	634.673327114	"28"	24114.930087029	24108.173873605	1.5	0.1
0.01	1	0.416283669001132	1	44	644.66470125	NA	1	0	5	1	634.911070067999	635.327353737001	"28"	24114.930087029	24108.173873605	1.5	0.1
0.01	1	0.44540174299982	1	44	644.66470125	NA	1	0	5	1	635.562231428001	636.007633171001	"28"	24114.930087029	24108.173873605	1.5	0.1
0.01	1	0.498436581001442	1	44	644.66470125	NA	1	0	5	1	636.230025864999	636.728462446001	"28"	24114.930087029	24108.173873605	1.5	0.1
0.01	1	0.419145405001473	1	44	644.66470125	NA	1	0	5	1	636.964602983	637.383748388002	"28"	24114.930087029	24108.173873605	1.5	0.1
0.01	1	0.560863015001814	1	44	644.66470125	NA	1	0	5	1	637.615682830001	638.176545845003	"28"	24114.930087029	24108.173873605	1.5	0.1
0.01	1	0.471178023999528	1	44	644.66470125	NA	1	0	5	1	638.416940553001	638.888118577001	"28"	24114.930087029	24108.173873605	1.5	0.1
0.01	1	0.440947545001109	1	44	644.66470125	NA	1	0	5	1	639.118241058	639.559188603002	"28"	24114.930087029	24108.173873605	1.5	0.1
0.01	1	0.50141059699672	1	44	644.66470125	NA	1	0	5	1	639.785919158003	640.287329755	"28"	24114.930087029	24108.173873605	1.5	0.1
0.01	1	0.480193665000115	1	44	644.66470125	NA	1	0	5	1	640.520534867999	641.000728532999	"28"	24114.930087029	24108.173873605	1.5	0.1
0.01	1	0.448689479999302	1	44	644.66470125	NA	1	0	5	1	641.238468898002	641.687158378001	"28"	24114.930087029	24108.173873605	1.5	0.1
0.01	1	0.556645458000276	1	44	644.66470125	NA	1	0	5	1	641.922838473001	642.479483931002	"28"	24114.930087029	24108.173873605	1.5	0.1
0.01	1	0.405293314997834	1	44	644.66470125	NA	1	0	5	1	642.707572138002	643.112865453	"28"	24114.930087029	24108.173873605	1.5	0.1
0.01	1	0.545401939998555	1	44	644.66470125	NA	1	0	5	1	643.341930668001	643.887332607999	"28"	24114.930087029	24108.173873605	1.5	0.1
0.01	1	0.425134160999733	1	44	644.66470125	NA	1	0	5	1	644.126564045	644.551698206	"28"	24114.930087029	24108.173873605	1.5	0.1
0.01	1	0.334612545000709	1	75	NA	657.390302332002	0	0.12	5.12	1	646.697610373001	647.032222918002	"29"	24114.930087029	24108.173873605	1.5	0.1
0.01	1	0.358727132999775	1	75	NA	657.390302332002	0	0.12	5.12	1	647.265172088002	647.623899221002	"29"	24114.930087029	24108.173873605	1.5	0.1
0.01	1	0.414051607000147	1	75	NA	657.390302332002	0	0.12	5.12	1	647.849545397999	648.263597005	"29"	24114.930087029	24108.173873605	1.5	0.1
0.01	1	0.266937772998062	1	75	NA	657.390302332002	0	0.12	5.12	1	648.500617943002	648.767555716	"29"	24114.930087029	24108.173873605	1.5	0.1
0.01	1	0.326613157998509	1	75	NA	657.390302332002	0	0.12	5.12	1	649.001463570003	649.328076728001	"29"	24114.930087029	24108.173873605	1.5	0.1
0.01	1	0.399901591001253	1	75	NA	657.390302332002	0	0.12	5.12	1	649.552399073	649.952300664001	"29"	24114.930087029	24108.173873605	1.5	0.1
0.01	1	0.332937915001821	1	75	NA	657.390302332002	0	0.12	5.12	1	650.186765348	650.519703263002	"29"	24114.930087029	24108.173873605	1.5	0.1
0.01	1	0.36549644799743	1	75	NA	657.390302332002	0	0.12	5.12	1	650.754401320002	651.119897768	"29"	24114.930087029	24108.173873605	1.5	0.1
0.01	1	0.39635265400284	1	75	NA	657.390302332002	0	0.12	5.12	1	651.355496908	651.751849562002	"29"	24114.930087029	24108.173873605	1.5	0.1
0.01	1	0.506497772999865	1	75	NA	657.390302332002	0	0.12	5.12	1	651.989850885002	652.496348658002	"29"	24114.930087029	24108.173873605	1.5	0.1
0.01	1	0.363942809999571	1	75	NA	657.390302332002	0	0.12	5.12	1	652.724470888003	653.088413698002	"29"	24114.930087029	24108.173873605	1.5	0.1
0.01	1	3.08219334400201	1	75	NA	657.390302332002	0	0.12	5.12	1	653.325487093	656.407680437002	"29"	24114.930087029	24108.173873605	1.5	0.1
0.01	1	0.740930333002325	2	75	NA	657.390302332002	0	0.12	5.12	1	656.647800028	657.388730361003	"29"	24114.930087029	24108.173873605	1.5	0.1
0.01	1	0.00406849300270551	1	61	NA	685.297607140001	0	0.38	5.5	1	659.418953318	659.423021811002	"30"	24114.930087029	24108.173873605	1.5	0.1
0.01	1	0.178760406000947	1	61	NA	685.297607140001	0	0.38	5.5	1	659.652725503001	659.831485909002	"30"	24114.930087029	24108.173873605	1.5	0.1
0.01	1	0.371123131000786	1	61	NA	685.297607140001	0	0.38	5.5	1	660.070097693002	660.441220824003	"30"	24114.930087029	24108.173873605	1.5	0.1
0.01	1	0.409999737999897	1	61	NA	685.297607140001	0	0.38	5.5	1	660.671057890002	661.081057628002	"30"	24114.930087029	24108.173873605	1.5	0.1
0.01	1	0.382243633997859	1	61	NA	685.297607140001	0	0.38	5.5	1	661.305582413002	661.687826047	"30"	24114.930087029	24108.173873605	1.5	0.1
0.01	1	0.476634635000664	1	61	NA	685.297607140001	0	0.38	5.5	1	661.923170803002	662.399805438003	"30"	24114.930087029	24108.173873605	1.5	0.1
0.01	1	0.359654118001345	1	61	NA	685.297607140001	0	0.38	5.5	1	662.624443190001	662.984097308003	"30"	24114.930087029	24108.173873605	1.5	0.1
0.01	1	0.360134470996854	1	61	NA	685.297607140001	0	0.38	5.5	1	663.208791200002	663.568925670999	"30"	24114.930087029	24108.173873605	1.5	0.1
0.01	1	0.495602680002776	1	61	NA	685.297607140001	0	0.38	5.5	1	663.8096926	664.305295280003	"30"	24114.930087029	24108.173873605	1.5	0.1
0.01	1	0.545274067997525	1	61	NA	685.297607140001	0	0.38	5.5	1	664.527566748002	665.072840815999	"30"	24114.930087029	24108.173873605	1.5	0.1
0.01	1	0.473775538001064	1	61	NA	685.297607140001	0	0.38	5.5	1	665.295472168	665.769247706001	"30"	24114.930087029	24108.173873605	1.5	0.1
0.01	1	0.562979695998365	1	61	NA	685.297607140001	0	0.38	5.5	1	665.996629918001	666.559609614	"30"	24114.930087029	24108.173873605	1.5	0.1
0.01	1	0.465602815002057	1	61	NA	685.297607140001	0	0.38	5.5	1	666.798152183001	667.263754998003	"30"	24114.930087029	24108.173873605	1.5	0.1
0.01	1	0.517807869000535	1	61	NA	685.297607140001	0	0.38	5.5	1	667.499172688	668.016980557	"30"	24114.930087029	24108.173873605	1.5	0.1
0.01	1	0.525124173000222	1	61	NA	685.297607140001	0	0.38	5.5	1	668.250438998002	668.775563171002	"30"	24114.930087029	24108.173873605	1.5	0.1
0.01	1	0.519226908996643	1	61	NA	685.297607140001	0	0.38	5.5	1	669.001775029003	669.521001937999	"30"	24114.930087029	24108.173873605	1.5	0.1
0.01	1	0.50269679199846	1	61	NA	685.297607140001	0	0.38	5.5	1	669.753097148001	670.255793939999	"30"	24114.930087029	24108.173873605	1.5	0.1
0.01	1	0.52791946400248	1	61	NA	685.297607140001	0	0.38	5.5	1	670.487619457999	671.015538922002	"30"	24114.930087029	24108.173873605	1.5	0.1
0.01	1	0.512626618998183	1	61	NA	685.297607140001	0	0.38	5.5	1	671.238890330002	671.751516949	"30"	24114.930087029	24108.173873605	1.5	0.1
0.01	1	0.467693775000953	1	61	NA	685.297607140001	0	0.38	5.5	1	671.973468420001	672.441162195002	"30"	24114.930087029	24108.173873605	1.5	0.1
0.01	1	0.486414993996732	1	61	NA	685.297607140001	0	0.38	5.5	1	672.674666418003	673.161081411999	"30"	24114.930087029	24108.173873605	1.5	0.1
0.01	1	0.464053025003523	1	61	NA	685.297607140001	0	0.38	5.5	1	673.392607002999	673.856660028003	"30"	24114.930087029	24108.173873605	1.5	0.1
0.01	1	0.401562027000182	1	61	NA	685.297607140001	0	0.38	5.5	1	674.093677807999	674.495239835	"30"	24114.930087029	24108.173873605	1.5	0.1
0.01	1	0.400763713998458	1	61	NA	685.297607140001	0	0.38	5.5	1	674.728141225001	675.128904939	"30"	24114.930087029	24108.173873605	1.5	0.1
0.01	1	0.397204621000128	1	61	NA	685.297607140001	0	0.38	5.5	1	675.362494983001	675.759699604001	"30"	24114.930087029	24108.173873605	1.5	0.1
0.01	1	0.498648840999522	1	61	NA	685.297607140001	0	0.38	5.5	1	675.996881408002	676.495530249002	"30"	24114.930087029	24108.173873605	1.5	0.1
0.01	1	0.484249502002058	1	61	NA	685.297607140001	0	0.38	5.5	1	676.731448959999	677.215698462001	"30"	24114.930087029	24108.173873605	1.5	0.1
0.01	1	0.438083956996707	1	61	NA	685.297607140001	0	0.38	5.5	1	677.449227266003	677.887311222999	"30"	24114.930087029	24108.173873605	1.5	0.1
0.01	1	0.402722880997317	1	61	NA	685.297607140001	0	0.38	5.5	1	678.117061192002	678.519784073	"30"	24114.930087029	24108.173873605	1.5	0.1
0.01	1	0.439940511998429	1	61	NA	685.297607140001	0	0.38	5.5	1	678.751477453003	679.191417965001	"30"	24114.930087029	24108.173873605	1.5	0.1
0.01	1	0.55770133599799	1	61	NA	685.297607140001	0	0.38	5.5	1	679.419330838002	679.977032174	"30"	24114.930087029	24108.173873605	1.5	0.1
0.01	1	0.515440694001882	1	61	NA	685.297607140001	0	0.38	5.5	1	680.204089053001	680.719529747003	"30"	24114.930087029	24108.173873605	1.5	0.1
0.01	1	0.412471818002814	1	61	NA	685.297607140001	0	0.38	5.5	1	680.955254703	681.367726521003	"30"	24114.930087029	24108.173873605	1.5	0.1
0.01	1	0.465966788000514	1	61	NA	685.297607140001	0	0.38	5.5	1	681.589588588002	682.055555376002	"30"	24114.930087029	24108.173873605	1.5	0.1
0.01	1	0.446051364000596	1	61	NA	685.297607140001	0	0.38	5.5	1	682.290808088001	682.736859452001	"30"	24114.930087029	24108.173873605	1.5	0.1
0.01	1	0.432824030001939	1	61	NA	685.297607140001	0	0.38	5.5	1	682.975245088001	683.408069118002	"30"	24114.930087029	24108.173873605	1.5	0.1
0.01	1	0.436395164997521	1	61	NA	685.297607140001	0	0.38	5.5	1	683.643135673003	684.079530838	"30"	24114.930087029	24108.173873605	1.5	0.1
0.01	1	0.433930971998052	1	61	NA	685.297607140001	0	0.38	5.5	1	684.310881690002	684.744812662	"30"	24114.930087029	24108.173873605	1.5	0.1
0.01	1	0.31732844400176	2	61	NA	685.297607140001	0	0.38	5.5	1	684.978696373	685.296024817002	"30"	24114.930087029	24108.173873605	1.5	0.1
