"payoff.level"	"balloon"	"rt"	"resp"	"explode.trial"	"explode.time"	"finish.time"	"exploded"	"trial.total"	"cumulative.total"	"finished"	"trial.start"	"trial.end"	"trial.num"	"secs"	"start.time"	"iti"	"isi"
0.01	1	1.67945870200492	1	64	NA	21.8045597680029	0	0.1	0.1	1	0.018709759999183	1.69816846200411	"1"	47812.147907512	47087.713738811	1.5	0.1
0.01	1	1.83582274599758	1	64	NA	21.8045597680029	0	0.1	0.1	1	2.05535939400579	3.89118214000337	"1"	47812.147907512	47087.713738811	1.5	0.1
0.01	1	1.22912199499842	1	64	NA	21.8045597680029	0	0.1	0.1	1	4.12555880300351	5.35468079800194	"1"	47812.147907512	47087.713738811	1.5	0.1
0.01	1	2.15930274299899	1	64	NA	21.8045597680029	0	0.1	0.1	1	5.59473470500234	7.75403744800133	"1"	47812.147907512	47087.713738811	1.5	0.1
0.01	1	1.75594700000511	1	64	NA	21.8045597680029	0	0.1	0.1	1	7.98207559000002	9.73802259000513	"1"	47812.147907512	47087.713738811	1.5	0.1
0.01	1	1.32926588499686	1	64	NA	21.8045597680029	0	0.1	0.1	1	9.96879840300244	11.2980642879993	"1"	47812.147907512	47087.713738811	1.5	0.1
0.01	1	1.48014979500294	1	64	NA	21.8045597680029	0	0.1	0.1	1	11.5213690780001	13.0015188730031	"1"	47812.147907512	47087.713738811	1.5	0.1
0.01	1	1.29766425800335	1	64	NA	21.8045597680029	0	0.1	0.1	1	13.241076338003	14.5387405960064	"1"	47812.147907512	47087.713738811	1.5	0.1
0.01	1	1.61798381600238	1	64	NA	21.8045597680029	0	0.1	0.1	1	14.7770234580021	16.3950072740045	"1"	47812.147907512	47087.713738811	1.5	0.1
0.01	1	1.30069250200177	1	64	NA	21.8045597680029	0	0.1	0.1	1	16.6300828500025	17.9307753520043	"1"	47812.147907512	47087.713738811	1.5	0.1
0.01	1	3.63690988100279	2	64	NA	21.8045597680029	0	0.1	0.1	1	18.1659471849998	21.8028570660026	"1"	47812.147907512	47087.713738811	1.5	0.1
0.01	1	1.72707893700135	1	102	NA	55.3489045230017	0	0.2	0.3	1	23.8587547429997	25.5858336800011	"2"	47812.147907512	47087.713738811	1.5	0.1
0.01	1	1.16625890199794	1	102	NA	55.3489045230017	0	0.2	0.3	1	25.8120928650023	26.9783517670003	"2"	47812.147907512	47087.713738811	1.5	0.1
0.01	1	1.04418036300194	1	102	NA	55.3489045230017	0	0.2	0.3	1	27.2145293830035	28.2587097460055	"2"	47812.147907512	47087.713738811	1.5	0.1
0.01	1	1.04648386799818	1	102	NA	55.3489045230017	0	0.2	0.3	1	28.4832991630028	29.529783031001	"2"	47812.147907512	47087.713738811	1.5	0.1
0.01	1	1.05793559000449	1	102	NA	55.3489045230017	0	0.2	0.3	1	29.7521000580018	30.8100356480063	"2"	47812.147907512	47087.713738811	1.5	0.1
0.01	1	1.05275764800172	1	102	NA	55.3489045230017	0	0.2	0.3	1	31.0376280080018	32.0903856560035	"2"	47812.147907512	47087.713738811	1.5	0.1
0.01	1	1.11862762799865	1	102	NA	55.3489045230017	0	0.2	0.3	1	32.3231161280055	33.4417437560041	"2"	47812.147907512	47087.713738811	1.5	0.1
0.01	1	1.07851721099723	1	102	NA	55.3489045230017	0	0.2	0.3	1	33.6754924030029	34.7540096140001	"2"	47812.147907512	47087.713738811	1.5	0.1
0.01	1	1.14570503999857	1	102	NA	55.3489045230017	0	0.2	0.3	1	34.9775224230034	36.123227463002	"2"	47812.147907512	47087.713738811	1.5	0.1
0.01	1	1.2152149149988	1	102	NA	55.3489045230017	0	0.2	0.3	1	36.3632377350004	37.5784526499992	"2"	47812.147907512	47087.713738811	1.5	0.1
0.01	1	1.22745680099615	1	102	NA	55.3489045230017	0	0.2	0.3	1	37.8155947530031	39.0430515539992	"2"	47812.147907512	47087.713738811	1.5	0.1
0.01	1	1.10262812800647	1	102	NA	55.3489045230017	0	0.2	0.3	1	39.2680665459993	40.3706946740058	"2"	47812.147907512	47087.713738811	1.5	0.1
0.01	1	1.03123465899989	1	102	NA	55.3489045230017	0	0.2	0.3	1	40.6037184080051	41.634953067005	"2"	47812.147907512	47087.713738811	1.5	0.1
0.01	1	1.08111503200053	1	102	NA	55.3489045230017	0	0.2	0.3	1	41.8724735380019	42.9535885700025	"2"	47812.147907512	47087.713738811	1.5	0.1
0.01	1	0.922123778000241	1	102	NA	55.3489045230017	0	0.2	0.3	1	43.1915197330018	44.113643511002	"2"	47812.147907512	47087.713738811	1.5	0.1
0.01	1	4.97153462799906	1	102	NA	55.3489045230017	0	0.2	0.3	1	44.343444185004	49.3149788130031	"2"	47812.147907512	47087.713738811	1.5	0.1
0.01	1	0.778386914003931	1	102	NA	55.3489045230017	0	0.2	0.3	1	49.5519580330001	50.3303449470041	"2"	47812.147907512	47087.713738811	1.5	0.1
0.01	1	0.681149202995584	1	102	NA	55.3489045230017	0	0.2	0.3	1	50.5537459430052	51.2348951460008	"2"	47812.147907512	47087.713738811	1.5	0.1
0.01	1	0.609657741006231	1	102	NA	55.3489045230017	0	0.2	0.3	1	51.4718759099997	52.0815336510059	"2"	47812.147907512	47087.713738811	1.5	0.1
0.01	1	0.592279099000734	1	102	NA	55.3489045230017	0	0.2	0.3	1	52.3067151530049	52.8989942520057	"2"	47812.147907512	47087.713738811	1.5	0.1
0.01	1	2.22243810000509	2	102	NA	55.3489045230017	0	0.2	0.3	1	53.1247754680007	55.3472135680058	"2"	47812.147907512	47087.713738811	1.5	0.1
0.01	1	1.53210702800425	1	97	NA	93.5163629460003	0	0.3	0.6	1	57.3986070739993	58.9307141020035	"3"	47812.147907512	47087.713738811	1.5	0.1
0.01	1	0.64181039200048	1	97	NA	93.5163629460003	0	0.3	0.6	1	59.1682214050015	59.810031797002	"3"	47812.147907512	47087.713738811	1.5	0.1
0.01	1	0.566805394999392	1	97	NA	93.5163629460003	0	0.3	0.6	1	60.0364057230036	60.6032111180029	"3"	47812.147907512	47087.713738811	1.5	0.1
0.01	1	0.635785956998006	1	97	NA	93.5163629460003	0	0.3	0.6	1	60.8376415650055	61.4734275220035	"3"	47812.147907512	47087.713738811	1.5	0.1
0.01	1	0.632511907002481	1	97	NA	93.5163629460003	0	0.3	0.6	1	61.7058585150007	62.3383704220032	"3"	47812.147907512	47087.713738811	1.5	0.1
0.01	1	0.580912445999274	1	97	NA	93.5163629460003	0	0.3	0.6	1	62.5740158680055	63.1549283140048	"3"	47812.147907512	47087.713738811	1.5	0.1
0.01	1	0.649688195000635	1	97	NA	93.5163629460003	0	0.3	0.6	1	63.3920413980013	64.0417295930019	"3"	47812.147907512	47087.713738811	1.5	0.1
0.01	1	0.59062918699783	1	97	NA	93.5163629460003	0	0.3	0.6	1	64.2767646220018	64.8673938089996	"3"	47812.147907512	47087.713738811	1.5	0.1
0.01	1	0.667752230998303	1	97	NA	93.5163629460003	0	0.3	0.6	1	65.0949581080058	65.7627103390041	"3"	47812.147907512	47087.713738811	1.5	0.1
0.01	1	0.662637588000507	1	97	NA	93.5163629460003	0	0.3	0.6	1	65.9963951350001	66.6590327230006	"3"	47812.147907512	47087.713738811	1.5	0.1
0.01	1	0.809233029001916	1	97	NA	93.5163629460003	0	0.3	0.6	1	66.8812227529997	67.6904557820017	"3"	47812.147907512	47087.713738811	1.5	0.1
0.01	1	0.733906601002673	1	97	NA	93.5163629460003	0	0.3	0.6	1	67.9164017229996	68.6503083240023	"3"	47812.147907512	47087.713738811	1.5	0.1
0.01	1	0.774857167001755	1	97	NA	93.5163629460003	0	0.3	0.6	1	68.884605295003	69.6594624620047	"3"	47812.147907512	47087.713738811	1.5	0.1
0.01	1	0.651348302999395	1	97	NA	93.5163629460003	0	0.3	0.6	1	69.886281293002	70.5376295960014	"3"	47812.147907512	47087.713738811	1.5	0.1
0.01	1	0.687818819002132	1	97	NA	93.5163629460003	0	0.3	0.6	1	70.7710656630006	71.4588844820028	"3"	47812.147907512	47087.713738811	1.5	0.1
0.01	1	0.688462594000157	1	97	NA	93.5163629460003	0	0.3	0.6	1	71.6894176030037	72.3778801970038	"3"	47812.147907512	47087.713738811	1.5	0.1
0.01	1	0.834613823994005	1	97	NA	93.5163629460003	0	0.3	0.6	1	72.6074923180058	73.4421061419998	"3"	47812.147907512	47087.713738811	1.5	0.1
0.01	1	0.822262640002009	1	97	NA	93.5163629460003	0	0.3	0.6	1	73.6759937930037	74.4982564330057	"3"	47812.147907512	47087.713738811	1.5	0.1
0.01	1	0.65041396900051	1	97	NA	93.5163629460003	0	0.3	0.6	1	74.7277731930008	75.3781871620013	"3"	47812.147907512	47087.713738811	1.5	0.1
0.01	1	0.724968315997103	1	97	NA	93.5163629460003	0	0.3	0.6	1	75.6126135610029	76.337581877	"3"	47812.147907512	47087.713738811	1.5	0.1
0.01	1	1.6699243969997	1	97	NA	93.5163629460003	0	0.3	0.6	1	76.5642305960064	78.2341549930061	"3"	47812.147907512	47087.713738811	1.5	0.1
0.01	1	0.575051508996694	1	97	NA	93.5163629460003	0	0.3	0.6	1	78.4674676530049	79.0425191620016	"3"	47812.147907512	47087.713738811	1.5	0.1
0.01	1	0.68615597000462	1	97	NA	93.5163629460003	0	0.3	0.6	1	79.268813267001	79.9549692370056	"3"	47812.147907512	47087.713738811	1.5	0.1
0.01	1	0.670680290000746	1	97	NA	93.5163629460003	0	0.3	0.6	1	80.1869733380008	80.8576536280016	"3"	47812.147907512	47087.713738811	1.5	0.1
0.01	1	0.554440503001388	1	97	NA	93.5163629460003	0	0.3	0.6	1	81.088560655	81.6430011580014	"3"	47812.147907512	47087.713738811	1.5	0.1
0.01	1	2.18475766199845	1	97	NA	93.5163629460003	0	0.3	0.6	1	81.8732596940026	84.0580173560011	"3"	47812.147907512	47087.713738811	1.5	0.1
0.01	1	0.4129620599997	1	97	NA	93.5163629460003	0	0.3	0.6	1	84.2939692250002	84.7069312849999	"3"	47812.147907512	47087.713738811	1.5	0.1
0.01	1	0.498362933998578	1	97	NA	93.5163629460003	0	0.3	0.6	1	84.9449592480014	85.443322182	"3"	47812.147907512	47087.713738811	1.5	0.1
0.01	1	0.578845101998013	1	97	NA	93.5163629460003	0	0.3	0.6	1	85.6795453430022	86.2583904450003	"3"	47812.147907512	47087.713738811	1.5	0.1
0.01	1	0.689264330001606	1	97	NA	93.5163629460003	0	0.3	0.6	1	86.4809838150031	87.1702481450047	"3"	47812.147907512	47087.713738811	1.5	0.1
0.01	1	6.11555685599888	2	97	NA	93.5163629460003	0	0.3	0.6	1	87.3990979930022	93.5146548490011	"3"	47812.147907512	47087.713738811	1.5	0.1
0.01	1	0.81556048400671	1	51	NA	136.531201320002	0	0.42	1.02	1	95.5628788899994	96.3784393740061	"4"	47812.147907512	47087.713738811	1.5	0.1
0.01	1	0.532606318003673	1	51	NA	136.531201320002	0	0.42	1.02	1	96.6146560880006	97.1472624060043	"4"	47812.147907512	47087.713738811	1.5	0.1
0.01	1	0.467818716999318	1	51	NA	136.531201320002	0	0.42	1.02	1	97.382458525004	97.8502772420034	"4"	47812.147907512	47087.713738811	1.5	0.1
0.01	1	0.45383697500074	1	51	NA	136.531201320002	0	0.42	1.02	1	98.0837959980054	98.5376329730061	"4"	47812.147907512	47087.713738811	1.5	0.1
0.01	1	0.513325544998224	1	51	NA	136.531201320002	0	0.42	1.02	1	98.7682440630015	99.2815696079997	"4"	47812.147907512	47087.713738811	1.5	0.1
0.01	1	0.434987585998897	1	51	NA	136.531201320002	0	0.42	1.02	1	99.5194869330007	99.9544745189996	"4"	47812.147907512	47087.713738811	1.5	0.1
0.01	1	0.487217084999429	1	51	NA	136.531201320002	0	0.42	1.02	1	100.187295103002	100.674512188001	"4"	47812.147907512	47087.713738811	1.5	0.1
0.01	1	0.514108330004092	1	51	NA	136.531201320002	0	0.42	1.02	1	100.905190443002	101.419298773006	"4"	47812.147907512	47087.713738811	1.5	0.1
0.01	1	0.505797470003017	1	51	NA	136.531201320002	0	0.42	1.02	1	101.656506945001	102.162304415004	"4"	47812.147907512	47087.713738811	1.5	0.1
0.01	1	0.507879787001002	1	51	NA	136.531201320002	0	0.42	1.02	1	102.390957458003	102.898837245004	"4"	47812.147907512	47087.713738811	1.5	0.1
0.01	1	0.531876762004686	1	51	NA	136.531201320002	0	0.42	1.02	1	103.125585440001	103.657462202005	"4"	47812.147907512	47087.713738811	1.5	0.1
0.01	1	0.509662842996477	1	51	NA	136.531201320002	0	0.42	1.02	1	103.893489043003	104.403151885999	"4"	47812.147907512	47087.713738811	1.5	0.1
0.01	1	0.559301921995939	1	51	NA	136.531201320002	0	0.42	1.02	1	104.628291748006	105.187593670002	"4"	47812.147907512	47087.713738811	1.5	0.1
0.01	1	0.524737200001255	1	51	NA	136.531201320002	0	0.42	1.02	1	105.412750528005	105.937487728006	"4"	47812.147907512	47087.713738811	1.5	0.1
0.01	1	0.541856528005155	1	51	NA	136.531201320002	0	0.42	1.02	1	106.164137018	106.705993546006	"4"	47812.147907512	47087.713738811	1.5	0.1
0.01	1	0.533467683999334	1	51	NA	136.531201320002	0	0.42	1.02	1	106.932061793006	107.465529477005	"4"	47812.147907512	47087.713738811	1.5	0.1
0.01	1	0.502074755997455	1	51	NA	136.531201320002	0	0.42	1.02	1	107.699863263006	108.201938019003	"4"	47812.147907512	47087.713738811	1.5	0.1
0.01	1	0.495409445997211	1	51	NA	136.531201320002	0	0.42	1.02	1	108.434529285005	108.929938731002	"4"	47812.147907512	47087.713738811	1.5	0.1
0.01	1	0.562378908005485	1	51	NA	136.531201320002	0	0.42	1.02	1	109.152400658	109.714779566006	"4"	47812.147907512	47087.713738811	1.5	0.1
0.01	1	0.4900698249985	1	51	NA	136.531201320002	0	0.42	1.02	1	109.937025585001	110.427095409999	"4"	47812.147907512	47087.713738811	1.5	0.1
0.01	1	0.971453461999772	1	51	NA	136.531201320002	0	0.42	1.02	1	110.654955413003	111.626408875003	"4"	47812.147907512	47087.713738811	1.5	0.1
0.01	1	0.498324362997664	1	51	NA	136.531201320002	0	0.42	1.02	1	111.856884150002	112.355208513	"4"	47812.147907512	47087.713738811	1.5	0.1
0.01	1	0.715778064004553	1	51	NA	136.531201320002	0	0.42	1.02	1	112.591462388002	113.307240452006	"4"	47812.147907512	47087.713738811	1.5	0.1
0.01	1	0.611618733993964	1	51	NA	136.531201320002	0	0.42	1.02	1	113.543198210005	114.154816943999	"4"	47812.147907512	47087.713738811	1.5	0.1
0.01	1	0.599936102000356	1	51	NA	136.531201320002	0	0.42	1.02	1	114.377835648003	114.977771750004	"4"	47812.147907512	47087.713738811	1.5	0.1
0.01	1	1.59864470000321	1	51	NA	136.531201320002	0	0.42	1.02	1	115.212557434999	116.811202135003	"4"	47812.147907512	47087.713738811	1.5	0.1
0.01	1	0.617786586997681	1	51	NA	136.531201320002	0	0.42	1.02	1	117.048980035004	117.666766622002	"4"	47812.147907512	47087.713738811	1.5	0.1
0.01	1	0.654156473996409	1	51	NA	136.531201320002	0	0.42	1.02	1	117.900495175003	118.554651648999	"4"	47812.147907512	47087.713738811	1.5	0.1
0.01	1	0.569208600994898	1	51	NA	136.531201320002	0	0.42	1.02	1	118.785312543005	119.354521144	"4"	47812.147907512	47087.713738811	1.5	0.1
0.01	1	0.655012128998351	1	51	NA	136.531201320002	0	0.42	1.02	1	119.586596453002	120.241608582	"4"	47812.147907512	47087.713738811	1.5	0.1
0.01	1	4.7149681880037	1	51	NA	136.531201320002	0	0.42	1.02	1	120.471476254999	125.186444443003	"4"	47812.147907512	47087.713738811	1.5	0.1
0.01	1	0.53298962199915	1	51	NA	136.531201320002	0	0.42	1.02	1	125.413077898003	125.946067520003	"4"	47812.147907512	47087.713738811	1.5	0.1
0.01	1	0.565906732997973	1	51	NA	136.531201320002	0	0.42	1.02	1	126.181013783003	126.746920516001	"4"	47812.147907512	47087.713738811	1.5	0.1
0.01	1	0.515752131002955	1	51	NA	136.531201320002	0	0.42	1.02	1	126.982424795002	127.498176926005	"4"	47812.147907512	47087.713738811	1.5	0.1
0.01	1	0.533020028997271	1	51	NA	136.531201320002	0	0.42	1.02	1	127.733662983002	128.266683012	"4"	47812.147907512	47087.713738811	1.5	0.1
0.01	1	0.597177862000535	1	51	NA	136.531201320002	0	0.42	1.02	1	128.501682235001	129.098860097001	"4"	47812.147907512	47087.713738811	1.5	0.1
0.01	1	0.529926098002761	1	51	NA	136.531201320002	0	0.42	1.02	1	129.336297465001	129.866223563004	"4"	47812.147907512	47087.713738811	1.5	0.1
0.01	1	0.570338109995646	1	51	NA	136.531201320002	0	0.42	1.02	1	130.104254643004	130.674592752999	"4"	47812.147907512	47087.713738811	1.5	0.1
0.01	1	0.592369291000068	1	51	NA	136.531201320002	0	0.42	1.02	1	130.90565796	131.498027251	"4"	47812.147907512	47087.713738811	1.5	0.1
0.01	1	0.662020915995527	1	51	NA	136.531201320002	0	0.42	1.02	1	131.723636658004	132.385657573999	"4"	47812.147907512	47087.713738811	1.5	0.1
0.01	1	2.1056577010022	1	51	NA	136.531201320002	0	0.42	1.02	1	132.625218724999	134.730876426001	"4"	47812.147907512	47087.713738811	1.5	0.1
0.01	1	1.05686902999878	1	51	NA	136.531201320002	0	0.42	1.02	1	134.962506953001	136.019375983	"4"	47812.147907512	47087.713738811	1.5	0.1
0.01	1	0.281565985002089	2	51	NA	136.531201320002	0	0.42	1.02	1	136.248016584999	136.529582570001	"4"	47812.147907512	47087.713738811	1.5	0.1
0.01	1	2.24856223499955	1	116	NA	181.233582425004	0	0.48	1.5	1	138.585233493002	140.833795728002	"5"	47812.147907512	47087.713738811	1.5	0.1
0.01	1	0.416832820999844	1	116	NA	181.233582425004	0	0.48	1.5	1	141.072778705005	141.489611526005	"5"	47812.147907512	47087.713738811	1.5	0.1
0.01	1	0.415221827002824	1	116	NA	181.233582425004	0	0.48	1.5	1	141.723890255002	142.139112082004	"5"	47812.147907512	47087.713738811	1.5	0.1
0.01	1	0.467134393002198	1	116	NA	181.233582425004	0	0.48	1.5	1	142.374878743001	142.842013136004	"5"	47812.147907512	47087.713738811	1.5	0.1
0.01	1	0.503304165002191	1	116	NA	181.233582425004	0	0.48	1.5	1	143.076056865	143.579361030002	"5"	47812.147907512	47087.713738811	1.5	0.1
0.01	1	0.367068182000367	1	116	NA	181.233582425004	0	0.48	1.5	1	143.810622495002	144.177690677003	"5"	47812.147907512	47087.713738811	1.5	0.1
0.01	1	0.447714244000963	1	116	NA	181.233582425004	0	0.48	1.5	1	144.411801184004	144.859515428005	"5"	47812.147907512	47087.713738811	1.5	0.1
0.01	1	0.363422271002491	1	116	NA	181.233582425004	0	0.48	1.5	1	145.096090763	145.459513034002	"5"	47812.147907512	47087.713738811	1.5	0.1
0.01	1	0.4022087419944	1	116	NA	181.233582425004	0	0.48	1.5	1	145.697194133005	146.099402874999	"5"	47812.147907512	47087.713738811	1.5	0.1
0.01	1	0.351105456997175	1	116	NA	181.233582425004	0	0.48	1.5	1	146.331562493004	146.682667950001	"5"	47812.147907512	47087.713738811	1.5	0.1
0.01	1	0.383398347999901	1	116	NA	181.233582425004	0	0.48	1.5	1	146.915954088006	147.299352436006	"5"	47812.147907512	47087.713738811	1.5	0.1
0.01	1	0.404120468003384	1	116	NA	181.233582425004	0	0.48	1.5	1	147.533680695	147.937801163003	"5"	47812.147907512	47087.713738811	1.5	0.1
0.01	1	0.401684327996918	1	116	NA	181.233582425004	0	0.48	1.5	1	148.168021248006	148.569705576003	"5"	47812.147907512	47087.713738811	1.5	0.1
0.01	1	0.343038484003046	1	116	NA	181.233582425004	0	0.48	1.5	1	148.802511643	149.145550127003	"5"	47812.147907512	47087.713738811	1.5	0.1
0.01	1	0.377384614002949	1	116	NA	181.233582425004	0	0.48	1.5	1	149.370060845002	149.747445459005	"5"	47812.147907512	47087.713738811	1.5	0.1
0.01	1	0.390839558996959	1	116	NA	181.233582425004	0	0.48	1.5	1	149.971017595002	150.361857153999	"5"	47812.147907512	47087.713738811	1.5	0.1
0.01	1	0.365877806994831	1	116	NA	181.233582425004	0	0.48	1.5	1	150.588729318006	150.954607125001	"5"	47812.147907512	47087.713738811	1.5	0.1
0.01	1	0.365312825000728	1	116	NA	181.233582425004	0	0.48	1.5	1	151.189858443002	151.555171268003	"5"	47812.147907512	47087.713738811	1.5	0.1
0.01	1	0.388226916998974	1	116	NA	181.233582425004	0	0.48	1.5	1	151.790722620004	152.178949537003	"5"	47812.147907512	47087.713738811	1.5	0.1
0.01	1	0.353277925998555	1	116	NA	181.233582425004	0	0.48	1.5	1	152.408441450003	152.761719376002	"5"	47812.147907512	47087.713738811	1.5	0.1
0.01	1	0.384853563999059	1	116	NA	181.233582425004	0	0.48	1.5	1	152.992839588005	153.377693152004	"5"	47812.147907512	47087.713738811	1.5	0.1
0.01	1	0.336136976999114	1	116	NA	181.233582425004	0	0.48	1.5	1	153.610528545003	153.946665522002	"5"	47812.147907512	47087.713738811	1.5	0.1
0.01	1	0.424287793997792	1	116	NA	181.233582425004	0	0.48	1.5	1	154.178108388005	154.602396182003	"5"	47812.147907512	47087.713738811	1.5	0.1
0.01	1	0.485840058005124	1	116	NA	181.233582425004	0	0.48	1.5	1	154.829216145001	155.315056203006	"5"	47812.147907512	47087.713738811	1.5	0.1
0.01	1	0.479159063994302	1	116	NA	181.233582425004	0	0.48	1.5	1	155.547055703006	156.026214767	"5"	47812.147907512	47087.713738811	1.5	0.1
0.01	1	0.56156873099826	1	116	NA	181.233582425004	0	0.48	1.5	1	156.248245482006	156.809814213004	"5"	47812.147907512	47087.713738811	1.5	0.1
0.01	1	0.505173937999643	1	116	NA	181.233582425004	0	0.48	1.5	1	157.049670430002	157.554844368002	"5"	47812.147907512	47087.713738811	1.5	0.1
0.01	1	0.538066250999691	1	116	NA	181.233582425004	0	0.48	1.5	1	157.784213283005	158.322279534004	"5"	47812.147907512	47087.713738811	1.5	0.1
0.01	1	0.641667486997903	1	116	NA	181.233582425004	0	0.48	1.5	1	158.552121835004	159.193789322002	"5"	47812.147907512	47087.713738811	1.5	0.1
0.01	1	0.662130622004042	1	116	NA	181.233582425004	0	0.48	1.5	1	159.420315506002	160.082446128006	"5"	47812.147907512	47087.713738811	1.5	0.1
0.01	1	0.688247475001845	1	116	NA	181.233582425004	0	0.48	1.5	1	160.321775613003	161.010023088005	"5"	47812.147907512	47087.713738811	1.5	0.1
0.01	1	0.634690440994746	1	116	NA	181.233582425004	0	0.48	1.5	1	161.240003433006	161.874693874001	"5"	47812.147907512	47087.713738811	1.5	0.1
0.01	1	0.734518939003465	1	116	NA	181.233582425004	0	0.48	1.5	1	162.108119113	162.842638052003	"5"	47812.147907512	47087.713738811	1.5	0.1
0.01	1	0.886889690998942	1	116	NA	181.233582425004	0	0.48	1.5	1	163.076459995005	163.963349686004	"5"	47812.147907512	47087.713738811	1.5	0.1
0.01	1	0.703222824995464	1	116	NA	181.233582425004	0	0.48	1.5	1	164.195069566005	164.898292391001	"5"	47812.147907512	47087.713738811	1.5	0.1
0.01	1	0.608846917995834	1	116	NA	181.233582425004	0	0.48	1.5	1	165.129865373005	165.738712291	"5"	47812.147907512	47087.713738811	1.5	0.1
0.01	1	0.629174702000455	1	116	NA	181.233582425004	0	0.48	1.5	1	165.964626748006	166.593801450006	"5"	47812.147907512	47087.713738811	1.5	0.1
0.01	1	0.786534707003739	1	116	NA	181.233582425004	0	0.48	1.5	1	166.816150015002	167.602684722006	"5"	47812.147907512	47087.713738811	1.5	0.1
0.01	1	3.13485946699802	1	116	NA	181.233582425004	0	0.48	1.5	1	167.834422358006	170.969281825004	"5"	47812.147907512	47087.713738811	1.5	0.1
0.01	1	0.697367546999885	1	116	NA	181.233582425004	0	0.48	1.5	1	171.206883193001	171.904250740001	"5"	47812.147907512	47087.713738811	1.5	0.1
0.01	1	0.466987004001567	1	116	NA	181.233582425004	0	0.48	1.5	1	172.141799114004	172.608786118006	"5"	47812.147907512	47087.713738811	1.5	0.1
0.01	1	0.476461505000771	1	116	NA	181.233582425004	0	0.48	1.5	1	172.842986668002	173.319448173002	"5"	47812.147907512	47087.713738811	1.5	0.1
0.01	1	0.432693053000548	1	116	NA	181.233582425004	0	0.48	1.5	1	173.544002413	173.976695466001	"5"	47812.147907512	47087.713738811	1.5	0.1
0.01	1	2.04358184699959	1	116	NA	181.233582425004	0	0.48	1.5	1	174.211840983	176.25542283	"5"	47812.147907512	47087.713738811	1.5	0.1
0.01	1	0.516671351993864	1	116	NA	181.233582425004	0	0.48	1.5	1	176.482375588006	176.99904694	"5"	47812.147907512	47087.713738811	1.5	0.1
0.01	1	0.349579036999785	1	116	NA	181.233582425004	0	0.48	1.5	1	177.233615283003	177.583194320003	"5"	47812.147907512	47087.713738811	1.5	0.1
0.01	1	0.726254725996114	1	116	NA	181.233582425004	0	0.48	1.5	1	177.817948405005	178.544203131001	"5"	47812.147907512	47087.713738811	1.5	0.1
0.01	1	1.02327206599875	1	116	NA	181.233582425004	0	0.48	1.5	1	178.769512590006	179.792784656005	"5"	47812.147907512	47087.713738811	1.5	0.1
0.01	1	1.21028665699851	2	116	NA	181.233582425004	0	0.48	1.5	1	180.021715758005	181.232002415003	"5"	47812.147907512	47087.713738811	1.5	0.1
0.01	1	1.91080712300027	1	118	NA	224.303181986004	0	0.69	2.19	1	183.293798810002	185.204605933002	"6"	47812.147907512	47087.713738811	1.5	0.1
0.01	1	0.342057993999333	1	118	NA	224.303181986004	0	0.69	2.19	1	185.430750573003	185.772808567002	"6"	47812.147907512	47087.713738811	1.5	0.1
0.01	1	0.423082437999255	1	118	NA	224.303181986004	0	0.69	2.19	1	185.998296620004	186.421379058003	"6"	47812.147907512	47087.713738811	1.5	0.1
0.01	1	0.396202500000072	1	118	NA	224.303181986004	0	0.69	2.19	1	186.649468946001	187.045671446002	"6"	47812.147907512	47087.713738811	1.5	0.1
0.01	1	0.385005067000748	1	118	NA	224.303181986004	0	0.69	2.19	1	187.283872813001	187.668877880002	"6"	47812.147907512	47087.713738811	1.5	0.1
0.01	1	0.431797261000611	1	118	NA	224.303181986004	0	0.69	2.19	1	187.901566810004	188.333364071004	"6"	47812.147907512	47087.713738811	1.5	0.1
0.01	1	0.684515160995943	1	118	NA	224.303181986004	0	0.69	2.19	1	188.569366838004	189.253881999	"6"	47812.147907512	47087.713738811	1.5	0.1
0.01	1	0.181033144006506	1	118	NA	224.303181986004	0	0.69	2.19	1	189.487491309999	189.668524454006	"6"	47812.147907512	47087.713738811	1.5	0.1
0.01	1	0.220154328999342	1	118	NA	224.303181986004	0	0.69	2.19	1	189.904983233006	190.125137562005	"6"	47812.147907512	47087.713738811	1.5	0.1
0.01	1	0.265227279000101	1	118	NA	224.303181986004	0	0.69	2.19	1	190.355727638002	190.620954917002	"6"	47812.147907512	47087.713738811	1.5	0.1
0.01	1	0.238192874996457	1	118	NA	224.303181986004	0	0.69	2.19	1	190.856522145004	191.094715020001	"6"	47812.147907512	47087.713738811	1.5	0.1
0.01	1	0.177783860002819	1	118	NA	224.303181986004	0	0.69	2.19	1	191.323985793002	191.501769653005	"6"	47812.147907512	47087.713738811	1.5	0.1
0.01	1	0.225454548999551	1	118	NA	224.303181986004	0	0.69	2.19	1	191.724588590005	191.950043139004	"6"	47812.147907512	47087.713738811	1.5	0.1
0.01	1	0.223043707002944	1	118	NA	224.303181986004	0	0.69	2.19	1	192.175354967003	192.398398674006	"6"	47812.147907512	47087.713738811	1.5	0.1
0.01	1	0.251093184000638	1	118	NA	224.303181986004	0	0.69	2.19	1	192.626144193004	192.877237377004	"6"	47812.147907512	47087.713738811	1.5	0.1
0.01	1	0.255514026997844	1	118	NA	224.303181986004	0	0.69	2.19	1	193.110374533004	193.365888560002	"6"	47812.147907512	47087.713738811	1.5	0.1
0.01	1	0.250803844995971	1	118	NA	224.303181986004	0	0.69	2.19	1	193.594488425006	193.845292270002	"6"	47812.147907512	47087.713738811	1.5	0.1
0.01	1	0.246551064003143	1	118	NA	224.303181986004	0	0.69	2.19	1	194.078675598001	194.325226662004	"6"	47812.147907512	47087.713738811	1.5	0.1
0.01	1	0.219399542998872	1	118	NA	224.303181986004	0	0.69	2.19	1	194.562731890001	194.782131432999	"6"	47812.147907512	47087.713738811	1.5	0.1
0.01	1	0.248371501002111	1	118	NA	224.303181986004	0	0.69	2.19	1	195.013512465004	195.261883966006	"6"	47812.147907512	47087.713738811	1.5	0.1
0.01	1	0.2441232400015	1	118	NA	224.303181986004	0	0.69	2.19	1	195.497730755	195.741853995001	"6"	47812.147907512	47087.713738811	1.5	0.1
0.01	1	0.272515253003803	1	118	NA	224.303181986004	0	0.69	2.19	1	195.965104540002	196.237619793006	"6"	47812.147907512	47087.713738811	1.5	0.1
0.01	1	0.250825488001283	1	118	NA	224.303181986004	0	0.69	2.19	1	196.465929030004	196.716754518005	"6"	47812.147907512	47087.713738811	1.5	0.1
0.01	1	0.295669819002796	1	118	NA	224.303181986004	0	0.69	2.19	1	196.950075533001	197.245745352004	"6"	47812.147907512	47087.713738811	1.5	0.1
0.01	1	0.290121988000465	1	118	NA	224.303181986004	0	0.69	2.19	1	197.467571730005	197.757693718006	"6"	47812.147907512	47087.713738811	1.5	0.1
0.01	1	0.323277777999465	1	118	NA	224.303181986004	0	0.69	2.19	1	197.985141213001	198.308418991001	"6"	47812.147907512	47087.713738811	1.5	0.1
0.01	1	0.308925565004756	1	118	NA	224.303181986004	0	0.69	2.19	1	198.536143963	198.845069528004	"6"	47812.147907512	47087.713738811	1.5	0.1
0.01	1	0.342837571995915	1	118	NA	224.303181986004	0	0.69	2.19	1	199.070305145004	199.413142717	"6"	47812.147907512	47087.713738811	1.5	0.1
0.01	1	0.351947133000067	1	118	NA	224.303181986004	0	0.69	2.19	1	199.637943038004	199.989890171004	"6"	47812.147907512	47087.713738811	1.5	0.1
0.01	1	0.351915897997969	1	118	NA	224.303181986004	0	0.69	2.19	1	200.222389393006	200.574305291004	"6"	47812.147907512	47087.713738811	1.5	0.1
0.01	1	0.335929444998328	1	118	NA	224.303181986004	0	0.69	2.19	1	200.806570240005	201.142499685004	"6"	47812.147907512	47087.713738811	1.5	0.1
0.01	1	0.342171937001694	1	118	NA	224.303181986004	0	0.69	2.19	1	201.374266585	201.716438522002	"6"	47812.147907512	47087.713738811	1.5	0.1
0.01	1	0.320225430004939	1	118	NA	224.303181986004	0	0.69	2.19	1	201.941845203	202.262070633005	"6"	47812.147907512	47087.713738811	1.5	0.1
0.01	1	0.328239488997497	1	118	NA	224.303181986004	0	0.69	2.19	1	202.492792125006	202.821031614003	"6"	47812.147907512	47087.713738811	1.5	0.1
0.01	1	0.250540180000826	1	118	NA	224.303181986004	0	0.69	2.19	1	203.043707313002	203.294247493002	"6"	47812.147907512	47087.713738811	1.5	0.1
0.01	1	0.350148035002348	1	118	NA	224.303181986004	0	0.69	2.19	1	203.527837970003	203.877986005005	"6"	47812.147907512	47087.713738811	1.5	0.1
0.01	1	0.277515627996763	1	118	NA	224.303181986004	0	0.69	2.19	1	204.112277188004	204.389792816	"6"	47812.147907512	47087.713738811	1.5	0.1
0.01	1	0.328774952999083	1	118	NA	224.303181986004	0	0.69	2.19	1	204.613032958005	204.941807911004	"6"	47812.147907512	47087.713738811	1.5	0.1
0.01	1	0.417849890996877	1	118	NA	224.303181986004	0	0.69	2.19	1	205.163990865003	205.581840756	"6"	47812.147907512	47087.713738811	1.5	0.1
0.01	1	0.32697931000439	1	118	NA	224.303181986004	0	0.69	2.19	1	205.815036070002	206.142015380006	"6"	47812.147907512	47087.713738811	1.5	0.1
0.01	1	0.34365857100056	1	118	NA	224.303181986004	0	0.69	2.19	1	206.38271654	206.726375111	"6"	47812.147907512	47087.713738811	1.5	0.1
0.01	1	0.272310407002806	1	118	NA	224.303181986004	0	0.69	2.19	1	206.950325113001	207.222635520004	"6"	47812.147907512	47087.713738811	1.5	0.1
0.01	1	0.297423200005142	1	118	NA	224.303181986004	0	0.69	2.19	1	207.451104223001	207.748527423006	"6"	47812.147907512	47087.713738811	1.5	0.1
0.01	1	0.379217100999085	1	118	NA	224.303181986004	0	0.69	2.19	1	207.985432338006	208.364649439005	"6"	47812.147907512	47087.713738811	1.5	0.1
0.01	1	0.361546471998736	1	118	NA	224.303181986004	0	0.69	2.19	1	208.602975933005	208.964522405004	"6"	47812.147907512	47087.713738811	1.5	0.1
0.01	1	0.321295064997685	1	118	NA	224.303181986004	0	0.69	2.19	1	209.187338243006	209.508633308003	"6"	47812.147907512	47087.713738811	1.5	0.1
0.01	1	0.35453593100101	1	118	NA	224.303181986004	0	0.69	2.19	1	209.738308183005	210.092844114006	"6"	47812.147907512	47087.713738811	1.5	0.1
0.01	1	0.386637420997431	1	118	NA	224.303181986004	0	0.69	2.19	1	210.322664190004	210.709301611001	"6"	47812.147907512	47087.713738811	1.5	0.1
0.01	1	0.521853877005924	1	118	NA	224.303181986004	0	0.69	2.19	1	210.940349160999	211.462203038005	"6"	47812.147907512	47087.713738811	1.5	0.1
0.01	1	0.345767828999669	1	118	NA	224.303181986004	0	0.69	2.19	1	211.691575683006	212.037343512005	"6"	47812.147907512	47087.713738811	1.5	0.1
0.01	1	0.313118272002612	1	118	NA	224.303181986004	0	0.69	2.19	1	212.275837118003	212.588955390005	"6"	47812.147907512	47087.713738811	1.5	0.1
0.01	1	0.33865425499971	1	118	NA	224.303181986004	0	0.69	2.19	1	212.826810135004	213.165464390004	"6"	47812.147907512	47087.713738811	1.5	0.1
0.01	1	0.29947335900215	1	118	NA	224.303181986004	0	0.69	2.19	1	213.394431203	213.693904562002	"6"	47812.147907512	47087.713738811	1.5	0.1
0.01	1	0.371903972001746	1	118	NA	224.303181986004	0	0.69	2.19	1	213.928712448003	214.300616420005	"6"	47812.147907512	47087.713738811	1.5	0.1
0.01	1	0.331268820998957	1	118	NA	224.303181986004	0	0.69	2.19	1	214.529714035001	214.860982856	"6"	47812.147907512	47087.713738811	1.5	0.1
0.01	1	0.33217686900025	1	118	NA	224.303181986004	0	0.69	2.19	1	215.097402855004	215.429579724005	"6"	47812.147907512	47087.713738811	1.5	0.1
0.01	1	0.283437295998738	1	118	NA	224.303181986004	0	0.69	2.19	1	215.664969683006	215.948406979005	"6"	47812.147907512	47087.713738811	1.5	0.1
0.01	1	0.406441132996406	1	118	NA	224.303181986004	0	0.69	2.19	1	216.182510898005	216.588952031001	"6"	47812.147907512	47087.713738811	1.5	0.1
0.01	1	0.261323735998303	1	118	NA	224.303181986004	0	0.69	2.19	1	216.816825778005	217.078149514004	"6"	47812.147907512	47087.713738811	1.5	0.1
0.01	1	0.30428808999568	1	118	NA	224.303181986004	0	0.69	2.19	1	217.301044240005	217.60533233	"6"	47812.147907512	47087.713738811	1.5	0.1
0.01	1	0.306243689999974	1	118	NA	224.303181986004	0	0.69	2.19	1	217.835316602999	218.141560292999	"6"	47812.147907512	47087.713738811	1.5	0.1
0.01	1	0.28361304000282	1	118	NA	224.303181986004	0	0.69	2.19	1	218.369540565	218.653153605002	"6"	47812.147907512	47087.713738811	1.5	0.1
0.01	1	0.310296586998447	1	118	NA	224.303181986004	0	0.69	2.19	1	218.887104173002	219.19740076	"6"	47812.147907512	47087.713738811	1.5	0.1
0.01	1	0.279435967000609	1	118	NA	224.303181986004	0	0.69	2.19	1	219.421193393006	219.700629360006	"6"	47812.147907512	47087.713738811	1.5	0.1
0.01	1	0.41931847599335	1	118	NA	224.303181986004	0	0.69	2.19	1	219.938778883006	220.358097359	"6"	47812.147907512	47087.713738811	1.5	0.1
0.01	1	0.3592434279999	1	118	NA	224.303181986004	0	0.69	2.19	1	220.589909168004	220.949152596004	"6"	47812.147907512	47087.713738811	1.5	0.1
0.01	1	0.278291175003687	1	118	NA	224.303181986004	0	0.69	2.19	1	221.174198578003	221.452489753006	"6"	47812.147907512	47087.713738811	1.5	0.1
0.01	1	0.418180348999158	1	118	NA	224.303181986004	0	0.69	2.19	1	221.675087117001	222.093267466	"6"	47812.147907512	47087.713738811	1.5	0.1
0.01	1	0.416221861996746	1	118	NA	224.303181986004	0	0.69	2.19	1	222.326169400003	222.742391262	"6"	47812.147907512	47087.713738811	1.5	0.1
0.01	1	1.32436416799464	2	118	NA	224.303181986004	0	0.69	2.19	1	222.977271840005	224.301636008	"6"	47812.147907512	47087.713738811	1.5	0.1
0.01	1	2.40425041499839	1	87	NA	262.345807260004	0	0.66	2.85	1	226.349556708003	228.753807123001	"7"	47812.147907512	47087.713738811	1.5	0.1
0.01	1	0.230039280002529	1	87	NA	262.345807260004	0	0.66	2.85	1	228.987373953001	229.217413233004	"7"	47812.147907512	47087.713738811	1.5	0.1
0.01	1	0.251176472003863	1	87	NA	262.345807260004	0	0.66	2.85	1	229.454800273001	229.705976745005	"7"	47812.147907512	47087.713738811	1.5	0.1
0.01	1	0.263116250003804	1	87	NA	262.345807260004	0	0.66	2.85	1	229.938930844	230.202047094004	"7"	47812.147907512	47087.713738811	1.5	0.1
0.01	1	0.289938400004758	1	87	NA	262.345807260004	0	0.66	2.85	1	230.439731063001	230.729669463006	"7"	47812.147907512	47087.713738811	1.5	0.1
0.01	1	0.276209718998871	1	87	NA	262.345807260004	0	0.66	2.85	1	230.957368321004	231.233578040003	"7"	47812.147907512	47087.713738811	1.5	0.1
0.01	1	0.318177886998456	1	87	NA	262.345807260004	0	0.66	2.85	1	231.458189453006	231.776367340004	"7"	47812.147907512	47087.713738811	1.5	0.1
0.01	1	0.272462986002211	1	87	NA	262.345807260004	0	0.66	2.85	1	232.009151518003	232.281614504005	"7"	47812.147907512	47087.713738811	1.5	0.1
0.01	1	0.299319880003168	1	87	NA	262.345807260004	0	0.66	2.85	1	232.509997153	232.809317033003	"7"	47812.147907512	47087.713738811	1.5	0.1
0.01	1	0.244697643000109	1	87	NA	262.345807260004	0	0.66	2.85	1	233.044156470001	233.288854113001	"7"	47812.147907512	47087.713738811	1.5	0.1
0.01	1	0.200417710999318	1	87	NA	262.345807260004	0	0.66	2.85	1	233.511560475003	233.711978186002	"7"	47812.147907512	47087.713738811	1.5	0.1
0.01	1	0.247432896001555	1	87	NA	262.345807260004	0	0.66	2.85	1	233.945767545003	234.193200441005	"7"	47812.147907512	47087.713738811	1.5	0.1
0.01	1	0.178204244999506	1	87	NA	262.345807260004	0	0.66	2.85	1	234.429836058	234.608040302999	"7"	47812.147907512	47087.713738811	1.5	0.1
0.01	1	0.233494052001333	1	87	NA	262.345807260004	0	0.66	2.85	1	234.830573913001	235.064067965002	"7"	47812.147907512	47087.713738811	1.5	0.1
0.01	1	0.230832711000403	1	87	NA	262.345807260004	0	0.66	2.85	1	235.297958595002	235.528791306002	"7"	47812.147907512	47087.713738811	1.5	0.1
0.01	1	0.20297540500178	1	87	NA	262.345807260004	0	0.66	2.85	1	235.765427095001	235.968402500002	"7"	47812.147907512	47087.713738811	1.5	0.1
0.01	1	0.232943887996953	1	87	NA	262.345807260004	0	0.66	2.85	1	236.199499758004	236.432443646001	"7"	47812.147907512	47087.713738811	1.5	0.1
0.01	1	0.269896112004062	1	87	NA	262.345807260004	0	0.66	2.85	1	236.666984629999	236.936880742003	"7"	47812.147907512	47087.713738811	1.5	0.1
0.01	1	0.24082693499804	1	87	NA	262.345807260004	0	0.66	2.85	1	237.167774328002	237.408601263	"7"	47812.147907512	47087.713738811	1.5	0.1
0.01	1	0.254637145997549	1	87	NA	262.345807260004	0	0.66	2.85	1	237.635249805004	237.889886951001	"7"	47812.147907512	47087.713738811	1.5	0.1
0.01	1	0.266399672000261	1	87	NA	262.345807260004	0	0.66	2.85	1	238.119313233001	238.385712905001	"7"	47812.147907512	47087.713738811	1.5	0.1
0.01	1	0.237274655999499	1	87	NA	262.345807260004	0	0.66	2.85	1	238.620210938003	238.857485594002	"7"	47812.147907512	47087.713738811	1.5	0.1
0.01	1	0.242147477001708	1	87	NA	262.345807260004	0	0.66	2.85	1	239.087764745003	239.329912222005	"7"	47812.147907512	47087.713738811	1.5	0.1
0.01	1	0.254283393995138	1	87	NA	262.345807260004	0	0.66	2.85	1	239.555153723006	239.809437117001	"7"	47812.147907512	47087.713738811	1.5	0.1
0.01	1	0.241780033000396	1	87	NA	262.345807260004	0	0.66	2.85	1	240.039461827	240.281241860001	"7"	47812.147907512	47087.713738811	1.5	0.1
0.01	1	0.230792107002344	1	87	NA	262.345807260004	0	0.66	2.85	1	240.506708608002	240.737500715004	"7"	47812.147907512	47087.713738811	1.5	0.1
0.01	1	0.235040416999254	1	87	NA	262.345807260004	0	0.66	2.85	1	240.974272833002	241.209313250001	"7"	47812.147907512	47087.713738811	1.5	0.1
0.01	1	0.224316676001763	1	87	NA	262.345807260004	0	0.66	2.85	1	241.441663976002	241.665980652004	"7"	47812.147907512	47087.713738811	1.5	0.1
0.01	1	0.245456682001532	1	87	NA	262.345807260004	0	0.66	2.85	1	241.892377130003	242.137833812005	"7"	47812.147907512	47087.713738811	1.5	0.1
0.01	1	0.242222999993828	1	87	NA	262.345807260004	0	0.66	2.85	1	242.359880250006	242.602103249999	"7"	47812.147907512	47087.713738811	1.5	0.1
0.01	1	0.238681587994506	1	87	NA	262.345807260004	0	0.66	2.85	1	242.827330928005	243.066012515999	"7"	47812.147907512	47087.713738811	1.5	0.1
0.01	1	0.25121611499344	1	87	NA	262.345807260004	0	0.66	2.85	1	243.294710673006	243.545926788	"7"	47812.147907512	47087.713738811	1.5	0.1
0.01	1	0.182399048004299	1	87	NA	262.345807260004	0	0.66	2.85	1	243.778912098001	243.961311146006	"7"	47812.147907512	47087.713738811	1.5	0.1
0.01	1	0.251834727001551	1	87	NA	262.345807260004	0	0.66	2.85	1	244.196291655004	244.448126382005	"7"	47812.147907512	47087.713738811	1.5	0.1
0.01	1	0.241396268000244	1	87	NA	262.345807260004	0	0.66	2.85	1	244.680398355005	244.921794623006	"7"	47812.147907512	47087.713738811	1.5	0.1
0.01	1	0.205720023994218	1	87	NA	262.345807260004	0	0.66	2.85	1	245.147923603006	245.353643627001	"7"	47812.147907512	47087.713738811	1.5	0.1
0.01	1	0.251686073002929	1	87	NA	262.345807260004	0	0.66	2.85	1	245.581960155003	245.833646228006	"7"	47812.147907512	47087.713738811	1.5	0.1
0.01	1	0.271810490005009	1	87	NA	262.345807260004	0	0.66	2.85	1	246.066148714999	246.337959205004	"7"	47812.147907512	47087.713738811	1.5	0.1
0.01	1	0.242268242000137	1	87	NA	262.345807260004	0	0.66	2.85	1	246.566984295001	246.809252537001	"7"	47812.147907512	47087.713738811	1.5	0.1
0.01	1	0.261706352001056	1	87	NA	262.345807260004	0	0.66	2.85	1	247.034499178	247.296205530001	"7"	47812.147907512	47087.713738811	1.5	0.1
0.01	1	0.232766266002727	1	87	NA	262.345807260004	0	0.66	2.85	1	247.535298490002	247.768064756005	"7"	47812.147907512	47087.713738811	1.5	0.1
0.01	1	0.238159635002376	1	87	NA	262.345807260004	0	0.66	2.85	1	248.002679885001	248.240839520004	"7"	47812.147907512	47087.713738811	1.5	0.1
0.01	1	0.242903910999303	1	87	NA	262.345807260004	0	0.66	2.85	1	248.470167515006	248.713071426006	"7"	47812.147907512	47087.713738811	1.5	0.1
0.01	1	0.230416569997033	1	87	NA	262.345807260004	0	0.66	2.85	1	248.937617840005	249.168034410002	"7"	47812.147907512	47087.713738811	1.5	0.1
0.01	1	0.22040787700098	1	87	NA	262.345807260004	0	0.66	2.85	1	249.405052613001	249.625460490002	"7"	47812.147907512	47087.713738811	1.5	0.1
0.01	1	0.248881562998577	1	87	NA	262.345807260004	0	0.66	2.85	1	249.855785263004	250.104666826002	"7"	47812.147907512	47087.713738811	1.5	0.1
0.01	1	0.238214953998977	1	87	NA	262.345807260004	0	0.66	2.85	1	250.340012658002	250.578227612001	"7"	47812.147907512	47087.713738811	1.5	0.1
0.01	1	0.202316606002569	1	87	NA	262.345807260004	0	0.66	2.85	1	250.807419388002	251.009735994005	"7"	47812.147907512	47087.713738811	1.5	0.1
0.01	1	0.238898776995484	1	87	NA	262.345807260004	0	0.66	2.85	1	251.241471915004	251.480370691999	"7"	47812.147907512	47087.713738811	1.5	0.1
0.01	1	0.283163494001201	1	87	NA	262.345807260004	0	0.66	2.85	1	251.708892234004	251.992055728006	"7"	47812.147907512	47087.713738811	1.5	0.1
0.01	1	0.238098229005118	1	87	NA	262.345807260004	0	0.66	2.85	1	252.226495873001	252.464594102006	"7"	47812.147907512	47087.713738811	1.5	0.1
0.01	1	0.282839304003573	1	87	NA	262.345807260004	0	0.66	2.85	1	252.693968783002	252.976808087005	"7"	47812.147907512	47087.713738811	1.5	0.1
0.01	1	0.244390480002039	1	87	NA	262.345807260004	0	0.66	2.85	1	253.211481523002	253.455872003004	"7"	47812.147907512	47087.713738811	1.5	0.1
0.01	1	0.249406041999464	1	87	NA	262.345807260004	0	0.66	2.85	1	253.695556783001	253.944962825	"7"	47812.147907512	47087.713738811	1.5	0.1
0.01	1	0.244841296997038	1	87	NA	262.345807260004	0	0.66	2.85	1	254.179715468003	254.424556765	"7"	47812.147907512	47087.713738811	1.5	0.1
0.01	1	0.266937442000199	1	87	NA	262.345807260004	0	0.66	2.85	1	254.647169463002	254.914106905002	"7"	47812.147907512	47087.713738811	1.5	0.1
0.01	1	0.324153866000415	1	87	NA	262.345807260004	0	0.66	2.85	1	255.148025888004	255.472179754004	"7"	47812.147907512	47087.713738811	1.5	0.1
0.01	1	0.318744035001146	1	87	NA	262.345807260004	0	0.66	2.85	1	255.698994548002	256.017738583003	"7"	47812.147907512	47087.713738811	1.5	0.1
0.01	1	0.374582431999443	1	87	NA	262.345807260004	0	0.66	2.85	1	256.249893553002	256.624475985001	"7"	47812.147907512	47087.713738811	1.5	0.1
0.01	1	0.35051910400216	1	87	NA	262.345807260004	0	0.66	2.85	1	256.850772853002	257.201291957004	"7"	47812.147907512	47087.713738811	1.5	0.1
0.01	1	0.365867453001556	1	87	NA	262.345807260004	0	0.66	2.85	1	257.435277490004	257.801144943005	"7"	47812.147907512	47087.713738811	1.5	0.1
0.01	1	0.292684574997111	1	87	NA	262.345807260004	0	0.66	2.85	1	258.036306710004	258.328991285001	"7"	47812.147907512	47087.713738811	1.5	0.1
0.01	1	0.303357290002168	1	87	NA	262.345807260004	0	0.66	2.85	1	258.553741403004	258.857098693006	"7"	47812.147907512	47087.713738811	1.5	0.1
0.01	1	0.736496567995346	1	87	NA	262.345807260004	0	0.66	2.85	1	259.088007848004	259.824504415999	"7"	47812.147907512	47087.713738811	1.5	0.1
0.01	1	0.272128802003863	1	87	NA	262.345807260004	0	0.66	2.85	1	260.056349633	260.328478435003	"7"	47812.147907512	47087.713738811	1.5	0.1
0.01	1	0.212829819000035	1	87	NA	262.345807260004	0	0.66	2.85	1	260.557137053001	260.769966872002	"7"	47812.147907512	47087.713738811	1.5	0.1
0.01	1	1.3362770859967	2	87	NA	262.345807260004	0	0.66	2.85	1	261.007897870004	262.344174956001	"7"	47812.147907512	47087.713738811	1.5	0.1
0.01	1	0.948841661003826	1	6	266.954427663004	NA	1	0	2.85	1	264.396973135001	265.345814796005	"8"	47812.147907512	47087.713738811	1.5	0.1
0.01	1	0.139079713000683	1	6	266.954427663004	NA	1	0	2.85	1	265.582203076003	265.721282789003	"8"	47812.147907512	47087.713738811	1.5	0.1
0.01	1	0.0503964070012444	1	6	266.954427663004	NA	1	0	2.85	1	265.949650783004	266.000047190006	"8"	47812.147907512	47087.713738811	1.5	0.1
0.01	1	0.0626045870012604	1	6	266.954427663004	NA	1	0	2.85	1	266.233471093001	266.296075680002	"8"	47812.147907512	47087.713738811	1.5	0.1
0.01	1	0.0263701069998206	1	6	266.954427663004	NA	1	0	2.85	1	266.533835630005	266.560205737005	"8"	47812.147907512	47087.713738811	1.5	0.1
0.01	1	0.0490311229950748	1	6	266.954427663004	NA	1	0	2.85	1	266.784287475006	266.833318598001	"8"	47812.147907512	47087.713738811	1.5	0.1
0.01	1	0.715905823999492	1	106	NA	327.907288690003	0	0.930000000000001	3.78	1	269.004748418003	269.720654242003	"9"	47812.147907512	47087.713738811	1.5	0.1
0.01	1	0.0842127020005137	1	106	NA	327.907288690003	0	0.930000000000001	3.78	1	269.956338568001	270.040551270002	"9"	47812.147907512	47087.713738811	1.5	0.1
0.01	1	0.0631730500026606	1	106	NA	327.907288690003	0	0.930000000000001	3.78	1	270.273495348003	270.336668398006	"9"	47812.147907512	47087.713738811	1.5	0.1
0.01	1	0.161825714996667	1	106	NA	327.907288690003	0	0.930000000000001	3.78	1	270.574054608005	270.735880323002	"9"	47812.147907512	47087.713738811	1.5	0.1
0.01	1	0.266705656002159	1	106	NA	327.907288690003	0	0.930000000000001	3.78	1	270.957913823004	271.224619479006	"9"	47812.147907512	47087.713738811	1.5	0.1
0.01	1	0.174396875001548	1	106	NA	327.907288690003	0	0.930000000000001	3.78	1	271.458748634999	271.633145510001	"9"	47812.147907512	47087.713738811	1.5	0.1
0.01	1	0.213207132001116	1	106	NA	327.907288690003	0	0.930000000000001	3.78	1	271.859480810002	272.072687942004	"9"	47812.147907512	47087.713738811	1.5	0.1
0.01	1	0.315080624000984	1	106	NA	327.907288690003	0	0.930000000000001	3.78	1	272.310377523005	272.625458147006	"9"	47812.147907512	47087.713738811	1.5	0.1
0.01	1	0.372019399001147	1	106	NA	327.907288690003	0	0.930000000000001	3.78	1	272.861207952999	273.233227352001	"9"	47812.147907512	47087.713738811	1.5	0.1
0.01	1	0.418627447004837	1	106	NA	327.907288690003	0	0.930000000000001	3.78	1	273.462238202999	273.880865650004	"9"	47812.147907512	47087.713738811	1.5	0.1
0.01	1	0.431094485000358	1	106	NA	327.907288690003	0	0.930000000000001	3.78	1	274.113338528005	274.544433013005	"9"	47812.147907512	47087.713738811	1.5	0.1
0.01	1	0.363254304997099	1	106	NA	327.907288690003	0	0.930000000000001	3.78	1	274.781047900004	275.144302205001	"9"	47812.147907512	47087.713738811	1.5	0.1
0.01	1	0.322911280003609	1	106	NA	327.907288690003	0	0.930000000000001	3.78	1	275.382044883001	275.704956163005	"9"	47812.147907512	47087.713738811	1.5	0.1
0.01	1	0.386950464999245	1	106	NA	327.907288690003	0	0.930000000000001	3.78	1	275.933036323004	276.319986788003	"9"	47812.147907512	47087.713738811	1.5	0.1
0.01	1	0.408583712000109	1	106	NA	327.907288690003	0	0.930000000000001	3.78	1	276.550755925004	276.959339637004	"9"	47812.147907512	47087.713738811	1.5	0.1
0.01	1	0.295950006999192	1	106	NA	327.907288690003	0	0.930000000000001	3.78	1	277.185159918001	277.481109925	"9"	47812.147907512	47087.713738811	1.5	0.1
0.01	1	0.401047551000374	1	106	NA	327.907288690003	0	0.930000000000001	3.78	1	277.719404755	278.120452306001	"9"	47812.147907512	47087.713738811	1.5	0.1
0.01	1	0.270977212996513	1	106	NA	327.907288690003	0	0.930000000000001	3.78	1	278.353823798003	278.624801010999	"9"	47812.147907512	47087.713738811	1.5	0.1
0.01	1	0.314998360001482	1	106	NA	327.907288690003	0	0.930000000000001	3.78	1	278.854541498004	279.169539858005	"9"	47812.147907512	47087.713738811	1.5	0.1
0.01	1	0.267447591999371	1	106	NA	327.907288690003	0	0.930000000000001	3.78	1	279.405589325004	279.673036917004	"9"	47812.147907512	47087.713738811	1.5	0.1
0.01	1	0.311296993000724	1	106	NA	327.907288690003	0	0.930000000000001	3.78	1	279.906427915004	280.217724908005	"9"	47812.147907512	47087.713738811	1.5	0.1
0.01	1	0.328013519996603	1	106	NA	327.907288690003	0	0.930000000000001	3.78	1	280.440522253004	280.768535773001	"9"	47812.147907512	47087.713738811	1.5	0.1
0.01	1	0.272776573001465	1	106	NA	327.907288690003	0	0.930000000000001	3.78	1	280.991540583003	281.264317156005	"9"	47812.147907512	47087.713738811	1.5	0.1
0.01	1	0.315673741002684	1	106	NA	327.907288690003	0	0.930000000000001	3.78	1	281.492349818	281.808023559002	"9"	47812.147907512	47087.713738811	1.5	0.1
0.01	1	0.261552884003322	1	106	NA	327.907288690003	0	0.930000000000001	3.78	1	282.043341748002	282.304894632005	"9"	47812.147907512	47087.713738811	1.5	0.1
0.01	1	0.346248357003788	1	106	NA	327.907288690003	0	0.930000000000001	3.78	1	282.527507968	282.873756325003	"9"	47812.147907512	47087.713738811	1.5	0.1
0.01	1	0.241992809002113	1	106	NA	327.907288690003	0	0.930000000000001	3.78	1	283.111675505002	283.353668314005	"9"	47812.147907512	47087.713738811	1.5	0.1
0.01	1	0.253068418001931	1	106	NA	327.907288690003	0	0.930000000000001	3.78	1	283.579259053004	283.832327471006	"9"	47812.147907512	47087.713738811	1.5	0.1
0.01	1	0.296652042001369	1	106	NA	327.907288690003	0	0.930000000000001	3.78	1	284.063297778004	284.359949820006	"9"	47812.147907512	47087.713738811	1.5	0.1
0.01	1	0.451118217002659	1	106	NA	327.907288690003	0	0.930000000000001	3.78	1	284.597651873002	285.048770090005	"9"	47812.147907512	47087.713738811	1.5	0.1
0.01	1	0.295400590002828	1	106	NA	327.907288690003	0	0.930000000000001	3.78	1	285.282125726	285.577526316003	"9"	47812.147907512	47087.713738811	1.5	0.1
0.01	1	0.305079913996451	1	106	NA	327.907288690003	0	0.930000000000001	3.78	1	285.799537648003	286.104617561999	"9"	47812.147907512	47087.713738811	1.5	0.1
0.01	1	0.275784735000343	1	106	NA	327.907288690003	0	0.930000000000001	3.78	1	286.333857763006	286.609642498006	"9"	47812.147907512	47087.713738811	1.5	0.1
0.01	1	0.334272649997729	1	106	NA	327.907288690003	0	0.930000000000001	3.78	1	286.834704223002	287.168976872999	"9"	47812.147907512	47087.713738811	1.5	0.1
0.01	1	0.247354608996829	1	106	NA	327.907288690003	0	0.930000000000001	3.78	1	287.402397105005	287.649751714001	"9"	47812.147907512	47087.713738811	1.5	0.1
0.01	1	0.313536458001181	1	106	NA	327.907288690003	0	0.930000000000001	3.78	1	287.886468653	288.200005111001	"9"	47812.147907512	47087.713738811	1.5	0.1
0.01	1	0.275169961001666	1	106	NA	327.907288690003	0	0.930000000000001	3.78	1	288.437455133004	288.712625094005	"9"	47812.147907512	47087.713738811	1.5	0.1
0.01	1	0.326519877002283	1	106	NA	327.907288690003	0	0.930000000000001	3.78	1	288.938258640002	289.264778517005	"9"	47812.147907512	47087.713738811	1.5	0.1
0.01	1	0.271044372995675	1	106	NA	327.907288690003	0	0.930000000000001	3.78	1	289.489164258004	289.760208631	"9"	47812.147907512	47087.713738811	1.5	0.1
0.01	1	0.322108328000468	1	106	NA	327.907288690003	0	0.930000000000001	3.78	1	289.990020558005	290.312128886006	"9"	47812.147907512	47087.713738811	1.5	0.1
0.01	1	0.293053230998339	1	106	NA	327.907288690003	0	0.930000000000001	3.78	1	290.540879190004	290.833932421003	"9"	47812.147907512	47087.713738811	1.5	0.1
0.01	1	0.270398145003128	1	106	NA	327.907288690003	0	0.930000000000001	3.78	1	291.075185977999	291.345584123002	"9"	47812.147907512	47087.713738811	1.5	0.1
0.01	1	0.289424100003089	1	106	NA	327.907288690003	0	0.930000000000001	3.78	1	291.575943413001	291.865367513004	"9"	47812.147907512	47087.713738811	1.5	0.1
0.01	1	0.411553951002134	1	106	NA	327.907288690003	0	0.930000000000001	3.78	1	292.093476357004	292.505030308006	"9"	47812.147907512	47087.713738811	1.5	0.1
0.01	1	1.4091558969958	1	106	NA	327.907288690003	0	0.930000000000001	3.78	1	292.727891134004	294.137047030999	"9"	47812.147907512	47087.713738811	1.5	0.1
0.01	1	1.00394504699943	1	106	NA	327.907288690003	0	0.930000000000001	3.78	1	294.364037118001	295.367982165	"9"	47812.147907512	47087.713738811	1.5	0.1
0.01	1	0.721793951997824	1	106	NA	327.907288690003	0	0.930000000000001	3.78	1	295.599454490002	296.321248442	"9"	47812.147907512	47087.713738811	1.5	0.1
0.01	1	0.537617328998749	1	106	NA	327.907288690003	0	0.930000000000001	3.78	1	296.551029993003	297.088647322002	"9"	47812.147907512	47087.713738811	1.5	0.1
0.01	1	0.489772945998993	1	106	NA	327.907288690003	0	0.930000000000001	3.78	1	297.319071588005	297.808844534004	"9"	47812.147907512	47087.713738811	1.5	0.1
0.01	1	0.47528803399473	1	106	NA	327.907288690003	0	0.930000000000001	3.78	1	298.036885885005	298.512173919	"9"	47812.147907512	47087.713738811	1.5	0.1
0.01	1	1.27174038700468	1	106	NA	327.907288690003	0	0.930000000000001	3.78	1	298.738040703	300.009781090004	"9"	47812.147907512	47087.713738811	1.5	0.1
0.01	1	0.304758312995546	1	106	NA	327.907288690003	0	0.930000000000001	3.78	1	300.240579558005	300.545337871001	"9"	47812.147907512	47087.713738811	1.5	0.1
0.01	1	0.338508161003119	1	106	NA	327.907288690003	0	0.930000000000001	3.78	1	300.774880835001	301.113388996004	"9"	47812.147907512	47087.713738811	1.5	0.1
0.01	1	0.29914715000632	1	106	NA	327.907288690003	0	0.930000000000001	3.78	1	301.342429138	301.641576288006	"9"	47812.147907512	47087.713738811	1.5	0.1
0.01	1	0.331716444998165	1	106	NA	327.907288690003	0	0.930000000000001	3.78	1	301.876758768005	302.208475213003	"9"	47812.147907512	47087.713738811	1.5	0.1
0.01	1	0.389567204998457	1	106	NA	327.907288690003	0	0.930000000000001	3.78	1	302.444243073005	302.833810278004	"9"	47812.147907512	47087.713738811	1.5	0.1
0.01	1	0.345969674999651	1	106	NA	327.907288690003	0	0.930000000000001	3.78	1	303.061991827002	303.407961502002	"9"	47812.147907512	47087.713738811	1.5	0.1
0.01	1	0.299574404998566	1	106	NA	327.907288690003	0	0.930000000000001	3.78	1	303.646295750004	303.945870155003	"9"	47812.147907512	47087.713738811	1.5	0.1
0.01	1	0.316565999004524	1	106	NA	327.907288690003	0	0.930000000000001	3.78	1	304.180497365	304.497063364004	"9"	47812.147907512	47087.713738811	1.5	0.1
0.01	1	0.292667312998674	1	106	NA	327.907288690003	0	0.930000000000001	3.78	1	304.731411115004	305.024078428003	"9"	47812.147907512	47087.713738811	1.5	0.1
0.01	1	0.319212384994898	1	106	NA	327.907288690003	0	0.930000000000001	3.78	1	305.249019423005	305.568231808	"9"	47812.147907512	47087.713738811	1.5	0.1
0.01	1	0.417351488002168	1	106	NA	327.907288690003	0	0.930000000000001	3.78	1	305.799909538	306.217261026002	"9"	47812.147907512	47087.713738811	1.5	0.1
0.01	1	0.430588103998161	1	106	NA	327.907288690003	0	0.930000000000001	3.78	1	306.451066113004	306.881654217003	"9"	47812.147907512	47087.713738811	1.5	0.1
0.01	1	1.54699098999845	1	106	NA	327.907288690003	0	0.930000000000001	3.78	1	307.118877893001	308.665868882999	"9"	47812.147907512	47087.713738811	1.5	0.1
0.01	1	0.560306131999823	1	106	NA	327.907288690003	0	0.930000000000001	3.78	1	308.888425735	309.448731867	"9"	47812.147907512	47087.713738811	1.5	0.1
0.01	1	0.847827175995917	1	106	NA	327.907288690003	0	0.930000000000001	3.78	1	309.673154230004	310.520981406	"9"	47812.147907512	47087.713738811	1.5	0.1
0.01	1	1.0186944800007	1	106	NA	327.907288690003	0	0.930000000000001	3.78	1	310.758241030002	311.776935510003	"9"	47812.147907512	47087.713738811	1.5	0.1
0.01	1	0.391527252999367	1	106	NA	327.907288690003	0	0.930000000000001	3.78	1	312.010377975006	312.401905228005	"9"	47812.147907512	47087.713738811	1.5	0.1
0.01	1	0.428075278003234	1	106	NA	327.907288690003	0	0.930000000000001	3.78	1	312.628079725	313.056155003003	"9"	47812.147907512	47087.713738811	1.5	0.1
0.01	1	0.410533907997888	1	106	NA	327.907288690003	0	0.930000000000001	3.78	1	313.279160255006	313.689694163004	"9"	47812.147907512	47087.713738811	1.5	0.1
0.01	1	0.574653237999883	1	106	NA	327.907288690003	0	0.930000000000001	3.78	1	313.930306933005	314.504960171005	"9"	47812.147907512	47087.713738811	1.5	0.1
0.01	1	0.404690576004214	1	106	NA	327.907288690003	0	0.930000000000001	3.78	1	314.731576557002	315.136267133006	"9"	47812.147907512	47087.713738811	1.5	0.1
0.01	1	0.394481479997921	1	106	NA	327.907288690003	0	0.930000000000001	3.78	1	315.365951053005	315.760432533003	"9"	47812.147907512	47087.713738811	1.5	0.1
0.01	1	0.441464357005316	1	106	NA	327.907288690003	0	0.930000000000001	3.78	1	315.983934985001	316.425399342006	"9"	47812.147907512	47087.713738811	1.5	0.1
0.01	1	0.38103909399797	1	106	NA	327.907288690003	0	0.930000000000001	3.78	1	316.651490588003	317.032529682001	"9"	47812.147907512	47087.713738811	1.5	0.1
0.01	1	0.355786343003274	1	106	NA	327.907288690003	0	0.930000000000001	3.78	1	317.269221893002	317.625008236006	"9"	47812.147907512	47087.713738811	1.5	0.1
0.01	1	0.306677847001993	1	106	NA	327.907288690003	0	0.930000000000001	3.78	1	317.853571035004	318.160248882006	"9"	47812.147907512	47087.713738811	1.5	0.1
0.01	1	0.349907499999972	1	106	NA	327.907288690003	0	0.930000000000001	3.78	1	318.387720746003	318.737628246003	"9"	47812.147907512	47087.713738811	1.5	0.1
0.01	1	0.33318929199595	1	106	NA	327.907288690003	0	0.930000000000001	3.78	1	318.972090838004	319.30528013	"9"	47812.147907512	47087.713738811	1.5	0.1
0.01	1	0.342236958997091	1	106	NA	327.907288690003	0	0.930000000000001	3.78	1	319.539694755003	319.881931714001	"9"	47812.147907512	47087.713738811	1.5	0.1
0.01	1	0.341096431999176	1	106	NA	327.907288690003	0	0.930000000000001	3.78	1	320.107420038003	320.448516470002	"9"	47812.147907512	47087.713738811	1.5	0.1
0.01	1	0.269926963999751	1	106	NA	327.907288690003	0	0.930000000000001	3.78	1	320.674936608004	320.944863572004	"9"	47812.147907512	47087.713738811	1.5	0.1
0.01	1	0.265476574997592	1	106	NA	327.907288690003	0	0.930000000000001	3.78	1	321.175713950004	321.441190525002	"9"	47812.147907512	47087.713738811	1.5	0.1
0.01	1	0.347294801998942	1	106	NA	327.907288690003	0	0.930000000000001	3.78	1	321.676612618001	322.02390742	"9"	47812.147907512	47087.713738811	1.5	0.1
0.01	1	0.26064108099672	1	106	NA	327.907288690003	0	0.930000000000001	3.78	1	322.261020157006	322.521661238003	"9"	47812.147907512	47087.713738811	1.5	0.1
0.01	1	0.336122059998161	1	106	NA	327.907288690003	0	0.930000000000001	3.78	1	322.745044228002	323.081166288001	"9"	47812.147907512	47087.713738811	1.5	0.1
0.01	1	0.320045779997599	1	106	NA	327.907288690003	0	0.930000000000001	3.78	1	323.312801963002	323.632847743	"9"	47812.147907512	47087.713738811	1.5	0.1
0.01	1	0.297649892003392	1	106	NA	327.907288690003	0	0.930000000000001	3.78	1	323.863626758	324.161276650004	"9"	47812.147907512	47087.713738811	1.5	0.1
0.01	1	0.810284489001788	1	106	NA	327.907288690003	0	0.930000000000001	3.78	1	324.397848088003	325.208132577005	"9"	47812.147907512	47087.713738811	1.5	0.1
0.01	1	0.239528931000677	1	106	NA	327.907288690003	0	0.930000000000001	3.78	1	325.433041148004	325.672570079005	"9"	47812.147907512	47087.713738811	1.5	0.1
0.01	1	0.293398678004451	1	106	NA	327.907288690003	0	0.930000000000001	3.78	1	325.900417119999	326.193815798004	"9"	47812.147907512	47087.713738811	1.5	0.1
0.01	1	0.287997391998942	1	106	NA	327.907288690003	0	0.930000000000001	3.78	1	326.417934730001	326.705932122	"9"	47812.147907512	47087.713738811	1.5	0.1
0.01	1	0.289224852996995	1	106	NA	327.907288690003	0	0.930000000000001	3.78	1	326.935458103006	327.224682956003	"9"	47812.147907512	47087.713738811	1.5	0.1
0.01	1	0.452597727002285	2	106	NA	327.907288690003	0	0.930000000000001	3.78	1	327.453124493004	327.905722220006	"9"	47812.147907512	47087.713738811	1.5	0.1
0.01	1	1.59472417499637	1	21	338.809399353006	NA	1	0	3.78	1	329.957226178005	331.551950353001	"10"	47812.147907512	47087.713738811	1.5	0.1
0.01	1	0.119681453994417	1	21	338.809399353006	NA	1	0	3.78	1	331.776987993006	331.896669447	"10"	47812.147907512	47087.713738811	1.5	0.1
0.01	1	0.377236929998617	1	21	338.809399353006	NA	1	0	3.78	1	332.127563033006	332.504799963004	"10"	47812.147907512	47087.713738811	1.5	0.1
0.01	1	0.0557018059989787	1	21	338.809399353006	NA	1	0	3.78	1	332.728566673002	332.784268479001	"10"	47812.147907512	47087.713738811	1.5	0.1
0.01	1	0.213091612000426	1	21	338.809399353006	NA	1	0	3.78	1	333.012301815004	333.225393427005	"10"	47812.147907512	47087.713738811	1.5	0.1
0.01	1	0.0976724249994732	1	21	338.809399353006	NA	1	0	3.78	1	333.463136628001	333.560809053	"10"	47812.147907512	47087.713738811	1.5	0.1
0.01	1	0.107689595999545	1	21	338.809399353006	NA	1	0	3.78	1	333.797113068002	333.904802664001	"10"	47812.147907512	47087.713738811	1.5	0.1
0.01	1	0.125503674003994	1	21	338.809399353006	NA	1	0	3.78	1	334.130895643	334.256399317004	"10"	47812.147907512	47087.713738811	1.5	0.1
0.01	1	0.11096930399799	1	21	338.809399353006	NA	1	0	3.78	1	334.481535898005	334.592505202003	"10"	47812.147907512	47087.713738811	1.5	0.1
0.01	1	0.113671679995605	1	21	338.809399353006	NA	1	0	3.78	1	334.815367510004	334.929039189999	"10"	47812.147907512	47087.713738811	1.5	0.1
0.01	1	0.0983927289998974	1	21	338.809399353006	NA	1	0	3.78	1	335.166001345002	335.264394074002	"10"	47812.147907512	47087.713738811	1.5	0.1
0.01	1	0.117940310003178	1	21	338.809399353006	NA	1	0	3.78	1	335.499900048002	335.617840358005	"10"	47812.147907512	47087.713738811	1.5	0.1
0.01	1	0.150471082000877	1	21	338.809399353006	NA	1	0	3.78	1	335.850619418001	336.001090500002	"10"	47812.147907512	47087.713738811	1.5	0.1
0.01	1	0.102234716003295	1	21	338.809399353006	NA	1	0	3.78	1	336.234484922999	336.336719639003	"10"	47812.147907512	47087.713738811	1.5	0.1
0.01	1	0.0967941720009549	1	21	338.809399353006	NA	1	0	3.78	1	336.568341135004	336.665135307005	"10"	47812.147907512	47087.713738811	1.5	0.1
0.01	1	0.0736195879944717	1	21	338.809399353006	NA	1	0	3.78	1	336.902279755006	336.975899343	"10"	47812.147907512	47087.713738811	1.5	0.1
0.01	1	0.12739413199597	1	21	338.809399353006	NA	1	0	3.78	1	337.202573065006	337.329967197002	"10"	47812.147907512	47087.713738811	1.5	0.1
0.01	1	0.127711401000852	1	21	338.809399353006	NA	1	0	3.78	1	337.553304295005	337.681015696005	"10"	47812.147907512	47087.713738811	1.5	0.1
0.01	1	0.104175651002151	1	21	338.809399353006	NA	1	0	3.78	1	337.903897983	338.008073634002	"10"	47812.147907512	47087.713738811	1.5	0.1
0.01	1	0.123635933996411	1	21	338.809399353006	NA	1	0	3.78	1	338.237917738006	338.361553672003	"10"	47812.147907512	47087.713738811	1.5	0.1
0.01	1	0.107933402003255	1	21	338.809399353006	NA	1	0	3.78	1	338.588467330002	338.696400732006	"10"	47812.147907512	47087.713738811	1.5	0.1
0.01	1	0.806261694997374	1	19	351.831316358002	NA	1	0	3.78	1	340.858893938006	341.665155633003	"11"	47812.147907512	47087.713738811	1.5	0.1
0.01	1	0.203062196000246	1	19	351.831316358002	NA	1	0	3.78	1	341.894030355004	342.097092551005	"11"	47812.147907512	47087.713738811	1.5	0.1
0.01	1	0.152051501005189	1	19	351.831316358002	NA	1	0	3.78	1	342.328097398	342.480148899005	"11"	47812.147907512	47087.713738811	1.5	0.1
0.01	1	0.128752459997486	1	19	351.831316358002	NA	1	0	3.78	1	342.712036248005	342.840788708003	"11"	47812.147907512	47087.713738811	1.5	0.1
0.01	1	0.130379218004236	1	19	351.831316358002	NA	1	0	3.78	1	343.079267508001	343.209646726005	"11"	47812.147907512	47087.713738811	1.5	0.1
0.01	1	0.170427234996168	1	19	351.831316358002	NA	1	0	3.78	1	343.446626303004	343.617053538001	"11"	47812.147907512	47087.713738811	1.5	0.1
0.01	1	0.169820653005445	1	19	351.831316358002	NA	1	0	3.78	1	343.847248628001	344.017069281006	"11"	47812.147907512	47087.713738811	1.5	0.1
0.01	1	0.120770754001569	1	19	351.831316358002	NA	1	0	3.78	1	344.247989128002	344.368759882003	"11"	47812.147907512	47087.713738811	1.5	0.1
0.01	1	0.145584936006344	1	19	351.831316358002	NA	1	0	3.78	1	344.598456432999	344.744041369006	"11"	47812.147907512	47087.713738811	1.5	0.1
0.01	1	0.203072225995129	1	19	351.831316358002	NA	1	0	3.78	1	344.965787133006	345.168859359001	"11"	47812.147907512	47087.713738811	1.5	0.1
0.01	1	0.160578981005528	1	19	351.831316358002	NA	1	0	3.78	1	345.399849695001	345.560428676006	"11"	47812.147907512	47087.713738811	1.5	0.1
0.01	1	0.193268309005362	1	19	351.831316358002	NA	1	0	3.78	1	345.783902053001	345.977170362006	"11"	47812.147907512	47087.713738811	1.5	0.1
0.01	1	0.192164526997658	1	19	351.831316358002	NA	1	0	3.78	1	346.201280938003	346.393445465001	"11"	47812.147907512	47087.713738811	1.5	0.1
0.01	1	0.399300788994879	1	19	351.831316358002	NA	1	0	3.78	1	346.618676408005	347.017977197	"11"	47812.147907512	47087.713738811	1.5	0.1
0.01	1	1.95696062799834	1	19	351.831316358002	NA	1	0	3.78	1	347.253004837003	349.209965465001	"11"	47812.147907512	47087.713738811	1.5	0.1
0.01	1	0.376005427999189	1	19	351.831316358002	NA	1	0	3.78	1	349.440034178006	349.816039606005	"11"	47812.147907512	47087.713738811	1.5	0.1
0.01	1	0.431895645997429	1	19	351.831316358002	NA	1	0	3.78	1	350.057655568002	350.489551213999	"11"	47812.147907512	47087.713738811	1.5	0.1
0.01	1	0.426982782999403	1	19	351.831316358002	NA	1	0	3.78	1	350.725598045006	351.152580828006	"11"	47812.147907512	47087.713738811	1.5	0.1
0.01	1	0.335416027999599	1	19	351.831316358002	NA	1	0	3.78	1	351.376647545003	351.712063573003	"11"	47812.147907512	47087.713738811	1.5	0.1
0.01	1	0.520284115998948	1	63	NA	361.217841952006	0	0.14	3.92	1	353.880789555005	354.401073671004	"12"	47812.147907512	47087.713738811	1.5	0.1
0.01	1	0.0490412159997504	1	63	NA	361.217841952006	0	0.14	3.92	1	354.63204805	354.681089266	"12"	47812.147907512	47087.713738811	1.5	0.1
0.01	1	0.0860504370066337	1	63	NA	361.217841952006	0	0.14	3.92	1	354.915878047999	355.001928485006	"12"	47812.147907512	47087.713738811	1.5	0.1
0.01	1	0.039175838996016	1	63	NA	361.217841952006	0	0.14	3.92	1	355.233126358005	355.272302197001	"12"	47812.147907512	47087.713738811	1.5	0.1
0.01	1	0.0840592290041968	1	63	NA	361.217841952006	0	0.14	3.92	1	355.500181265001	355.584240494005	"12"	47812.147907512	47087.713738811	1.5	0.1
0.01	1	0.120038587003364	1	63	NA	361.217841952006	0	0.14	3.92	1	355.817489818	355.937528405004	"12"	47812.147907512	47087.713738811	1.5	0.1
0.01	1	0.0964549459968111	1	63	NA	361.217841952006	0	0.14	3.92	1	356.168030607005	356.264485553002	"12"	47812.147907512	47087.713738811	1.5	0.1
0.01	1	0.0760296170046786	1	63	NA	361.217841952006	0	0.14	3.92	1	356.501855618	356.577885235005	"12"	47812.147907512	47087.713738811	1.5	0.1
0.01	1	0.253787262001424	1	63	NA	361.217841952006	0	0.14	3.92	1	356.802348563004	357.056135825005	"12"	47812.147907512	47087.713738811	1.5	0.1
0.01	1	0.409667009000259	1	63	NA	361.217841952006	0	0.14	3.92	1	357.286372007002	357.696039016002	"12"	47812.147907512	47087.713738811	1.5	0.1
0.01	1	0.384352631997899	1	63	NA	361.217841952006	0	0.14	3.92	1	357.921033533006	358.305386165004	"12"	47812.147907512	47087.713738811	1.5	0.1
0.01	1	0.342838384000061	1	63	NA	361.217841952006	0	0.14	3.92	1	358.538578353	358.881416737	"12"	47812.147907512	47087.713738811	1.5	0.1
0.01	1	0.447700562996033	1	63	NA	361.217841952006	0	0.14	3.92	1	359.106301743006	359.554002306002	"12"	47812.147907512	47087.713738811	1.5	0.1
0.01	1	0.465706367001985	1	63	NA	361.217841952006	0	0.14	3.92	1	359.790776305003	360.256482672004	"12"	47812.147907512	47087.713738811	1.5	0.1
0.01	1	0.72440312699473	2	63	NA	361.217841952006	0	0.14	3.92	1	360.491861573006	361.2162647	"12"	47812.147907512	47087.713738811	1.5	0.1
0.01	1	0.610388556000544	1	54	NA	386.712397077004	0	0.28	4.2	1	363.263240578002	363.873629134003	"13"	47812.147907512	47087.713738811	1.5	0.1
0.01	1	0.0695834009966347	1	54	NA	386.712397077004	0	0.28	4.2	1	364.114772673005	364.184356074002	"13"	47812.147907512	47087.713738811	1.5	0.1
0.01	1	0.114082378000603	1	54	NA	386.712397077004	0	0.28	4.2	1	364.415292584999	364.529374963	"13"	47812.147907512	47087.713738811	1.5	0.1
0.01	1	0.0761773140038713	1	54	NA	386.712397077004	0	0.28	4.2	1	364.765764313001	364.841941627004	"13"	47812.147907512	47087.713738811	1.5	0.1
0.01	1	0.103188672997931	1	54	NA	386.712397077004	0	0.28	4.2	1	365.066328593006	365.169517266004	"13"	47812.147907512	47087.713738811	1.5	0.1
0.01	1	0.112114514995483	1	54	NA	386.712397077004	0	0.28	4.2	1	365.400204665006	365.512319180001	"13"	47812.147907512	47087.713738811	1.5	0.1
0.01	1	0.162394150996988	1	54	NA	386.712397077004	0	0.28	4.2	1	365.750719403004	365.913113554001	"13"	47812.147907512	47087.713738811	1.5	0.1
0.01	1	0.714689692998945	1	54	NA	386.712397077004	0	0.28	4.2	1	366.134814298006	366.849503991005	"13"	47812.147907512	47087.713738811	1.5	0.1
0.01	1	0.315191205998417	1	54	NA	386.712397077004	0	0.28	4.2	1	367.086484808002	367.401676014	"13"	47812.147907512	47087.713738811	1.5	0.1
0.01	1	0.172377257993503	1	54	NA	386.712397077004	0	0.28	4.2	1	367.637244068006	367.809621326	"13"	47812.147907512	47087.713738811	1.5	0.1
0.01	1	0.474125248001656	1	54	NA	386.712397077004	0	0.28	4.2	1	368.037891338005	368.512016586006	"13"	47812.147907512	47087.713738811	1.5	0.1
0.01	1	0.350125577002473	1	54	NA	386.712397077004	0	0.28	4.2	1	368.739099773004	369.089225350006	"13"	47812.147907512	47087.713738811	1.5	0.1
0.01	1	0.261286375003692	1	54	NA	386.712397077004	0	0.28	4.2	1	369.323491798001	369.584778173004	"13"	47812.147907512	47087.713738811	1.5	0.1
0.01	1	0.538389549998101	1	54	NA	386.712397077004	0	0.28	4.2	1	369.807605038004	370.345994588002	"13"	47812.147907512	47087.713738811	1.5	0.1
0.01	1	0.416695389998495	1	54	NA	386.712397077004	0	0.28	4.2	1	370.575613038003	370.992308428002	"13"	47812.147907512	47087.713738811	1.5	0.1
0.01	1	0.525774476998777	1	54	NA	386.712397077004	0	0.28	4.2	1	371.226695190002	371.752469667001	"13"	47812.147907512	47087.713738811	1.5	0.1
0.01	1	0.685994255996775	1	54	NA	386.712397077004	0	0.28	4.2	1	371.978042778006	372.664037034003	"13"	47812.147907512	47087.713738811	1.5	0.1
0.01	1	0.400068422000913	1	54	NA	386.712397077004	0	0.28	4.2	1	372.896119818004	373.296188240005	"13"	47812.147907512	47087.713738811	1.5	0.1
0.01	1	0.510213966997981	1	54	NA	386.712397077004	0	0.28	4.2	1	373.530547260001	374.040761226999	"13"	47812.147907512	47087.713738811	1.5	0.1
0.01	1	0.990856871998403	1	54	NA	386.712397077004	0	0.28	4.2	1	374.281923843002	375.272780715	"13"	47812.147907512	47087.713738811	1.5	0.1
0.01	1	0.532573922006122	1	54	NA	386.712397077004	0	0.28	4.2	1	375.500575938	376.033149860006	"13"	47812.147907512	47087.713738811	1.5	0.1
0.01	1	0.420655701003852	1	54	NA	386.712397077004	0	0.28	4.2	1	376.268652352999	376.689308054003	"13"	47812.147907512	47087.713738811	1.5	0.1
0.01	1	0.768478967002011	1	54	NA	386.712397077004	0	0.28	4.2	1	376.919477053001	377.687956020003	"13"	47812.147907512	47087.713738811	1.5	0.1
0.01	1	0.583953078006743	1	54	NA	386.712397077004	0	0.28	4.2	1	377.921229924999	378.505183003006	"13"	47812.147907512	47087.713738811	1.5	0.1
0.01	1	0.613197266997304	1	54	NA	386.712397077004	0	0.28	4.2	1	378.739417888006	379.352615155003	"13"	47812.147907512	47087.713738811	1.5	0.1
0.01	1	0.554225182000664	1	54	NA	386.712397077004	0	0.28	4.2	1	379.590746825001	380.144972007001	"13"	47812.147907512	47087.713738811	1.5	0.1
0.01	1	0.714302415995917	1	54	NA	386.712397077004	0	0.28	4.2	1	380.375442758006	381.089745174002	"13"	47812.147907512	47087.713738811	1.5	0.1
0.01	1	0.697414107999066	1	54	NA	386.712397077004	0	0.28	4.2	1	381.327013611	382.024427719	"13"	47812.147907512	47087.713738811	1.5	0.1
0.01	1	4.44896649599832	2	54	NA	386.712397077004	0	0.28	4.2	1	382.261839778002	386.710806274001	"13"	47812.147907512	47087.713738811	1.5	0.1
0.01	1	0.930205049997312	1	103	NA	429.520222832005	0	0.840000000000001	5.04	1	388.756131607006	389.686336657003	"14"	47812.147907512	47087.713738811	1.5	0.1
0.01	1	0.136597554999753	1	103	NA	429.520222832005	0	0.840000000000001	5.04	1	389.924774528001	390.061372083001	"14"	47812.147907512	47087.713738811	1.5	0.1
0.01	1	0.170726188000117	1	103	NA	429.520222832005	0	0.840000000000001	5.04	1	390.291996688	390.462722876	"14"	47812.147907512	47087.713738811	1.5	0.1
0.01	1	0.146194297994953	1	103	NA	429.520222832005	0	0.840000000000001	5.04	1	390.692682755005	390.838877053	"14"	47812.147907512	47087.713738811	1.5	0.1
0.01	1	0.161216882996086	1	103	NA	429.520222832005	0	0.840000000000001	5.04	1	391.076718050004	391.237934933	"14"	47812.147907512	47087.713738811	1.5	0.1
0.01	1	0.176773578998109	1	103	NA	429.520222832005	0	0.840000000000001	5.04	1	391.460673215006	391.637446794004	"14"	47812.147907512	47087.713738811	1.5	0.1
0.01	1	0.160894492997613	1	103	NA	429.520222832005	0	0.840000000000001	5.04	1	391.861317040006	392.022211533003	"14"	47812.147907512	47087.713738811	1.5	0.1
0.01	1	0.192888236000726	1	103	NA	429.520222832005	0	0.840000000000001	5.04	1	392.245360538	392.438248774	"14"	47812.147907512	47087.713738811	1.5	0.1
0.01	1	0.151777566999954	1	103	NA	429.520222832005	0	0.840000000000001	5.04	1	392.662680893001	392.814458460001	"14"	47812.147907512	47087.713738811	1.5	0.1
0.01	1	0.167937783000525	1	103	NA	429.520222832005	0	0.840000000000001	5.04	1	393.046735593001	393.214673376002	"14"	47812.147907512	47087.713738811	1.5	0.1
0.01	1	0.189841390005313	1	103	NA	429.520222832005	0	0.840000000000001	5.04	1	393.447365253	393.637206643005	"14"	47812.147907512	47087.713738811	1.5	0.1
0.01	1	0.149366345001908	1	103	NA	429.520222832005	0	0.840000000000001	5.04	1	393.864845645003	394.014211990005	"14"	47812.147907512	47087.713738811	1.5	0.1
0.01	1	0.15691593199881	1	103	NA	429.520222832005	0	0.840000000000001	5.04	1	394.248702548	394.405618479999	"14"	47812.147907512	47087.713738811	1.5	0.1
0.01	1	0.173953382000036	1	103	NA	429.520222832005	0	0.840000000000001	5.04	1	394.632717283006	394.806670665006	"14"	47812.147907512	47087.713738811	1.5	0.1
0.01	1	0.180602289998205	1	103	NA	429.520222832005	0	0.840000000000001	5.04	1	395.033420938002	395.214023228	"14"	47812.147907512	47087.713738811	1.5	0.1
0.01	1	0.178224813003908	1	103	NA	429.520222832005	0	0.840000000000001	5.04	1	395.450778040002	395.629002853006	"14"	47812.147907512	47087.713738811	1.5	0.1
0.01	1	0.194209152003168	1	103	NA	429.520222832005	0	0.840000000000001	5.04	1	395.851480265002	396.045689417006	"14"	47812.147907512	47087.713738811	1.5	0.1
0.01	1	0.193607485001849	1	103	NA	429.520222832005	0	0.840000000000001	5.04	1	396.268958063003	396.462565548005	"14"	47812.147907512	47087.713738811	1.5	0.1
0.01	1	0.239871637997567	1	103	NA	429.520222832005	0	0.840000000000001	5.04	1	396.686192528003	396.926064166	"14"	47812.147907512	47087.713738811	1.5	0.1
0.01	1	0.165256884996779	1	103	NA	429.520222832005	0	0.840000000000001	5.04	1	397.153564028005	397.318820913002	"14"	47812.147907512	47087.713738811	1.5	0.1
0.01	1	0.139648538999609	1	103	NA	429.520222832005	0	0.840000000000001	5.04	1	397.554314635003	397.693963174002	"14"	47812.147907512	47087.713738811	1.5	0.1
0.01	1	0.1730092420039	1	103	NA	429.520222832005	0	0.840000000000001	5.04	1	397.921657933002	398.094667175006	"14"	47812.147907512	47087.713738811	1.5	0.1
0.01	1	0.172632862006139	1	103	NA	429.520222832005	0	0.840000000000001	5.04	1	398.32227343	398.494906292006	"14"	47812.147907512	47087.713738811	1.5	0.1
0.01	1	0.227808697003638	1	103	NA	429.520222832005	0	0.840000000000001	5.04	1	398.723004293002	398.950812990006	"14"	47812.147907512	47087.713738811	1.5	0.1
0.01	1	0.263480281995726	1	103	NA	429.520222832005	0	0.840000000000001	5.04	1	399.190345658004	399.45382594	"14"	47812.147907512	47087.713738811	1.5	0.1
0.01	1	0.225793833997159	1	103	NA	429.520222832005	0	0.840000000000001	5.04	1	399.691257943006	399.917051777004	"14"	47812.147907512	47087.713738811	1.5	0.1
0.01	1	0.200192035001237	1	103	NA	429.520222832005	0	0.840000000000001	5.04	1	400.141962833004	400.342154868005	"14"	47812.147907512	47087.713738811	1.5	0.1
0.01	1	0.317489811997802	1	103	NA	429.520222832005	0	0.840000000000001	5.04	1	400.576042828005	400.893532640002	"14"	47812.147907512	47087.713738811	1.5	0.1
0.01	1	0.271430037006212	1	103	NA	429.520222832005	0	0.840000000000001	5.04	1	401.126911615	401.398341652006	"14"	47812.147907512	47087.713738811	1.5	0.1
0.01	1	0.354090003995225	1	103	NA	429.520222832005	0	0.840000000000001	5.04	1	401.627824867006	401.981914871001	"14"	47812.147907512	47087.713738811	1.5	0.1
0.01	1	0.314477104002435	1	103	NA	429.520222832005	0	0.840000000000001	5.04	1	402.212163803	402.526640907003	"14"	47812.147907512	47087.713738811	1.5	0.1
0.01	1	0.298675003003154	1	103	NA	429.520222832005	0	0.840000000000001	5.04	1	402.763095155002	403.061770158005	"14"	47812.147907512	47087.713738811	1.5	0.1
0.01	1	0.245427793000999	1	103	NA	429.520222832005	0	0.840000000000001	5.04	1	403.297350715002	403.542778508003	"14"	47812.147907512	47087.713738811	1.5	0.1
0.01	1	0.28816393300076	1	103	NA	429.520222832005	0	0.840000000000001	5.04	1	403.781442665	404.069606598001	"14"	47812.147907512	47087.713738811	1.5	0.1
0.01	1	0.355350295001699	1	103	NA	429.520222832005	0	0.840000000000001	5.04	1	404.299003828004	404.654354123006	"14"	47812.147907512	47087.713738811	1.5	0.1
0.01	1	0.30642626300687	1	103	NA	429.520222832005	0	0.840000000000001	5.04	1	404.883322772999	405.189749036006	"14"	47812.147907512	47087.713738811	1.5	0.1
0.01	1	0.301197239998146	1	103	NA	429.520222832005	0	0.840000000000001	5.04	1	405.417428723005	405.718625963003	"14"	47812.147907512	47087.713738811	1.5	0.1
0.01	1	0.310131886995805	1	103	NA	429.520222832005	0	0.840000000000001	5.04	1	405.951738143005	406.261870030001	"14"	47812.147907512	47087.713738811	1.5	0.1
0.01	1	0.295513358003518	1	103	NA	429.520222832005	0	0.840000000000001	5.04	1	406.485919068	406.781432426003	"14"	47812.147907512	47087.713738811	1.5	0.1
0.01	1	0.306249690002005	1	103	NA	429.520222832005	0	0.840000000000001	5.04	1	407.003557673001	407.309807363003	"14"	47812.147907512	47087.713738811	1.5	0.1
0.01	1	0.235276729006728	1	103	NA	429.520222832005	0	0.840000000000001	5.04	1	407.537715895	407.772992624006	"14"	47812.147907512	47087.713738811	1.5	0.1
0.01	1	0.312914768001065	1	103	NA	429.520222832005	0	0.840000000000001	5.04	1	408.005275105003	408.318189873004	"14"	47812.147907512	47087.713738811	1.5	0.1
0.01	1	0.298219520002021	1	103	NA	429.520222832005	0	0.840000000000001	5.04	1	408.556174883	408.854394403003	"14"	47812.147907512	47087.713738811	1.5	0.1
0.01	1	0.307715039998584	1	103	NA	429.520222832005	0	0.840000000000001	5.04	1	409.090298013005	409.398013053004	"14"	47812.147907512	47087.713738811	1.5	0.1
0.01	1	0.23792764099926	1	103	NA	429.520222832005	0	0.840000000000001	5.04	1	409.624567613006	409.862495254005	"14"	47812.147907512	47087.713738811	1.5	0.1
0.01	1	0.330052245000843	1	103	NA	429.520222832005	0	0.840000000000001	5.04	1	410.092150113	410.422202358001	"14"	47812.147907512	47087.713738811	1.5	0.1
0.01	1	0.267181795999932	1	103	NA	429.520222832005	0	0.840000000000001	5.04	1	410.659719735006	410.926901531006	"14"	47812.147907512	47087.713738811	1.5	0.1
0.01	1	0.261855677999847	1	103	NA	429.520222832005	0	0.840000000000001	5.04	1	411.160497845005	411.422353523005	"14"	47812.147907512	47087.713738811	1.5	0.1
0.01	1	0.304635125001369	1	103	NA	429.520222832005	0	0.840000000000001	5.04	1	411.644602988003	411.949238113004	"14"	47812.147907512	47087.713738811	1.5	0.1
0.01	1	0.332150616995932	1	103	NA	429.520222832005	0	0.840000000000001	5.04	1	412.178897948004	412.511048565	"14"	47812.147907512	47087.713738811	1.5	0.1
0.01	1	0.363721793000877	1	103	NA	429.520222832005	0	0.840000000000001	5.04	1	412.746477443005	413.110199236005	"14"	47812.147907512	47087.713738811	1.5	0.1
0.01	1	0.275180861004628	1	103	NA	429.520222832005	0	0.840000000000001	5.04	1	413.347539103001	413.622719964005	"14"	47812.147907512	47087.713738811	1.5	0.1
0.01	1	0.278424465999706	1	103	NA	429.520222832005	0	0.840000000000001	5.04	1	413.848384968005	414.126809434005	"14"	47812.147907512	47087.713738811	1.5	0.1
0.01	1	0.264882440998917	1	103	NA	429.520222832005	0	0.840000000000001	5.04	1	414.349302565002	414.614185006001	"14"	47812.147907512	47087.713738811	1.5	0.1
0.01	1	0.299275958997896	1	103	NA	429.520222832005	0	0.840000000000001	5.04	1	414.850041538004	415.149317497002	"14"	47812.147907512	47087.713738811	1.5	0.1
0.01	1	0.293882705002034	1	103	NA	429.520222832005	0	0.840000000000001	5.04	1	415.384314383002	415.678197088004	"14"	47812.147907512	47087.713738811	1.5	0.1
0.01	1	0.270575706999807	1	103	NA	429.520222832005	0	0.840000000000001	5.04	1	415.918630755004	416.189206462004	"14"	47812.147907512	47087.713738811	1.5	0.1
0.01	1	0.242222984001273	1	103	NA	429.520222832005	0	0.840000000000001	5.04	1	416.419356268001	416.661579252002	"14"	47812.147907512	47087.713738811	1.5	0.1
0.01	1	0.294442972997786	1	103	NA	429.520222832005	0	0.840000000000001	5.04	1	416.886742280003	417.181185253001	"14"	47812.147907512	47087.713738811	1.5	0.1
0.01	1	0.322154059998866	1	103	NA	429.520222832005	0	0.840000000000001	5.04	1	417.404374713005	417.726528773004	"14"	47812.147907512	47087.713738811	1.5	0.1
0.01	1	0.178461476003577	1	103	NA	429.520222832005	0	0.840000000000001	5.04	1	417.955202063	418.133663539003	"14"	47812.147907512	47087.713738811	1.5	0.1
0.01	1	0.30607150799915	1	103	NA	429.520222832005	0	0.840000000000001	5.04	1	418.355969865006	418.662041373005	"14"	47812.147907512	47087.713738811	1.5	0.1
0.01	1	0.314858177996939	1	103	NA	429.520222832005	0	0.840000000000001	5.04	1	418.890083278005	419.204941456002	"14"	47812.147907512	47087.713738811	1.5	0.1
0.01	1	0.188387745998625	1	103	NA	429.520222832005	0	0.840000000000001	5.04	1	419.441134350003	419.629522096002	"14"	47812.147907512	47087.713738811	1.5	0.1
0.01	1	0.211058451997815	1	103	NA	429.520222832005	0	0.840000000000001	5.04	1	419.858463793003	420.069522245001	"14"	47812.147907512	47087.713738811	1.5	0.1
0.01	1	0.202113866005675	1	103	NA	429.520222832005	0	0.840000000000001	5.04	1	420.292472818001	420.494586684006	"14"	47812.147907512	47087.713738811	1.5	0.1
0.01	1	0.248404700003448	1	103	NA	429.520222832005	0	0.840000000000001	5.04	1	420.726640373003	420.975045073006	"14"	47812.147907512	47087.713738811	1.5	0.1
0.01	1	0.196324839002045	1	103	NA	429.520222832005	0	0.840000000000001	5.04	1	421.210737663001	421.407062502003	"14"	47812.147907512	47087.713738811	1.5	0.1
0.01	1	0.20946395899955	1	103	NA	429.520222832005	0	0.840000000000001	5.04	1	421.645020488002	421.854484447002	"14"	47812.147907512	47087.713738811	1.5	0.1
0.01	1	0.230284067001776	1	103	NA	429.520222832005	0	0.840000000000001	5.04	1	422.078877874999	422.309161942001	"14"	47812.147907512	47087.713738811	1.5	0.1
0.01	1	0.235074614000041	1	103	NA	429.520222832005	0	0.840000000000001	5.04	1	422.546418823003	422.781493437004	"14"	47812.147907512	47087.713738811	1.5	0.1
0.01	1	0.215850989996397	1	103	NA	429.520222832005	0	0.840000000000001	5.04	1	423.013690575004	423.229541565001	"14"	47812.147907512	47087.713738811	1.5	0.1
0.01	1	0.165862608999305	1	103	NA	429.520222832005	0	0.840000000000001	5.04	1	423.464567315001	423.630429924	"14"	47812.147907512	47087.713738811	1.5	0.1
0.01	1	0.309680177997507	1	103	NA	429.520222832005	0	0.840000000000001	5.04	1	423.865270238006	424.174950416003	"14"	47812.147907512	47087.713738811	1.5	0.1
0.01	1	0.318369721004274	1	103	NA	429.520222832005	0	0.840000000000001	5.04	1	424.399542403	424.717912124004	"14"	47812.147907512	47087.713738811	1.5	0.1
0.01	1	0.198822024998663	1	103	NA	429.520222832005	0	0.840000000000001	5.04	1	424.950375865003	425.149197890001	"14"	47812.147907512	47087.713738811	1.5	0.1
0.01	1	0.214107213003444	1	103	NA	429.520222832005	0	0.840000000000001	5.04	1	425.384500123	425.598607336004	"14"	47812.147907512	47087.713738811	1.5	0.1
0.01	1	0.257906352999271	1	103	NA	429.520222832005	0	0.840000000000001	5.04	1	425.835187658005	426.093094011005	"14"	47812.147907512	47087.713738811	1.5	0.1
0.01	1	0.254012623001472	1	103	NA	429.520222832005	0	0.840000000000001	5.04	1	426.319380743	426.573393366001	"14"	47812.147907512	47087.713738811	1.5	0.1
0.01	1	0.153672401000222	1	103	NA	429.520222832005	0	0.840000000000001	5.04	1	426.803563353002	426.957235754002	"14"	47812.147907512	47087.713738811	1.5	0.1
0.01	1	0.466823149996344	1	103	NA	429.520222832005	0	0.840000000000001	5.04	1	427.187444615003	427.654267765	"14"	47812.147907512	47087.713738811	1.5	0.1
0.01	1	0.342036169000494	1	103	NA	429.520222832005	0	0.840000000000001	5.04	1	427.888709573002	428.230745742003	"14"	47812.147907512	47087.713738811	1.5	0.1
0.01	1	0.269957163996878	1	103	NA	429.520222832005	0	0.840000000000001	5.04	1	428.456237875005	428.726195039002	"14"	47812.147907512	47087.713738811	1.5	0.1
0.01	1	0.208399385999655	1	103	NA	429.520222832005	0	0.840000000000001	5.04	1	428.957107779002	429.165507165002	"14"	47812.147907512	47087.713738811	1.5	0.1
0.01	1	0.127528122000513	2	103	NA	429.520222832005	0	0.840000000000001	5.04	1	429.391144095003	429.518672217004	"14"	47812.147907512	47087.713738811	1.5	0.1
0.01	1	1.14079605499865	1	120	491.014422343003	NA	1	0	5.04	1	431.544920423003	432.685716478001	"15"	47812.147907512	47087.713738811	1.5	0.1
0.01	1	0.301185741001973	1	120	491.014422343003	NA	1	0	5.04	1	432.913769683	433.214955424002	"15"	47812.147907512	47087.713738811	1.5	0.1
0.01	1	0.22898454299866	1	120	491.014422343003	NA	1	0	5.04	1	433.448005638005	433.676990181004	"15"	47812.147907512	47087.713738811	1.5	0.1
0.01	1	0.179532090005523	1	120	491.014422343003	NA	1	0	5.04	1	433.915380013001	434.094912103006	"15"	47812.147907512	47087.713738811	1.5	0.1
0.01	1	0.193425609999395	1	120	491.014422343003	NA	1	0	5.04	1	434.332793478003	434.526219088002	"15"	47812.147907512	47087.713738811	1.5	0.1
0.01	1	0.183911494998029	1	120	491.014422343003	NA	1	0	5.04	1	434.750220303002	434.934131798	"15"	47812.147907512	47087.713738811	1.5	0.1
0.01	1	0.190966645001026	1	120	491.014422343003	NA	1	0	5.04	1	435.167526918005	435.358493563006	"15"	47812.147907512	47087.713738811	1.5	0.1
0.01	1	0.221623145000194	1	120	491.014422343003	NA	1	0	5.04	1	435.584903610004	435.806526755005	"15"	47812.147907512	47087.713738811	1.5	0.1
0.01	1	0.258579580004152	1	120	491.014422343003	NA	1	0	5.04	1	436.035727663002	436.294307243006	"15"	47812.147907512	47087.713738811	1.5	0.1
0.01	1	0.270151727003395	1	120	491.014422343003	NA	1	0	5.04	1	436.519814075	436.789965802003	"15"	47812.147907512	47087.713738811	1.5	0.1
0.01	1	0.30426111700217	1	120	491.014422343003	NA	1	0	5.04	1	437.020685583004	437.324946700006	"15"	47812.147907512	47087.713738811	1.5	0.1
0.01	1	0.275146661995677	1	120	491.014422343003	NA	1	0	5.04	1	437.554837036005	437.829983698	"15"	47812.147907512	47087.713738811	1.5	0.1
0.01	1	0.253418787004193	1	120	491.014422343003	NA	1	0	5.04	1	438.055750018	438.309168805004	"15"	47812.147907512	47087.713738811	1.5	0.1
0.01	1	0.290635444995132	1	120	491.014422343003	NA	1	0	5.04	1	438.539909654006	438.830545099001	"15"	47812.147907512	47087.713738811	1.5	0.1
0.01	1	0.212326433997077	1	120	491.014422343003	NA	1	0	5.04	1	439.057504873002	439.269831307	"15"	47812.147907512	47087.713738811	1.5	0.1
0.01	1	0.273965517000761	1	120	491.014422343003	NA	1	0	5.04	1	439.508156173004	439.782121690005	"15"	47812.147907512	47087.713738811	1.5	0.1
0.01	1	0.291953613996156	1	120	491.014422343003	NA	1	0	5.04	1	440.009055403003	440.301009016999	"15"	47812.147907512	47087.713738811	1.5	0.1
0.01	1	0.270952336999471	1	120	491.014422343003	NA	1	0	5.04	1	440.526572033006	440.797524370006	"15"	47812.147907512	47087.713738811	1.5	0.1
0.01	1	0.24271946400404	1	120	491.014422343003	NA	1	0	5.04	1	441.027443968	441.270163432004	"15"	47812.147907512	47087.713738811	1.5	0.1
0.01	1	0.311045705995639	1	120	491.014422343003	NA	1	0	5.04	1	441.494925568004	441.805971274	"15"	47812.147907512	47087.713738811	1.5	0.1
0.01	1	0.256612789002247	1	120	491.014422343003	NA	1	0	5.04	1	442.029068513002	442.285681302004	"15"	47812.147907512	47087.713738811	1.5	0.1
0.01	1	0.317763387000014	1	120	491.014422343003	NA	1	0	5.04	1	442.513244684	442.831008071	"15"	47812.147907512	47087.713738811	1.5	0.1
0.01	1	0.262689726005192	1	120	491.014422343003	NA	1	0	5.04	1	443.064257528	443.326947254005	"15"	47812.147907512	47087.713738811	1.5	0.1
0.01	1	0.305762942000001	1	120	491.014422343003	NA	1	0	5.04	1	443.564930742999	443.870693684999	"15"	47812.147907512	47087.713738811	1.5	0.1
0.01	1	0.346133106002526	1	120	491.014422343003	NA	1	0	5.04	1	444.099236328002	444.445369434005	"15"	47812.147907512	47087.713738811	1.5	0.1
0.01	1	0.273970078000275	1	120	491.014422343003	NA	1	0	5.04	1	444.683571924004	444.957542002005	"15"	47812.147907512	47087.713738811	1.5	0.1
0.01	1	0.245816359005403	1	120	491.014422343003	NA	1	0	5.04	1	445.184433984999	445.430250344005	"15"	47812.147907512	47087.713738811	1.5	0.1
0.01	1	0.313631500997872	1	120	491.014422343003	NA	1	0	5.04	1	445.668500033004	445.982131534001	"15"	47812.147907512	47087.713738811	1.5	0.1
0.01	1	0.290119548997609	1	120	491.014422343003	NA	1	0	5.04	1	446.219461915003	446.509581464001	"15"	47812.147907512	47087.713738811	1.5	0.1
0.01	1	0.25383769399923	1	120	491.014422343003	NA	1	0	5.04	1	446.737106283006	446.990943977005	"15"	47812.147907512	47087.713738811	1.5	0.1
0.01	1	0.296808367995254	1	120	491.014422343003	NA	1	0	5.04	1	447.221173718004	447.517982085999	"15"	47812.147907512	47087.713738811	1.5	0.1
0.01	1	0.241739978999249	1	120	491.014422343003	NA	1	0	5.04	1	447.755441798006	447.997181777006	"15"	47812.147907512	47087.713738811	1.5	0.1
0.01	1	0.327882249002869	1	120	491.014422343003	NA	1	0	5.04	1	448.223054948001	448.550937197004	"15"	47812.147907512	47087.713738811	1.5	0.1
0.01	1	0.343488601996796	1	120	491.014422343003	NA	1	0	5.04	1	448.773827700003	449.117316301999	"15"	47812.147907512	47087.713738811	1.5	0.1
0.01	1	0.312601323996205	1	120	491.014422343003	NA	1	0	5.04	1	449.341409163004	449.654010487	"15"	47812.147907512	47087.713738811	1.5	0.1
0.01	1	0.232940902998962	1	120	491.014422343003	NA	1	0	5.04	1	449.892293828001	450.125234731	"15"	47812.147907512	47087.713738811	1.5	0.1
0.01	1	0.254864547001489	1	120	491.014422343003	NA	1	0	5.04	1	450.359753153003	450.614617700005	"15"	47812.147907512	47087.713738811	1.5	0.1
0.01	1	0.281951664997905	1	120	491.014422343003	NA	1	0	5.04	1	450.843870943005	451.125822608003	"15"	47812.147907512	47087.713738811	1.5	0.1
0.01	1	0.268546769999375	1	120	491.014422343003	NA	1	0	5.04	1	451.361500163002	451.630046933002	"15"	47812.147907512	47087.713738811	1.5	0.1
0.01	1	0.34462113599875	1	120	491.014422343003	NA	1	0	5.04	1	451.862247670004	452.206868806003	"15"	47812.147907512	47087.713738811	1.5	0.1
0.01	1	0.313113272997725	1	120	491.014422343003	NA	1	0	5.04	1	452.429953580002	452.743066853	"15"	47812.147907512	47087.713738811	1.5	0.1
0.01	1	0.352838519997022	1	120	491.014422343003	NA	1	0	5.04	1	452.980952370002	453.333790889999	"15"	47812.147907512	47087.713738811	1.5	0.1
0.01	1	0.345004443996004	1	120	491.014422343003	NA	1	0	5.04	1	453.565190660003	453.910195103999	"15"	47812.147907512	47087.713738811	1.5	0.1
0.01	1	0.328929985000286	1	120	491.014422343003	NA	1	0	5.04	1	454.132755218001	454.461685203001	"15"	47812.147907512	47087.713738811	1.5	0.1
0.01	1	0.345159639000485	1	120	491.014422343003	NA	1	0	5.04	1	454.700342310003	455.045501949004	"15"	47812.147907512	47087.713738811	1.5	0.1
0.01	1	0.330498037001234	1	120	491.014422343003	NA	1	0	5.04	1	455.267972898	455.598470935001	"15"	47812.147907512	47087.713738811	1.5	0.1
0.01	1	0.273524864001956	1	120	491.014422343003	NA	1	0	5.04	1	455.835780913003	456.109305777005	"15"	47812.147907512	47087.713738811	1.5	0.1
0.01	1	0.277128780995554	1	120	491.014422343003	NA	1	0	5.04	1	456.336478765006	456.613607546002	"15"	47812.147907512	47087.713738811	1.5	0.1
0.01	1	0.280630683999334	1	120	491.014422343003	NA	1	0	5.04	1	456.837325433	457.117956116999	"15"	47812.147907512	47087.713738811	1.5	0.1
0.01	1	0.24249001499993	1	120	491.014422343003	NA	1	0	5.04	1	457.354899108002	457.597389123002	"15"	47812.147907512	47087.713738811	1.5	0.1
0.01	1	0.296648799005197	1	120	491.014422343003	NA	1	0	5.04	1	457.822378192999	458.119026992004	"15"	47812.147907512	47087.713738811	1.5	0.1
0.01	1	0.313250970000809	1	120	491.014422343003	NA	1	0	5.04	1	458.356537103005	458.669788073006	"15"	47812.147907512	47087.713738811	1.5	0.1
0.01	1	0.250287309994746	1	120	491.014422343003	NA	1	0	5.04	1	458.907492105005	459.157779415	"15"	47812.147907512	47087.713738811	1.5	0.1
0.01	1	0.294924031004484	1	120	491.014422343003	NA	1	0	5.04	1	459.391654125	459.686578156005	"15"	47812.147907512	47087.713738811	1.5	0.1
0.01	1	0.312854642004822	1	120	491.014422343003	NA	1	0	5.04	1	459.909144732999	460.221999375004	"15"	47812.147907512	47087.713738811	1.5	0.1
0.01	1	0.272990067998762	1	120	491.014422343003	NA	1	0	5.04	1	460.460070808003	460.733060876002	"15"	47812.147907512	47087.713738811	1.5	0.1
0.01	1	0.291987040000095	1	120	491.014422343003	NA	1	0	5.04	1	460.96093062	461.25291766	"15"	47812.147907512	47087.713738811	1.5	0.1
0.01	1	0.206687847996363	1	120	491.014422343003	NA	1	0	5.04	1	461.478433063006	461.685120911003	"15"	47812.147907512	47087.713738811	1.5	0.1
0.01	1	0.294532035004522	1	120	491.014422343003	NA	1	0	5.04	1	461.912501268002	462.207033303006	"15"	47812.147907512	47087.713738811	1.5	0.1
0.01	1	0.232115405000513	1	120	491.014422343003	NA	1	0	5.04	1	462.446707207004	462.678822612004	"15"	47812.147907512	47087.713738811	1.5	0.1
0.01	1	0.212481148002553	1	120	491.014422343003	NA	1	0	5.04	1	462.914183485002	463.126664633004	"15"	47812.147907512	47087.713738811	1.5	0.1
0.01	1	0.24970262300485	1	120	491.014422343003	NA	1	0	5.04	1	463.365060579999	463.614763203004	"15"	47812.147907512	47087.713738811	1.5	0.1
0.01	1	0.235975301999133	1	120	491.014422343003	NA	1	0	5.04	1	463.849134683005	464.085109985004	"15"	47812.147907512	47087.713738811	1.5	0.1
0.01	1	0.289612895001483	1	120	491.014422343003	NA	1	0	5.04	1	464.316649673005	464.606262568006	"15"	47812.147907512	47087.713738811	1.5	0.1
0.01	1	0.2110995740004	1	120	491.014422343003	NA	1	0	5.04	1	464.834074898004	465.045174472005	"15"	47812.147907512	47087.713738811	1.5	0.1
0.01	1	0.274613435998617	1	120	491.014422343003	NA	1	0	5.04	1	465.268252310001	465.542865746	"15"	47812.147907512	47087.713738811	1.5	0.1
0.01	1	0.237725947001309	1	120	491.014422343003	NA	1	0	5.04	1	465.769032870005	466.006758817006	"15"	47812.147907512	47087.713738811	1.5	0.1
0.01	1	0.289581570999871	1	120	491.014422343003	NA	1	0	5.04	1	466.236548525005	466.526130096005	"15"	47812.147907512	47087.713738811	1.5	0.1
0.01	1	0.251607312995475	1	120	491.014422343003	NA	1	0	5.04	1	466.754000033005	467.005607346	"15"	47812.147907512	47087.713738811	1.5	0.1
0.01	1	0.223313205002341	1	120	491.014422343003	NA	1	0	5.04	1	467.238220065003	467.461533270005	"15"	47812.147907512	47087.713738811	1.5	0.1
0.01	1	0.292957181001839	1	120	491.014422343003	NA	1	0	5.04	1	467.688842743002	467.981799924004	"15"	47812.147907512	47087.713738811	1.5	0.1
0.01	1	0.246887250003056	1	120	491.014422343003	NA	1	0	5.04	1	468.223188675001	468.470075925004	"15"	47812.147907512	47087.713738811	1.5	0.1
0.01	1	0.243688306996773	1	120	491.014422343003	NA	1	0	5.04	1	468.707270115003	468.950958422	"15"	47812.147907512	47087.713738811	1.5	0.1
0.01	1	0.272287689003861	1	120	491.014422343003	NA	1	0	5.04	1	469.174715333	469.447003022004	"15"	47812.147907512	47087.713738811	1.5	0.1
0.01	1	0.193761301998165	1	120	491.014422343003	NA	1	0	5.04	1	469.675566435006	469.869327737004	"15"	47812.147907512	47087.713738811	1.5	0.1
0.01	1	0.233845237999049	1	120	491.014422343003	NA	1	0	5.04	1	470.092984628005	470.326829866004	"15"	47812.147907512	47087.713738811	1.5	0.1
0.01	1	0.253997398001957	1	120	491.014422343003	NA	1	0	5.04	1	470.560413225001	470.814410623003	"15"	47812.147907512	47087.713738811	1.5	0.1
0.01	1	0.258129483998346	1	120	491.014422343003	NA	1	0	5.04	1	471.044565143005	471.302694627004	"15"	47812.147907512	47087.713738811	1.5	0.1
0.01	1	0.229329265996057	1	120	491.014422343003	NA	1	0	5.04	1	471.528644993006	471.757974259002	"15"	47812.147907512	47087.713738811	1.5	0.1
0.01	1	0.240714518004097	1	120	491.014422343003	NA	1	0	5.04	1	471.996270438001	472.236984956005	"15"	47812.147907512	47087.713738811	1.5	0.1
0.01	1	0.253465745001449	1	120	491.014422343003	NA	1	0	5.04	1	472.463576975002	472.717042720004	"15"	47812.147907512	47087.713738811	1.5	0.1
0.01	1	0.266661024994391	1	120	491.014422343003	NA	1	0	5.04	1	472.947804963005	473.214465988	"15"	47812.147907512	47087.713738811	1.5	0.1
0.01	1	0.212338846999046	1	120	491.014422343003	NA	1	0	5.04	1	473.448652701001	473.660991548	"15"	47812.147907512	47087.713738811	1.5	0.1
0.01	1	0.202874561000499	1	120	491.014422343003	NA	1	0	5.04	1	473.899324543003	474.102199104003	"15"	47812.147907512	47087.713738811	1.5	0.1
0.01	1	0.224197278002976	1	120	491.014422343003	NA	1	0	5.04	1	474.333436038003	474.557633316006	"15"	47812.147907512	47087.713738811	1.5	0.1
0.01	1	0.27095654400182	1	120	491.014422343003	NA	1	0	5.04	1	474.784173382999	475.055129927001	"15"	47812.147907512	47087.713738811	1.5	0.1
0.01	1	0.21609460900072	1	120	491.014422343003	NA	1	0	5.04	1	475.285123324	475.501217933001	"15"	47812.147907512	47087.713738811	1.5	0.1
0.01	1	0.278693209998892	1	120	491.014422343003	NA	1	0	5.04	1	475.735790413004	476.014483623003	"15"	47812.147907512	47087.713738811	1.5	0.1
0.01	1	0.232182219995593	1	120	491.014422343003	NA	1	0	5.04	1	476.236720058005	476.468902278	"15"	47812.147907512	47087.713738811	1.5	0.1
0.01	1	0.253486228000838	1	120	491.014422343003	NA	1	0	5.04	1	476.704031198002	476.957517426003	"15"	47812.147907512	47087.713738811	1.5	0.1
0.01	1	0.297244577996025	1	120	491.014422343003	NA	1	0	5.04	1	477.188233245004	477.485477823	"15"	47812.147907512	47087.713738811	1.5	0.1
0.01	1	0.250591376003285	1	120	491.014422343003	NA	1	0	5.04	1	477.722389750001	477.972981126004	"15"	47812.147907512	47087.713738811	1.5	0.1
0.01	1	0.231995875998109	1	120	491.014422343003	NA	1	0	5.04	1	478.206647160005	478.438643036003	"15"	47812.147907512	47087.713738811	1.5	0.1
0.01	1	0.220688863002579	1	120	491.014422343003	NA	1	0	5.04	1	478.674167728001	478.894856591003	"15"	47812.147907512	47087.713738811	1.5	0.1
0.01	1	0.256295043000137	1	120	491.014422343003	NA	1	0	5.04	1	479.124865223006	479.381160266006	"15"	47812.147907512	47087.713738811	1.5	0.1
0.01	1	0.243965069996193	1	120	491.014422343003	NA	1	0	5.04	1	479.608996018003	479.852961088	"15"	47812.147907512	47087.713738811	1.5	0.1
0.01	1	0.250660596997477	1	120	491.014422343003	NA	1	0	5.04	1	480.076406778004	480.327067375001	"15"	47812.147907512	47087.713738811	1.5	0.1
0.01	1	0.237750268002856	1	120	491.014422343003	NA	1	0	5.04	1	480.560653433	480.798403701003	"15"	47812.147907512	47087.713738811	1.5	0.1
0.01	1	0.234710267999617	1	120	491.014422343003	NA	1	0	5.04	1	481.027943458001	481.262653726	"15"	47812.147907512	47087.713738811	1.5	0.1
0.01	1	0.246958174000611	1	120	491.014422343003	NA	1	0	5.04	1	481.495496613003	481.742454787003	"15"	47812.147907512	47087.713738811	1.5	0.1
0.01	1	0.226155314994685	1	120	491.014422343003	NA	1	0	5.04	1	481.979586183006	482.205741498001	"15"	47812.147907512	47087.713738811	1.5	0.1
0.01	1	0.208007808003458	1	120	491.014422343003	NA	1	0	5.04	1	482.430341528001	482.638349336004	"15"	47812.147907512	47087.713738811	1.5	0.1
0.01	1	0.269800730995485	1	120	491.014422343003	NA	1	0	5.04	1	482.864459988006	483.134260719002	"15"	47812.147907512	47087.713738811	1.5	0.1
0.01	1	0.241445059000398	1	120	491.014422343003	NA	1	0	5.04	1	483.365338874006	483.606783933006	"15"	47812.147907512	47087.713738811	1.5	0.1
0.01	1	0.206043546000728	1	120	491.014422343003	NA	1	0	5.04	1	483.832695470002	484.038739016003	"15"	47812.147907512	47087.713738811	1.5	0.1
0.01	1	0.250980197000899	1	120	491.014422343003	NA	1	0	5.04	1	484.266828748005	484.517808945006	"15"	47812.147907512	47087.713738811	1.5	0.1
0.01	1	0.231920307000109	1	120	491.014422343003	NA	1	0	5.04	1	484.750992470006	484.982912777006	"15"	47812.147907512	47087.713738811	1.5	0.1
0.01	1	0.21958434300177	1	120	491.014422343003	NA	1	0	5.04	1	485.218463245001	485.438047588003	"15"	47812.147907512	47087.713738811	1.5	0.1
0.01	1	0.185364425000444	1	120	491.014422343003	NA	1	0	5.04	1	485.669183383005	485.854547808005	"15"	47812.147907512	47087.713738811	1.5	0.1
0.01	1	0.239690742004314	1	120	491.014422343003	NA	1	0	5.04	1	486.086568480001	486.326259222005	"15"	47812.147907512	47087.713738811	1.5	0.1
0.01	1	0.211928267002804	1	120	491.014422343003	NA	1	0	5.04	1	486.553970929999	486.765899197002	"15"	47812.147907512	47087.713738811	1.5	0.1
0.01	1	0.217341417999705	1	120	491.014422343003	NA	1	0	5.04	1	487.004824128002	487.222165546002	"15"	47812.147907512	47087.713738811	1.5	0.1
0.01	1	0.214909481997893	1	120	491.014422343003	NA	1	0	5.04	1	487.455505413003	487.670414895001	"15"	47812.147907512	47087.713738811	1.5	0.1
0.01	1	0.187151167003321	1	120	491.014422343003	NA	1	0	5.04	1	487.906313958003	488.093465125006	"15"	47812.147907512	47087.713738811	1.5	0.1
0.01	1	0.275053222001588	1	120	491.014422343003	NA	1	0	5.04	1	488.323627682999	488.598680905001	"15"	47812.147907512	47087.713738811	1.5	0.1
0.01	1	0.237801873001445	1	120	491.014422343003	NA	1	0	5.04	1	488.824551703001	489.062353576002	"15"	47812.147907512	47087.713738811	1.5	0.1
0.01	1	0.265059227000165	1	120	491.014422343003	NA	1	0	5.04	1	489.291971483006	489.557030710006	"15"	47812.147907512	47087.713738811	1.5	0.1
0.01	1	0.196295345005638	1	120	491.014422343003	NA	1	0	5.04	1	489.792850685	489.989146030006	"15"	47812.147907512	47087.713738811	1.5	0.1
0.01	1	0.196207649001735	1	120	491.014422343003	NA	1	0	5.04	1	490.226783106002	490.422990755003	"15"	47812.147907512	47087.713738811	1.5	0.1
0.01	1	0.232142793000094	1	120	491.014422343003	NA	1	0	5.04	1	490.660938178	490.893080971	"15"	47812.147907512	47087.713738811	1.5	0.1
0.01	1	0.653506276998087	1	109	NA	523.575514463002	0	0.61	5.65	1	493.048215548006	493.701721825004	"16"	47812.147907512	47087.713738811	1.5	0.1
0.01	1	0.112022882000019	1	109	NA	523.575514463002	0	0.61	5.65	1	493.933075743	494.045098625	"16"	47812.147907512	47087.713738811	1.5	0.1
0.01	1	0.170777883002302	1	109	NA	523.575514463002	0	0.61	5.65	1	494.283610553	494.454388436003	"16"	47812.147907512	47087.713738811	1.5	0.1
0.01	1	0.145653931998822	1	109	NA	523.575514463002	0	0.61	5.65	1	494.684292090002	494.829946022001	"16"	47812.147907512	47087.713738811	1.5	0.1
0.01	1	0.18634424800257	1	109	NA	523.575514463002	0	0.61	5.65	1	495.068275974001	495.254620222004	"16"	47812.147907512	47087.713738811	1.5	0.1
0.01	1	0.168047348000982	1	109	NA	523.575514463002	0	0.61	5.65	1	495.485693898001	495.653741246002	"16"	47812.147907512	47087.713738811	1.5	0.1
0.01	1	0.119774603001133	1	109	NA	523.575514463002	0	0.61	5.65	1	495.886483763003	496.006258366004	"16"	47812.147907512	47087.713738811	1.5	0.1
0.01	1	0.169139386998722	1	109	NA	523.575514463002	0	0.61	5.65	1	496.236960473005	496.406099860003	"16"	47812.147907512	47087.713738811	1.5	0.1
0.01	1	0.17567298799986	1	109	NA	523.575514463002	0	0.61	5.65	1	496.637583348005	496.813256336005	"16"	47812.147907512	47087.713738811	1.5	0.1
