"payoff.level"	"balloon"	"rt"	"resp"	"explode.trial"	"explode.time"	"finish.time"	"exploded"	"trial.total"	"cumulative.total"	"finished"	"trial.start"	"trial.end"	"trial.num"	"secs"	"start.time"	"iti"	"isi"
0.01	1	2.06564208	1	64	28.763105555	NA	1	0	0	1	0.0120718329999931	2.077713913	"1"	738.400430502	736.127008264	1.5	0.1
0.01	1	0.244426073999989	1	64	28.763105555	NA	1	0	0	1	2.431739752	2.67616582599999	"1"	738.400430502	736.127008264	1.5	0.1
0.01	1	0.256641290000005	1	64	28.763105555	NA	1	0	0	1	2.91592142299999	3.17256271299999	"1"	738.400430502	736.127008264	1.5	0.1
0.01	1	0.172148833999984	1	64	28.763105555	NA	1	0	0	1	3.40019355000001	3.572342384	"1"	738.400430502	736.127008264	1.5	0.1
0.01	1	0.148407544000008	1	64	28.763105555	NA	1	0	0	1	3.80091090499999	3.949318449	"1"	738.400430502	736.127008264	1.5	0.1
0.01	1	0.181161919999994	1	64	28.763105555	NA	1	0	0	1	4.18481269200001	4.365974612	"1"	738.400430502	736.127008264	1.5	0.1
0.01	1	0.0997286850000023	1	64	28.763105555	NA	1	0	0	1	4.60223105200001	4.70195973700001	"1"	738.400430502	736.127008264	1.5	0.1
0.01	1	0.110067456000024	1	64	28.763105555	NA	1	0	0	1	4.93601594699999	5.04608340300001	"1"	738.400430502	736.127008264	1.5	0.1
0.01	1	0.127986966999998	1	64	28.763105555	NA	1	0	0	1	5.26995249000001	5.39793945700001	"1"	738.400430502	736.127008264	1.5	0.1
0.01	1	0.0803402549999817	1	64	28.763105555	NA	1	0	0	1	5.62050980000001	5.70085005499999	"1"	738.400430502	736.127008264	1.5	0.1
0.01	1	0.0997390560000042	1	64	28.763105555	NA	1	0	0	1	5.93769240500001	6.03743146100001	"1"	738.400430502	736.127008264	1.5	0.1
0.01	1	0.0849045930000045	1	64	28.763105555	NA	1	0	0	1	6.27156429999999	6.356468893	"1"	738.400430502	736.127008264	1.5	0.1
0.01	1	0.0632737789999851	1	64	28.763105555	NA	1	0	0	1	6.588834741	6.65210851999998	"1"	738.400430502	736.127008264	1.5	0.1
0.01	1	0.0588458850000109	1	64	28.763105555	NA	1	0	0	1	6.88941359699999	6.948259482	"1"	738.400430502	736.127008264	1.5	0.1
0.01	1	0.104694031999998	1	64	28.763105555	NA	1	0	0	1	7.173161432	7.277855464	"1"	738.400430502	736.127008264	1.5	0.1
0.01	1	0.122673340000006	1	64	28.763105555	NA	1	0	0	1	7.50704979299999	7.629723133	"1"	738.400430502	736.127008264	1.5	0.1
0.01	1	0.0990193390000229	1	64	28.763105555	NA	1	0	0	1	7.85760923999999	7.95662857900001	"1"	738.400430502	736.127008264	1.5	0.1
0.01	1	0.12574320600001	1	64	28.763105555	NA	1	0	0	1	8.19147082699999	8.317214033	"1"	738.400430502	736.127008264	1.5	0.1
0.01	1	0.102489230999993	1	64	28.763105555	NA	1	0	0	1	8.54212243500001	8.644611666	"1"	738.400430502	736.127008264	1.5	0.1
0.01	1	0.114041267999994	1	64	28.763105555	NA	1	0	0	1	8.87603260200001	8.99007387	"1"	738.400430502	736.127008264	1.5	0.1
0.01	1	0.107463061999994	1	64	28.763105555	NA	1	0	0	1	9.226586325	9.33404938699999	"1"	738.400430502	736.127008264	1.5	0.1
0.01	1	0.0933667589999914	1	64	28.763105555	NA	1	0	0	1	9.56055707100001	9.65392383	"1"	738.400430502	736.127008264	1.5	0.1
0.01	1	0.151297393000021	1	64	28.763105555	NA	1	0	0	1	9.87764042999999	10.028937823	"1"	738.400430502	736.127008264	1.5	0.1
0.01	1	0.119534616999999	1	64	28.763105555	NA	1	0	0	1	10.261716983	10.3812516	"1"	738.400430502	736.127008264	1.5	0.1
0.01	1	0.13639133700002	1	64	28.763105555	NA	1	0	0	1	10.612285782	10.748677119	"1"	738.400430502	736.127008264	1.5	0.1
0.01	1	0.152704771000003	1	64	28.763105555	NA	1	0	0	1	10.979537864	11.132242635	"1"	738.400430502	736.127008264	1.5	0.1
0.01	1	0.113534659999999	1	64	28.763105555	NA	1	0	0	1	11.363609211	11.477143871	"1"	738.400430502	736.127008264	1.5	0.1
0.01	1	0.114204432000008	1	64	28.763105555	NA	1	0	0	1	11.714169607	11.828374039	"1"	738.400430502	736.127008264	1.5	0.1
0.01	1	0.243796239999995	1	64	28.763105555	NA	1	0	0	1	12.064859285	12.308655525	"1"	738.400430502	736.127008264	1.5	0.1
0.01	1	0.248380531000009	1	64	28.763105555	NA	1	0	0	1	12.532233107	12.780613638	"1"	738.400430502	736.127008264	1.5	0.1
0.01	1	0.189676363999979	1	64	28.763105555	NA	1	0	0	1	13.01639467	13.206071034	"1"	738.400430502	736.127008264	1.5	0.1
0.01	1	0.172071275000008	1	64	28.763105555	NA	1	0	0	1	13.43387133	13.605942605	"1"	738.400430502	736.127008264	1.5	0.1
0.01	1	0.178863871999994	1	64	28.763105555	NA	1	0	0	1	13.834330465	14.013194337	"1"	738.400430502	736.127008264	1.5	0.1
0.01	1	0.192348477999985	1	64	28.763105555	NA	1	0	0	1	14.251812967	14.444161445	"1"	738.400430502	736.127008264	1.5	0.1
0.01	1	0.174783377000011	1	64	28.763105555	NA	1	0	0	1	14.68579383	14.860577207	"1"	738.400430502	736.127008264	1.5	0.1
0.01	1	0.213796242000001	1	64	28.763105555	NA	1	0	0	1	15.08654749	15.300343732	"1"	738.400430502	736.127008264	1.5	0.1
0.01	1	0.16401746599999	1	64	28.763105555	NA	1	0	0	1	15.537191487	15.701208953	"1"	738.400430502	736.127008264	1.5	0.1
0.01	1	0.211246575000018	1	64	28.763105555	NA	1	0	0	1	15.93798226	16.149228835	"1"	738.400430502	736.127008264	1.5	0.1
0.01	1	0.225952067000009	1	64	28.763105555	NA	1	0	0	1	16.371893275	16.597845342	"1"	738.400430502	736.127008264	1.5	0.1
0.01	1	0.253500100999986	1	64	28.763105555	NA	1	0	0	1	16.822724555	17.076224656	"1"	738.400430502	736.127008264	1.5	0.1
0.01	1	0.22552396399999	1	64	28.763105555	NA	1	0	0	1	17.30693105	17.532455014	"1"	738.400430502	736.127008264	1.5	0.1
0.01	1	0.198562608000003	1	64	28.763105555	NA	1	0	0	1	17.757790995	17.956353603	"1"	738.400430502	736.127008264	1.5	0.1
0.01	1	0.214199584999989	1	64	28.763105555	NA	1	0	0	1	18.191624697	18.405824282	"1"	738.400430502	736.127008264	1.5	0.1
0.01	1	0.243468234999995	1	64	28.763105555	NA	1	0	0	1	18.642453685	18.88592192	"1"	738.400430502	736.127008264	1.5	0.1
0.01	1	0.246320502999993	1	64	28.763105555	NA	1	0	0	1	19.10992356	19.356244063	"1"	738.400430502	736.127008264	1.5	0.1
0.01	1	0.218619278000006	1	64	28.763105555	NA	1	0	0	1	19.59404787	19.812667148	"1"	738.400430502	736.127008264	1.5	0.1
0.01	1	0.289131696999988	1	64	28.763105555	NA	1	0	0	1	20.044788901	20.333920598	"1"	738.400430502	736.127008264	1.5	0.1
0.01	1	0.257862851999988	1	64	28.763105555	NA	1	0	0	1	20.562398045	20.820260897	"1"	738.400430502	736.127008264	1.5	0.1
0.01	1	0.254623901000002	1	64	28.763105555	NA	1	0	0	1	21.04656147	21.301185371	"1"	738.400430502	736.127008264	1.5	0.1
0.01	1	0.257867540999996	1	64	28.763105555	NA	1	0	0	1	21.53067169	21.788539231	"1"	738.400430502	736.127008264	1.5	0.1
0.01	1	0.238421469000002	1	64	28.763105555	NA	1	0	0	1	22.014979935	22.253401404	"1"	738.400430502	736.127008264	1.5	0.1
0.01	1	0.267284458000006	1	64	28.763105555	NA	1	0	0	1	22.482228562	22.74951302	"1"	738.400430502	736.127008264	1.5	0.1
0.01	1	0.213264296000006	1	64	28.763105555	NA	1	0	0	1	22.983132692	23.196396988	"1"	738.400430502	736.127008264	1.5	0.1
0.01	1	0.218267179000009	1	64	28.763105555	NA	1	0	0	1	23.433829404	23.652096583	"1"	738.400430502	736.127008264	1.5	0.1
0.01	1	0.224845912000006	1	64	28.763105555	NA	1	0	0	1	23.884579395	24.109425307	"1"	738.400430502	736.127008264	1.5	0.1
0.01	1	0.221757265999997	1	64	28.763105555	NA	1	0	0	1	24.335335087	24.557092353	"1"	738.400430502	736.127008264	1.5	0.1
0.01	1	0.234147170999989	1	64	28.763105555	NA	1	0	0	1	24.786102497	25.020249668	"1"	738.400430502	736.127008264	1.5	0.1
0.01	1	0.232145844000001	1	64	28.763105555	NA	1	0	0	1	25.25349033	25.485636174	"1"	738.400430502	736.127008264	1.5	0.1
0.01	1	0.283377284000011	1	64	28.763105555	NA	1	0	0	1	25.721079332	26.004456616	"1"	738.400430502	736.127008264	1.5	0.1
0.01	1	0.407519556000011	1	64	28.763105555	NA	1	0	0	1	26.238527221	26.646046777	"1"	738.400430502	736.127008264	1.5	0.1
0.01	1	0.348160395999997	1	64	28.763105555	NA	1	0	0	1	26.872903045	27.221063441	"1"	738.400430502	736.127008264	1.5	0.1
0.01	1	0.195280741000005	1	64	28.763105555	NA	1	0	0	1	27.457209982	27.652490723	"1"	738.400430502	736.127008264	1.5	0.1
0.01	1	0.289838806999995	1	64	28.763105555	NA	1	0	0	1	27.874721445	28.164560252	"1"	738.400430502	736.127008264	1.5	0.1
0.01	1	0.253242395000001	1	64	28.763105555	NA	1	0	0	1	28.392164922	28.645407317	"1"	738.400430502	736.127008264	1.5	0.1
0.01	1	0.336905101000013	1	102	NA	47.910146907	0	0.62	0.62	1	30.81293153	31.149836631	"2"	738.400430502	736.127008264	1.5	0.1
0.01	1	0.00458498500000815	1	102	NA	47.910146907	0	0.62	0.62	1	31.38049409	31.385079075	"2"	738.400430502	736.127008264	1.5	0.1
0.01	1	0.00387395499998888	1	102	NA	47.910146907	0	0.62	0.62	1	31.61431019	31.618184145	"2"	738.400430502	736.127008264	1.5	0.1
0.01	1	0.0042386719999854	1	102	NA	47.910146907	0	0.62	0.62	1	31.847918123	31.852156795	"2"	738.400430502	736.127008264	1.5	0.1
0.01	1	0.00395218299999556	1	102	NA	47.910146907	0	0.62	0.62	1	32.08165568	32.085607863	"2"	738.400430502	736.127008264	1.5	0.1
0.01	1	0.129180101000003	1	102	NA	47.910146907	0	0.62	0.62	1	32.315433875	32.444613976	"2"	738.400430502	736.127008264	1.5	0.1
0.01	1	0.00456460999998853	1	102	NA	47.910146907	0	0.62	0.62	1	32.682754315	32.687318925	"2"	738.400430502	736.127008264	1.5	0.1
0.01	1	0.00378346099998339	1	102	NA	47.910146907	0	0.62	0.62	1	32.916340592	32.920124053	"2"	738.400430502	736.127008264	1.5	0.1
0.01	1	0.00400954700000966	1	102	NA	47.910146907	0	0.62	0.62	1	33.15024208	33.154251627	"2"	738.400430502	736.127008264	1.5	0.1
0.01	1	0.00199334699999554	1	102	NA	47.910146907	0	0.62	0.62	1	33.383918725	33.385912072	"2"	738.400430502	736.127008264	1.5	0.1
0.01	1	0.00378919499999597	1	102	NA	47.910146907	0	0.62	0.62	1	33.617551562	33.621340757	"2"	738.400430502	736.127008264	1.5	0.1
0.01	1	0.129666156000013	1	102	NA	47.910146907	0	0.62	0.62	1	33.851348202	33.981014358	"2"	738.400430502	736.127008264	1.5	0.1
0.01	1	0.00377355000000534	1	102	NA	47.910146907	0	0.62	0.62	1	34.218637245	34.222410795	"2"	738.400430502	736.127008264	1.5	0.1
0.01	1	0.00384292200001823	1	102	NA	47.910146907	0	0.62	0.62	1	34.452312327	34.456155249	"2"	738.400430502	736.127008264	1.5	0.1
0.01	1	0.00908343799997624	1	102	NA	47.910146907	0	0.62	0.62	1	34.686102212	34.69518565	"2"	738.400430502	736.127008264	1.5	0.1
0.01	1	0.013935293000003	1	102	NA	47.910146907	0	0.62	0.62	1	34.919863065	34.933798358	"2"	738.400430502	736.127008264	1.5	0.1
0.01	1	0.00366207999999801	1	102	NA	47.910146907	0	0.62	0.62	1	35.170266165	35.173928245	"2"	738.400430502	736.127008264	1.5	0.1
0.01	1	0.00393368799998939	1	102	NA	47.910146907	0	0.62	0.62	1	35.403904527	35.407838215	"2"	738.400430502	736.127008264	1.5	0.1
0.01	1	0.0038432030000024	1	102	NA	47.910146907	0	0.62	0.62	1	35.63770249	35.641545693	"2"	738.400430502	736.127008264	1.5	0.1
0.01	1	0.00339133700001071	1	102	NA	47.910146907	0	0.62	0.62	1	35.871398592	35.874789929	"2"	738.400430502	736.127008264	1.5	0.1
0.01	1	0.123130328000002	1	102	NA	47.910146907	0	0.62	0.62	1	36.105175695	36.228306023	"2"	738.400430502	736.127008264	1.5	0.1
0.01	1	0.00349849200000563	1	102	NA	47.910146907	0	0.62	0.62	1	36.455834025	36.459332517	"2"	738.400430502	736.127008264	1.5	0.1
0.01	1	0.00378394099999468	1	102	NA	47.910146907	0	0.62	0.62	1	36.68948097	36.693264911	"2"	738.400430502	736.127008264	1.5	0.1
0.01	1	0.00379301800001031	1	102	NA	47.910146907	0	0.62	0.62	1	36.923192747	36.926985765	"2"	738.400430502	736.127008264	1.5	0.1
0.01	1	0.103427286999988	1	102	NA	47.910146907	0	0.62	0.62	1	37.15684933	37.260276617	"2"	738.400430502	736.127008264	1.5	0.1
0.01	1	0.00369409600000381	1	102	NA	47.910146907	0	0.62	0.62	1	37.490792327	37.494486423	"2"	738.400430502	736.127008264	1.5	0.1
0.01	1	0.00386808899997959	1	102	NA	47.910146907	0	0.62	0.62	1	37.724536932	37.728405021	"2"	738.400430502	736.127008264	1.5	0.1
0.01	1	0.00199181000002113	1	102	NA	47.910146907	0	0.62	0.62	1	37.958269555	37.960261365	"2"	738.400430502	736.127008264	1.5	0.1
0.01	1	0.00460724999999229	1	102	NA	47.910146907	0	0.62	0.62	1	38.19204798	38.19665523	"2"	738.400430502	736.127008264	1.5	0.1
0.01	1	0.00373563200000149	1	102	NA	47.910146907	0	0.62	0.62	1	38.425705865	38.429441497	"2"	738.400430502	736.127008264	1.5	0.1
0.01	1	0.00367497900001013	1	102	NA	47.910146907	0	0.62	0.62	1	38.659551932	38.663226911	"2"	738.400430502	736.127008264	1.5	0.1
0.01	1	0.12848226700001	1	102	NA	47.910146907	0	0.62	0.62	1	38.89310408	39.021586347	"2"	738.400430502	736.127008264	1.5	0.1
0.01	1	0.00219621499999789	1	102	NA	47.910146907	0	0.62	0.62	1	39.243843189	39.246039404	"2"	738.400430502	736.127008264	1.5	0.1
0.01	1	0.00219737399999076	1	102	NA	47.910146907	0	0.62	0.62	1	39.477422286	39.47961966	"2"	738.400430502	736.127008264	1.5	0.1
0.01	1	0.00209556200002226	1	102	NA	47.910146907	0	0.62	0.62	1	39.711342152	39.713437714	"2"	738.400430502	736.127008264	1.5	0.1
0.01	1	0.00209852700001534	1	102	NA	47.910146907	0	0.62	0.62	1	39.944960295	39.947058822	"2"	738.400430502	736.127008264	1.5	0.1
0.01	1	0.00456253499999093	1	102	NA	47.910146907	0	0.62	0.62	1	40.17869379	40.183256325	"2"	738.400430502	736.127008264	1.5	0.1
0.01	1	0.12063475399998	1	102	NA	47.910146907	0	0.62	0.62	1	40.412407765	40.533042519	"2"	738.400430502	736.127008264	1.5	0.1
0.01	1	0.00204238699998882	1	102	NA	47.910146907	0	0.62	0.62	1	40.762989873	40.76503226	"2"	738.400430502	736.127008264	1.5	0.1
0.01	1	0.00223066099999869	1	102	NA	47.910146907	0	0.62	0.62	1	40.996718393	40.998949054	"2"	738.400430502	736.127008264	1.5	0.1
0.01	1	0.00200477900000351	1	102	NA	47.910146907	0	0.62	0.62	1	41.230430462	41.232435241	"2"	738.400430502	736.127008264	1.5	0.1
0.01	1	0.00196753499997726	1	102	NA	47.910146907	0	0.62	0.62	1	41.464114544	41.466082079	"2"	738.400430502	736.127008264	1.5	0.1
0.01	1	0.00210491299998239	1	102	NA	47.910146907	0	0.62	0.62	1	41.697902642	41.700007555	"2"	738.400430502	736.127008264	1.5	0.1
0.01	1	0.00328572600000143	1	102	NA	47.910146907	0	0.62	0.62	1	41.931585687	41.934871413	"2"	738.400430502	736.127008264	1.5	0.1
0.01	1	0.119098757999978	1	102	NA	47.910146907	0	0.62	0.62	1	42.165343293	42.284442051	"2"	738.400430502	736.127008264	1.5	0.1
0.01	1	0.00353623599997377	1	102	NA	47.910146907	0	0.62	0.62	1	42.515849905	42.519386141	"2"	738.400430502	736.127008264	1.5	0.1
0.01	1	0.00222888199999716	1	102	NA	47.910146907	0	0.62	0.62	1	42.749584457	42.751813339	"2"	738.400430502	736.127008264	1.5	0.1
0.01	1	0.00203442899999118	1	102	NA	47.910146907	0	0.62	0.62	1	42.98337323	42.985407659	"2"	738.400430502	736.127008264	1.5	0.1
0.01	1	0.00390314599999897	1	102	NA	47.910146907	0	0.62	0.62	1	43.217042715	43.220945861	"2"	738.400430502	736.127008264	1.5	0.1
0.01	1	0.00393146999999772	1	102	NA	47.910146907	0	0.62	0.62	1	43.450847365	43.454778835	"2"	738.400430502	736.127008264	1.5	0.1
0.01	1	0.127784598999995	1	102	NA	47.910146907	0	0.62	0.62	1	43.684626875	43.812411474	"2"	738.400430502	736.127008264	1.5	0.1
0.01	1	0.00951782999999295	1	102	NA	47.910146907	0	0.62	0.62	1	44.0517831	44.06130093	"2"	738.400430502	736.127008264	1.5	0.1
0.01	1	0.254610137000014	1	102	NA	47.910146907	0	0.62	0.62	1	44.285575425	44.540185562	"2"	738.400430502	736.127008264	1.5	0.1
0.01	1	0.00207618600001069	1	102	NA	47.910146907	0	0.62	0.62	1	44.769724761	44.771800947	"2"	738.400430502	736.127008264	1.5	0.1
0.01	1	0.0021842869999773	1	102	NA	47.910146907	0	0.62	0.62	1	45.003507519	45.005691806	"2"	738.400430502	736.127008264	1.5	0.1
0.01	1	0.00198172799997565	1	102	NA	47.910146907	0	0.62	0.62	1	45.237202711	45.239184439	"2"	738.400430502	736.127008264	1.5	0.1
0.01	1	0.00203367599999638	1	102	NA	47.910146907	0	0.62	0.62	1	45.470822064	45.47285574	"2"	738.400430502	736.127008264	1.5	0.1
0.01	1	0.0019824480000068	1	102	NA	47.910146907	0	0.62	0.62	1	45.70464753	45.706629978	"2"	738.400430502	736.127008264	1.5	0.1
0.01	1	0.387409080999987	1	102	NA	47.910146907	0	0.62	0.62	1	45.938407092	46.325816173	"2"	738.400430502	736.127008264	1.5	0.1
0.01	1	0.368727038000003	1	102	NA	47.910146907	0	0.62	0.62	1	46.556140065	46.924867103	"2"	738.400430502	736.127008264	1.5	0.1
0.01	1	0.144834908000007	1	102	NA	47.910146907	0	0.62	0.62	1	47.157114112	47.30194902	"2"	738.400430502	736.127008264	1.5	0.1
0.01	1	0.00313691600001675	1	102	NA	47.910146907	0	0.62	0.62	1	47.524296229	47.527433145	"2"	738.400430502	736.127008264	1.5	0.1
0.01	1	0.150551425999993	2	102	NA	47.910146907	0	0.62	0.62	1	47.75801132	47.908562746	"2"	738.400430502	736.127008264	1.5	0.1
0.01	1	0.00387915300001396	1	97	NA	65.117991155	0	0.6	1.22	1	49.94506807	49.948947223	"3"	738.400430502	736.127008264	1.5	0.1
0.01	1	0.0669356880000009	1	97	NA	65.117991155	0	0.6	1.22	1	50.17879786	50.245733548	"3"	738.400430502	736.127008264	1.5	0.1
0.01	1	0.00388428900004101	1	97	NA	65.117991155	0	0.6	1.22	1	50.479413752	50.483298041	"3"	738.400430502	736.127008264	1.5	0.1
0.01	1	0.00459106200003134	1	97	NA	65.117991155	0	0.6	1.22	1	50.71305728	50.717648342	"3"	738.400430502	736.127008264	1.5	0.1
0.01	1	0.00207065300003251	1	97	NA	65.117991155	0	0.6	1.22	1	50.946673429	50.948744082	"3"	738.400430502	736.127008264	1.5	0.1
0.01	1	0.00394094299997505	1	97	NA	65.117991155	0	0.6	1.22	1	51.180478472	51.184419415	"3"	738.400430502	736.127008264	1.5	0.1
0.01	1	0.0398388490000343	1	97	NA	65.117991155	0	0.6	1.22	1	51.414154787	51.453993636	"3"	738.400430502	736.127008264	1.5	0.1
0.01	1	0.00207589500001859	1	97	NA	65.117991155	0	0.6	1.22	1	51.681333827	51.683409722	"3"	738.400430502	736.127008264	1.5	0.1
0.01	1	0.0815765899999974	1	97	NA	65.117991155	0	0.6	1.22	1	51.91504849	51.99662508	"3"	738.400430502	736.127008264	1.5	0.1
0.01	1	0.0773822270000437	1	97	NA	65.117991155	0	0.6	1.22	1	52.232215835	52.309598062	"3"	738.400430502	736.127008264	1.5	0.1
0.01	1	0.004288669999994	1	97	NA	65.117991155	0	0.6	1.22	1	52.532921197	52.537209867	"3"	738.400430502	736.127008264	1.5	0.1
0.01	1	0.0714696869999898	1	97	NA	65.117991155	0	0.6	1.22	1	52.766455927	52.837925614	"3"	738.400430502	736.127008264	1.5	0.1
0.01	1	0.00205838699997685	1	97	NA	65.117991155	0	0.6	1.22	1	53.066968625	53.069027012	"3"	738.400430502	736.127008264	1.5	0.1
0.01	1	0.00206766200000175	1	97	NA	65.117991155	0	0.6	1.22	1	53.30078703	53.302854692	"3"	738.400430502	736.127008264	1.5	0.1
0.01	1	0.00460057499998356	1	97	NA	65.117991155	0	0.6	1.22	1	53.53441435	53.539014925	"3"	738.400430502	736.127008264	1.5	0.1
0.01	1	0.00274525800000447	1	97	NA	65.117991155	0	0.6	1.22	1	53.768151955	53.770897213	"3"	738.400430502	736.127008264	1.5	0.1
0.01	1	0.00396342099998037	1	97	NA	65.117991155	0	0.6	1.22	1	54.00190949	54.005872911	"3"	738.400430502	736.127008264	1.5	0.1
0.01	1	0.00369016100000863	1	97	NA	65.117991155	0	0.6	1.22	1	54.23559567	54.239285831	"3"	738.400430502	736.127008264	1.5	0.1
0.01	1	0.00396243100004767	1	97	NA	65.117991155	0	0.6	1.22	1	54.469374692	54.473337123	"3"	738.400430502	736.127008264	1.5	0.1
0.01	1	0.00393895500002373	1	97	NA	65.117991155	0	0.6	1.22	1	54.7030061	54.706945055	"3"	738.400430502	736.127008264	1.5	0.1
0.01	1	0.00389052599996376	1	97	NA	65.117991155	0	0.6	1.22	1	54.936789475	54.940680001	"3"	738.400430502	736.127008264	1.5	0.1
0.01	1	0.00393429399997558	1	97	NA	65.117991155	0	0.6	1.22	1	55.170584021	55.174518315	"3"	738.400430502	736.127008264	1.5	0.1
0.01	1	0.00386845200000607	1	97	NA	65.117991155	0	0.6	1.22	1	55.404275725	55.408144177	"3"	738.400430502	736.127008264	1.5	0.1
0.01	1	0.135293972999989	1	97	NA	65.117991155	0	0.6	1.22	1	55.638017527	55.7733115	"3"	738.400430502	736.127008264	1.5	0.1
0.01	1	0.00201689599998645	1	97	NA	65.117991155	0	0.6	1.22	1	56.005265265	56.007282161	"3"	738.400430502	736.127008264	1.5	0.1
0.01	1	0.00458041699999967	1	97	NA	65.117991155	0	0.6	1.22	1	56.239025885	56.243606302	"3"	738.400430502	736.127008264	1.5	0.1
0.01	1	0.100484408	1	97	NA	65.117991155	0	0.6	1.22	1	56.472699572	56.57318398	"3"	738.400430502	736.127008264	1.5	0.1
0.01	1	0.00195909499996105	1	97	NA	65.117991155	0	0.6	1.22	1	56.806581299	56.808540394	"3"	738.400430502	736.127008264	1.5	0.1
0.01	1	0.00374916900000244	1	97	NA	65.117991155	0	0.6	1.22	1	57.040387102	57.044136271	"3"	738.400430502	736.127008264	1.5	0.1
0.01	1	0.00456861000003528	1	97	NA	65.117991155	0	0.6	1.22	1	57.274097215	57.278665825	"3"	738.400430502	736.127008264	1.5	0.1
0.01	1	0.00451319999996258	1	97	NA	65.117991155	0	0.6	1.22	1	57.5077992	57.5123124	"3"	738.400430502	736.127008264	1.5	0.1
0.01	1	0.00433856400002242	1	97	NA	65.117991155	0	0.6	1.22	1	57.741466083	57.745804647	"3"	738.400430502	736.127008264	1.5	0.1
0.01	1	0.00398960600000464	1	97	NA	65.117991155	0	0.6	1.22	1	57.975298247	57.979287853	"3"	738.400430502	736.127008264	1.5	0.1
0.01	1	0.00383514999998624	1	97	NA	65.117991155	0	0.6	1.22	1	58.208910635	58.212745785	"3"	738.400430502	736.127008264	1.5	0.1
0.01	1	0.137505349000037	1	97	NA	65.117991155	0	0.6	1.22	1	58.44266816	58.580173509	"3"	738.400430502	736.127008264	1.5	0.1
0.01	1	0.0421992000000273	1	97	NA	65.117991155	0	0.6	1.22	1	58.809967177	58.852166377	"3"	738.400430502	736.127008264	1.5	0.1
0.01	1	0.00934257100004743	1	97	NA	65.117991155	0	0.6	1.22	1	59.077145672	59.086488243	"3"	738.400430502	736.127008264	1.5	0.1
0.01	1	0.00365408100003606	1	97	NA	65.117991155	0	0.6	1.22	1	59.327438102	59.331092183	"3"	738.400430502	736.127008264	1.5	0.1
0.01	1	0.0030693500000325	1	97	NA	65.117991155	0	0.6	1.22	1	59.561206337	59.564275687	"3"	738.400430502	736.127008264	1.5	0.1
0.01	1	0.00223903900001687	1	97	NA	65.117991155	0	0.6	1.22	1	59.794867651	59.79710669	"3"	738.400430502	736.127008264	1.5	0.1
0.01	1	0.00195439800000941	1	97	NA	65.117991155	0	0.6	1.22	1	60.028706431	60.030660829	"3"	738.400430502	736.127008264	1.5	0.1
0.01	1	0.00225382400003582	1	97	NA	65.117991155	0	0.6	1.22	1	60.262375127	60.264628951	"3"	738.400430502	736.127008264	1.5	0.1
0.01	1	0.00198765700002923	1	97	NA	65.117991155	0	0.6	1.22	1	60.496163815	60.498151472	"3"	738.400430502	736.127008264	1.5	0.1
0.01	1	0.0120158149999838	1	97	NA	65.117991155	0	0.6	1.22	1	60.729879195	60.74189501	"3"	738.400430502	736.127008264	1.5	0.1
0.01	1	0.00202741900000092	1	97	NA	65.117991155	0	0.6	1.22	1	60.963635494	60.965662913	"3"	738.400430502	736.127008264	1.5	0.1
0.01	1	0.00205653299997266	1	97	NA	65.117991155	0	0.6	1.22	1	61.197402532	61.199459065	"3"	738.400430502	736.127008264	1.5	0.1
0.01	1	0.00391025200002559	1	97	NA	65.117991155	0	0.6	1.22	1	61.430996335	61.434906587	"3"	738.400430502	736.127008264	1.5	0.1
0.01	1	0.00452436199998374	1	97	NA	65.117991155	0	0.6	1.22	1	61.66474251	61.669266872	"3"	738.400430502	736.127008264	1.5	0.1
0.01	1	0.122738529999992	1	97	NA	65.117991155	0	0.6	1.22	1	61.898535405	62.021273935	"3"	738.400430502	736.127008264	1.5	0.1
0.01	1	0.00329907599996204	1	97	NA	65.117991155	0	0.6	1.22	1	62.249076869	62.252375945	"3"	738.400430502	736.127008264	1.5	0.1
0.01	1	0.00209867199998826	1	97	NA	65.117991155	0	0.6	1.22	1	62.482862491	62.484961163	"3"	738.400430502	736.127008264	1.5	0.1
0.01	1	0.00248133399998096	1	97	NA	65.117991155	0	0.6	1.22	1	62.716519887	62.719001221	"3"	738.400430502	736.127008264	1.5	0.1
0.01	1	0.00206681100002015	1	97	NA	65.117991155	0	0.6	1.22	1	62.950377313	62.952444124	"3"	738.400430502	736.127008264	1.5	0.1
0.01	1	0.00204630799998995	1	97	NA	65.117991155	0	0.6	1.22	1	63.183974542	63.18602085	"3"	738.400430502	736.127008264	1.5	0.1
0.01	1	0.00222158100001479	1	97	NA	65.117991155	0	0.6	1.22	1	63.417670926	63.419892507	"3"	738.400430502	736.127008264	1.5	0.1
0.01	1	0.00390978500001893	1	97	NA	65.117991155	0	0.6	1.22	1	63.651428142	63.655337927	"3"	738.400430502	736.127008264	1.5	0.1
0.01	1	0.00398716799998056	1	97	NA	65.117991155	0	0.6	1.22	1	63.885293637	63.889280805	"3"	738.400430502	736.127008264	1.5	0.1
0.01	1	0.127035976999991	1	97	NA	65.117991155	0	0.6	1.22	1	64.118946025	64.245982002	"3"	738.400430502	736.127008264	1.5	0.1
0.01	1	0.0236064780000333	1	97	NA	65.117991155	0	0.6	1.22	1	64.469511245	64.493117723	"3"	738.400430502	736.127008264	1.5	0.1
0.01	1	0.0135605090000013	1	97	NA	65.117991155	0	0.6	1.22	1	64.719911932	64.733472441	"3"	738.400430502	736.127008264	1.5	0.1
0.01	1	0.14603895700003	2	97	NA	65.117991155	0	0.6	1.22	1	64.970370717	65.116409674	"3"	738.400430502	736.127008264	1.5	0.1
0.01	1	0.00455971500002761	1	51	79.615644315	NA	1	0	1.22	1	67.174093105	67.17865282	"4"	738.400430502	736.127008264	1.5	0.1
0.01	1	0.100630389000003	1	51	79.615644315	NA	1	0	1.22	1	67.407860192	67.508490581	"4"	738.400430502	736.127008264	1.5	0.1
0.01	1	0.0020882400000346	1	51	79.615644315	NA	1	0	1.22	1	67.741717711	67.743805951	"4"	738.400430502	736.127008264	1.5	0.1
0.01	1	0.00213848700002472	1	51	79.615644315	NA	1	0	1.22	1	67.975384074	67.977522561	"4"	738.400430502	736.127008264	1.5	0.1
0.01	1	0.107888333999995	1	51	79.615644315	NA	1	0	1.22	1	68.209126117	68.317014451	"4"	738.400430502	736.127008264	1.5	0.1
0.01	1	0.00371763900000133	1	51	79.615644315	NA	1	0	1.22	1	68.542993562	68.546711201	"4"	738.400430502	736.127008264	1.5	0.1
0.01	1	0.00457658700003094	1	51	79.615644315	NA	1	0	1.22	1	68.77679678	68.781373367	"4"	738.400430502	736.127008264	1.5	0.1
0.01	1	0.00457212000003437	1	51	79.615644315	NA	1	0	1.22	1	69.0106034	69.01517552	"4"	738.400430502	736.127008264	1.5	0.1
0.01	1	0.0037807349999639	1	51	79.615644315	NA	1	0	1.22	1	69.244182162	69.247962897	"4"	738.400430502	736.127008264	1.5	0.1
0.01	1	0.134828278000043	1	51	79.615644315	NA	1	0	1.22	1	69.477998977	69.612827255	"4"	738.400430502	736.127008264	1.5	0.1
0.01	1	0.00271560100003398	1	51	79.615644315	NA	1	0	1.22	1	69.845211109	69.84792671	"4"	738.400430502	736.127008264	1.5	0.1
0.01	1	0.00215458100001342	1	51	79.615644315	NA	1	0	1.22	1	70.079059261	70.081213842	"4"	738.400430502	736.127008264	1.5	0.1
0.01	1	0.00214015599999584	1	51	79.615644315	NA	1	0	1.22	1	70.312668885	70.314809041	"4"	738.400430502	736.127008264	1.5	0.1
0.01	1	0.00408342600002243	1	51	79.615644315	NA	1	0	1.22	1	70.546402055	70.550485481	"4"	738.400430502	736.127008264	1.5	0.1
0.01	1	0.00432005300001492	1	51	79.615644315	NA	1	0	1.22	1	70.780038937	70.78435899	"4"	738.400430502	736.127008264	1.5	0.1
0.01	1	0.00455225500002143	1	51	79.615644315	NA	1	0	1.22	1	71.013815225	71.01836748	"4"	738.400430502	736.127008264	1.5	0.1
0.01	1	0.00455247200000031	1	51	79.615644315	NA	1	0	1.22	1	71.24763371	71.252186182	"4"	738.400430502	736.127008264	1.5	0.1
0.01	1	0.106981995000012	1	51	79.615644315	NA	1	0	1.22	1	71.481357065	71.58833906	"4"	738.400430502	736.127008264	1.5	0.1
0.01	1	0.00233753700001671	1	51	79.615644315	NA	1	0	1.22	1	71.815097653	71.81743519	"4"	738.400430502	736.127008264	1.5	0.1
0.01	1	0.0031037780000247	1	51	79.615644315	NA	1	0	1.22	1	72.048847885	72.051951663	"4"	738.400430502	736.127008264	1.5	0.1
0.01	1	0.00210144400000445	1	51	79.615644315	NA	1	0	1.22	1	72.282652567	72.284754011	"4"	738.400430502	736.127008264	1.5	0.1
0.01	1	0.00452403700001014	1	51	79.615644315	NA	1	0	1.22	1	72.516414595	72.520938632	"4"	738.400430502	736.127008264	1.5	0.1
0.01	1	0.00457939000000351	1	51	79.615644315	NA	1	0	1.22	1	72.750051965	72.754631355	"4"	738.400430502	736.127008264	1.5	0.1
0.01	1	0.00390048699995305	1	51	79.615644315	NA	1	0	1.22	1	72.983837422	72.987737909	"4"	738.400430502	736.127008264	1.5	0.1
0.01	1	0.00389140400000088	1	51	79.615644315	NA	1	0	1.22	1	73.217492885	73.221384289	"4"	738.400430502	736.127008264	1.5	0.1
0.01	1	0.00394986700001709	1	51	79.615644315	NA	1	0	1.22	1	73.45134203	73.455291897	"4"	738.400430502	736.127008264	1.5	0.1
0.01	1	0.00457103700000516	1	51	79.615644315	NA	1	0	1.22	1	73.68498624	73.689557277	"4"	738.400430502	736.127008264	1.5	0.1
0.01	1	0.00397608800000171	1	51	79.615644315	NA	1	0	1.22	1	73.918787727	73.922763815	"4"	738.400430502	736.127008264	1.5	0.1
0.01	1	0.00396167999997488	1	51	79.615644315	NA	1	0	1.22	1	74.152453765	74.156415445	"4"	738.400430502	736.127008264	1.5	0.1
0.01	1	0.00387676799999781	1	51	79.615644315	NA	1	0	1.22	1	74.386144825	74.390021593	"4"	738.400430502	736.127008264	1.5	0.1
0.01	1	0.00374676300003784	1	51	79.615644315	NA	1	0	1.22	1	74.619962242	74.623709005	"4"	738.400430502	736.127008264	1.5	0.1
0.01	1	0.00457538500000965	1	51	79.615644315	NA	1	0	1.22	1	74.85370889	74.858284275	"4"	738.400430502	736.127008264	1.5	0.1
0.01	1	0.101521515000002	1	51	79.615644315	NA	1	0	1.22	1	75.087458075	75.18897959	"4"	738.400430502	736.127008264	1.5	0.1
0.01	1	0.0021345970000084	1	51	79.615644315	NA	1	0	1.22	1	75.421246152	75.423380749	"4"	738.400430502	736.127008264	1.5	0.1
0.01	1	0.00202971699997079	1	51	79.615644315	NA	1	0	1.22	1	75.654915382	75.656945099	"4"	738.400430502	736.127008264	1.5	0.1
0.01	1	0.00197102100003121	1	51	79.615644315	NA	1	0	1.22	1	75.888791751	75.890762772	"4"	738.400430502	736.127008264	1.5	0.1
0.01	1	0.00198513599997341	1	51	79.615644315	NA	1	0	1.22	1	76.122488804	76.12447394	"4"	738.400430502	736.127008264	1.5	0.1
0.01	1	0.00197695000002795	1	51	79.615644315	NA	1	0	1.22	1	76.35619387	76.35817082	"4"	738.400430502	736.127008264	1.5	0.1
0.01	1	0.00197768499998574	1	51	79.615644315	NA	1	0	1.22	1	76.589918402	76.591896087	"4"	738.400430502	736.127008264	1.5	0.1
0.01	1	0.00455331199998454	1	51	79.615644315	NA	1	0	1.22	1	76.82362138	76.828174692	"4"	738.400430502	736.127008264	1.5	0.1
0.01	1	0.00399429999998802	1	51	79.615644315	NA	1	0	1.22	1	77.057313247	77.061307547	"4"	738.400430502	736.127008264	1.5	0.1
0.01	1	0.00385694399994918	1	51	79.615644315	NA	1	0	1.22	1	77.291055527	77.294912471	"4"	738.400430502	736.127008264	1.5	0.1
0.01	1	0.00396088200000122	1	51	79.615644315	NA	1	0	1.22	1	77.524729605	77.528690487	"4"	738.400430502	736.127008264	1.5	0.1
0.01	1	0.00195850399995834	1	51	79.615644315	NA	1	0	1.22	1	77.758588372	77.760546876	"4"	738.400430502	736.127008264	1.5	0.1
0.01	1	0.00433737800000245	1	51	79.615644315	NA	1	0	1.22	1	77.992245157	77.996582535	"4"	738.400430502	736.127008264	1.5	0.1
0.01	1	0.00385715999999547	1	51	79.615644315	NA	1	0	1.22	1	78.225937427	78.229794587	"4"	738.400430502	736.127008264	1.5	0.1
0.01	1	0.00394508800002313	1	51	79.615644315	NA	1	0	1.22	1	78.459662897	78.463607985	"4"	738.400430502	736.127008264	1.5	0.1
0.01	1	0.111407794999991	1	51	79.615644315	NA	1	0	1.22	1	78.69345015	78.804857945	"4"	738.400430502	736.127008264	1.5	0.1
0.01	1	0.00324878800000761	1	51	79.615644315	NA	1	0	1.22	1	79.027226387	79.030475175	"4"	738.400430502	736.127008264	1.5	0.1
0.01	1	0.00199576500000376	1	51	79.615644315	NA	1	0	1.22	1	79.261047978	79.263043743	"4"	738.400430502	736.127008264	1.5	0.1
0.01	1	0.00207892899999251	1	51	79.615644315	NA	1	0	1.22	1	79.494853566	79.496932495	"4"	738.400430502	736.127008264	1.5	0.1
0.01	1	0.00319892599998184	1	116	NA	93.360691641	0	0.46	1.68	1	81.664985671	81.668184597	"5"	738.400430502	736.127008264	1.5	0.1
0.01	1	0.00209028000000444	1	116	NA	93.360691641	0	0.46	1.68	1	81.898790749	81.900881029	"5"	738.400430502	736.127008264	1.5	0.1
0.01	1	0.00456162000000404	1	116	NA	93.360691641	0	0.46	1.68	1	82.13255942	82.13712104	"5"	738.400430502	736.127008264	1.5	0.1
0.01	1	0.0877811050000332	1	116	NA	93.360691641	0	0.46	1.68	1	82.366298585	82.45407969	"5"	738.400430502	736.127008264	1.5	0.1
0.01	1	0.00204975700000887	1	116	NA	93.360691641	0	0.46	1.68	1	82.683420163	82.68546992	"5"	738.400430502	736.127008264	1.5	0.1
0.01	1	0.00396000900002491	1	116	NA	93.360691641	0	0.46	1.68	1	82.917158992	82.921119001	"5"	738.400430502	736.127008264	1.5	0.1
0.01	1	0.102428911999993	1	116	NA	93.360691641	0	0.46	1.68	1	83.150952675	83.253381587	"5"	738.400430502	736.127008264	1.5	0.1
0.01	1	0.00202975100000913	1	116	NA	93.360691641	0	0.46	1.68	1	83.484787444	83.486817195	"5"	738.400430502	736.127008264	1.5	0.1
0.01	1	0.00440964099999519	1	116	NA	93.360691641	0	0.46	1.68	1	83.718519341	83.722928982	"5"	738.400430502	736.127008264	1.5	0.1
0.01	1	0.125669188000018	1	116	NA	93.360691641	0	0.46	1.68	1	83.952245625	84.077914813	"5"	738.400430502	736.127008264	1.5	0.1
0.01	1	0.00205743300000449	1	116	NA	93.360691641	0	0.46	1.68	1	84.302949592	84.305007025	"5"	738.400430502	736.127008264	1.5	0.1
0.01	1	0.00197057300005099	1	116	NA	93.360691641	0	0.46	1.68	1	84.536506731	84.538477304	"5"	738.400430502	736.127008264	1.5	0.1
0.01	1	0.00398124100001951	1	116	NA	93.360691641	0	0.46	1.68	1	84.77036275	84.774343991	"5"	738.400430502	736.127008264	1.5	0.1
0.01	1	0.00397183399996948	1	116	NA	93.360691641	0	0.46	1.68	1	85.004113935	85.008085769	"5"	738.400430502	736.127008264	1.5	0.1
0.01	1	0.127820401999998	1	116	NA	93.360691641	0	0.46	1.68	1	85.237708547	85.365528949	"5"	738.400430502	736.127008264	1.5	0.1
0.01	1	0.00300670399997216	1	116	NA	93.360691641	0	0.46	1.68	1	85.588258917	85.591265621	"5"	738.400430502	736.127008264	1.5	0.1
0.01	1	0.00200888000000532	1	116	NA	93.360691641	0	0.46	1.68	1	85.822057125	85.824066005	"5"	738.400430502	736.127008264	1.5	0.1
0.01	1	0.00396446700000297	1	116	NA	93.360691641	0	0.46	1.68	1	86.055848452	86.059812919	"5"	738.400430502	736.127008264	1.5	0.1
0.01	1	0.004660274999992	1	116	NA	93.360691641	0	0.46	1.68	1	86.28954138	86.294201655	"5"	738.400430502	736.127008264	1.5	0.1
0.01	1	0.130004654000004	1	116	NA	93.360691641	0	0.46	1.68	1	86.523296665	86.653301319	"5"	738.400430502	736.127008264	1.5	0.1
0.01	1	0.00200657900001033	1	116	NA	93.360691641	0	0.46	1.68	1	86.890540203	86.892546782	"5"	738.400430502	736.127008264	1.5	0.1
0.01	1	0.00399785499996597	1	116	NA	93.360691641	0	0.46	1.68	1	87.124311652	87.128309507	"5"	738.400430502	736.127008264	1.5	0.1
0.01	1	0.00381242099996371	1	116	NA	93.360691641	0	0.46	1.68	1	87.357986212	87.361798633	"5"	738.400430502	736.127008264	1.5	0.1
0.01	1	0.00425536799997417	1	116	NA	93.360691641	0	0.46	1.68	1	87.591712367	87.595967735	"5"	738.400430502	736.127008264	1.5	0.1
0.01	1	0.00464646500000754	1	116	NA	93.360691641	0	0.46	1.68	1	87.825449295	87.83009576	"5"	738.400430502	736.127008264	1.5	0.1
0.01	1	0.130567093999957	1	116	NA	93.360691641	0	0.46	1.68	1	88.059202017	88.189769111	"5"	738.400430502	736.127008264	1.5	0.1
0.01	1	0.00204590199996346	1	116	NA	93.360691641	0	0.46	1.68	1	88.426528221	88.428574123	"5"	738.400430502	736.127008264	1.5	0.1
0.01	1	0.00451721700000007	1	116	NA	93.360691641	0	0.46	1.68	1	88.66034318	88.664860397	"5"	738.400430502	736.127008264	1.5	0.1
0.01	1	0.00376433600001747	1	116	NA	93.360691641	0	0.46	1.68	1	88.893928385	88.897692721	"5"	738.400430502	736.127008264	1.5	0.1
0.01	1	0.00370650799999339	1	116	NA	93.360691641	0	0.46	1.68	1	89.127578795	89.131285303	"5"	738.400430502	736.127008264	1.5	0.1
0.01	1	0.00383071099997778	1	116	NA	93.360691641	0	0.46	1.68	1	89.361295412	89.365126123	"5"	738.400430502	736.127008264	1.5	0.1
0.01	1	0.105100207000021	1	116	NA	93.360691641	0	0.46	1.68	1	89.595075147	89.700175354	"5"	738.400430502	736.127008264	1.5	0.1
0.01	1	0.0034508159999973	1	116	NA	93.360691641	0	0.46	1.68	1	89.928965225	89.932416041	"5"	738.400430502	736.127008264	1.5	0.1
0.01	1	0.00206453100003046	1	116	NA	93.360691641	0	0.46	1.68	1	90.162728579	90.16479311	"5"	738.400430502	736.127008264	1.5	0.1
0.01	1	0.00357137600002488	1	116	NA	93.360691641	0	0.46	1.68	1	90.396486547	90.400057923	"5"	738.400430502	736.127008264	1.5	0.1
0.01	1	0.00424408600002835	1	116	NA	93.360691641	0	0.46	1.68	1	90.630201194	90.63444528	"5"	738.400430502	736.127008264	1.5	0.1
0.01	1	0.00387297500003569	1	116	NA	93.360691641	0	0.46	1.68	1	90.86379895	90.867671925	"5"	738.400430502	736.127008264	1.5	0.1
0.01	1	0.00458214200000384	1	116	NA	93.360691641	0	0.46	1.68	1	91.0976564	91.102238542	"5"	738.400430502	736.127008264	1.5	0.1
0.01	1	0.00455621999998357	1	116	NA	93.360691641	0	0.46	1.68	1	91.33134169	91.33589791	"5"	738.400430502	736.127008264	1.5	0.1
0.01	1	0.135124611000037	1	116	NA	93.360691641	0	0.46	1.68	1	91.565035772	91.700160383	"5"	738.400430502	736.127008264	1.5	0.1
0.01	1	0.017694009999957	1	116	NA	93.360691641	0	0.46	1.68	1	91.93239382	91.95008783	"5"	738.400430502	736.127008264	1.5	0.1
0.01	1	0.00204380999997511	1	116	NA	93.360691641	0	0.46	1.68	1	92.18281406	92.18485787	"5"	738.400430502	736.127008264	1.5	0.1
0.01	1	0.00202726500003791	1	116	NA	93.360691641	0	0.46	1.68	1	92.416480076	92.418507341	"5"	738.400430502	736.127008264	1.5	0.1
0.01	1	0.00203318500001615	1	116	NA	93.360691641	0	0.46	1.68	1	92.65027732	92.652310505	"5"	738.400430502	736.127008264	1.5	0.1
0.01	1	0.00391855899999882	1	116	NA	93.360691641	0	0.46	1.68	1	92.883922	92.887840559	"5"	738.400430502	736.127008264	1.5	0.1
0.01	1	0.00399844800000437	1	116	NA	93.360691641	0	0.46	1.68	1	93.117658655	93.121657103	"5"	738.400430502	736.127008264	1.5	0.1
0.01	1	0.00750903300001937	2	116	NA	93.360691641	0	0.46	1.68	1	93.351452754	93.358961787	"5"	738.400430502	736.127008264	1.5	0.1
0.01	1	0.0971143090000055	1	118	NA	112.799663385	0	0.68	2.36	1	95.388211605	95.485325914	"6"	738.400430502	736.127008264	1.5	0.1
0.01	1	0.00201708299999837	1	118	NA	112.799663385	0	0.68	2.36	1	95.722081014	95.724098097	"6"	738.400430502	736.127008264	1.5	0.1
0.01	1	0.0019883119999804	1	118	NA	112.799663385	0	0.68	2.36	1	95.955828333	95.957816645	"6"	738.400430502	736.127008264	1.5	0.1
0.01	1	0.00373810600001434	1	118	NA	112.799663385	0	0.68	2.36	1	96.189528367	96.193266473	"6"	738.400430502	736.127008264	1.5	0.1
0.01	1	0.109956857999975	1	118	NA	112.799663385	0	0.68	2.36	1	96.423162327	96.533119185	"6"	738.400430502	736.127008264	1.5	0.1
0.01	1	0.00459973499999933	1	118	NA	112.799663385	0	0.68	2.36	1	96.75715633	96.761756065	"6"	738.400430502	736.127008264	1.5	0.1
0.01	1	0.00393306100005475	1	118	NA	112.799663385	0	0.68	2.36	1	96.990795792	96.994728853	"6"	738.400430502	736.127008264	1.5	0.1
0.01	1	0.00334025099999735	1	118	NA	112.799663385	0	0.68	2.36	1	97.22461548	97.227955731	"6"	738.400430502	736.127008264	1.5	0.1
0.01	1	0.131818834000001	1	118	NA	112.799663385	0	0.68	2.36	1	97.458253735	97.590072569	"6"	738.400430502	736.127008264	1.5	0.1
0.01	1	0.00217876499999647	1	118	NA	112.799663385	0	0.68	2.36	1	97.825687588	97.827866353	"6"	738.400430502	736.127008264	1.5	0.1
0.01	1	0.0020442590000016	1	118	NA	112.799663385	0	0.68	2.36	1	98.059371144	98.061415403	"6"	738.400430502	736.127008264	1.5	0.1
0.01	1	0.00205399800000805	1	118	NA	112.799663385	0	0.68	2.36	1	98.293010864	98.295064862	"6"	738.400430502	736.127008264	1.5	0.1
0.01	1	0.00206165700001293	1	118	NA	112.799663385	0	0.68	2.36	1	98.526865768	98.528927425	"6"	738.400430502	736.127008264	1.5	0.1
0.01	1	0.00198839500001213	1	118	NA	112.799663385	0	0.68	2.36	1	98.76045889	98.762447285	"6"	738.400430502	736.127008264	1.5	0.1
0.01	1	0.00458871000000727	1	118	NA	112.799663385	0	0.68	2.36	1	98.99423805	98.99882676	"6"	738.400430502	736.127008264	1.5	0.1
0.01	1	0.00196198399999048	1	118	NA	112.799663385	0	0.68	2.36	1	99.22801043	99.229972414	"6"	738.400430502	736.127008264	1.5	0.1
0.01	1	0.00398670000004131	1	118	NA	112.799663385	0	0.68	2.36	1	99.461757725	99.465744425	"6"	738.400430502	736.127008264	1.5	0.1
0.01	1	0.00219577000001436	1	118	NA	112.799663385	0	0.68	2.36	1	99.695412065	99.697607835	"6"	738.400430502	736.127008264	1.5	0.1
0.01	1	0.00432752000000391	1	118	NA	112.799663385	0	0.68	2.36	1	99.929140475	99.933467995	"6"	738.400430502	736.127008264	1.5	0.1
0.01	1	0.00379537899999605	1	118	NA	112.799663385	0	0.68	2.36	1	100.162944822	100.166740201	"6"	738.400430502	736.127008264	1.5	0.1
0.01	1	0.00382927000003974	1	118	NA	112.799663385	0	0.68	2.36	1	100.396536547	100.400365817	"6"	738.400430502	736.127008264	1.5	0.1
0.01	1	0.133956640999997	1	118	NA	112.799663385	0	0.68	2.36	1	100.630311914	100.764268555	"6"	738.400430502	736.127008264	1.5	0.1
0.01	1	0.00207722900000817	1	118	NA	112.799663385	0	0.68	2.36	1	100.997638813	100.999716042	"6"	738.400430502	736.127008264	1.5	0.1
0.01	1	0.00207358000000113	1	118	NA	112.799663385	0	0.68	2.36	1	101.231406382	101.233479962	"6"	738.400430502	736.127008264	1.5	0.1
0.01	1	0.00376544899995679	1	118	NA	112.799663385	0	0.68	2.36	1	101.4650859	101.468851349	"6"	738.400430502	736.127008264	1.5	0.1
0.01	1	0.00363691400002608	1	118	NA	112.799663385	0	0.68	2.36	1	101.698694995	101.702331909	"6"	738.400430502	736.127008264	1.5	0.1
0.01	1	0.104592857	1	118	NA	112.799663385	0	0.68	2.36	1	101.93246405	102.037056907	"6"	738.400430502	736.127008264	1.5	0.1
0.01	1	0.00199275699998225	1	118	NA	112.799663385	0	0.68	2.36	1	102.266469454	102.268462211	"6"	738.400430502	736.127008264	1.5	0.1
0.01	1	0.00207391099996812	1	118	NA	112.799663385	0	0.68	2.36	1	102.5002031	102.502277011	"6"	738.400430502	736.127008264	1.5	0.1
0.01	1	0.00476355699998976	1	118	NA	112.799663385	0	0.68	2.36	1	102.733937025	102.738700582	"6"	738.400430502	736.127008264	1.5	0.1
0.01	1	0.00390934900002549	1	118	NA	112.799663385	0	0.68	2.36	1	102.96756072	102.971470069	"6"	738.400430502	736.127008264	1.5	0.1
0.01	1	0.00452922499999886	1	118	NA	112.799663385	0	0.68	2.36	1	103.20139212	103.205921345	"6"	738.400430502	736.127008264	1.5	0.1
0.01	1	0.105946542000027	1	118	NA	112.799663385	0	0.68	2.36	1	103.43498909	103.540935632	"6"	738.400430502	736.127008264	1.5	0.1
0.01	1	0.00209261999998489	1	118	NA	112.799663385	0	0.68	2.36	1	103.768911022	103.771003642	"6"	738.400430502	736.127008264	1.5	0.1
0.01	1	0.00203104000001986	1	118	NA	112.799663385	0	0.68	2.36	1	104.002712021	104.004743061	"6"	738.400430502	736.127008264	1.5	0.1
0.01	1	0.00203780199996118	1	118	NA	112.799663385	0	0.68	2.36	1	104.236340131	104.238377933	"6"	738.400430502	736.127008264	1.5	0.1
0.01	1	0.00386912800001937	1	118	NA	112.799663385	0	0.68	2.36	1	104.470092745	104.473961873	"6"	738.400430502	736.127008264	1.5	0.1
0.01	1	0.00210502199996654	1	118	NA	112.799663385	0	0.68	2.36	1	104.70387877	104.705983792	"6"	738.400430502	736.127008264	1.5	0.1
0.01	1	0.00388402900000528	1	118	NA	112.799663385	0	0.68	2.36	1	104.937571992	104.941456021	"6"	738.400430502	736.127008264	1.5	0.1
0.01	1	0.00392592599996533	1	118	NA	112.799663385	0	0.68	2.36	1	105.171372387	105.175298313	"6"	738.400430502	736.127008264	1.5	0.1
0.01	1	0.00382723500001703	1	118	NA	112.799663385	0	0.68	2.36	1	105.404932972	105.408760207	"6"	738.400430502	736.127008264	1.5	0.1
0.01	1	0.109594386000026	1	118	NA	112.799663385	0	0.68	2.36	1	105.63869629	105.748290676	"6"	738.400430502	736.127008264	1.5	0.1
0.01	1	0.00263345299998718	1	118	NA	112.799663385	0	0.68	2.36	1	105.972583847	105.9752173	"6"	738.400430502	736.127008264	1.5	0.1
0.01	1	0.00220541999999568	1	118	NA	112.799663385	0	0.68	2.36	1	106.206246074	106.208451494	"6"	738.400430502	736.127008264	1.5	0.1
0.01	1	0.00335740600002055	1	118	NA	112.799663385	0	0.68	2.36	1	106.440039883	106.443397289	"6"	738.400430502	736.127008264	1.5	0.1
0.01	1	0.00199008499998854	1	118	NA	112.799663385	0	0.68	2.36	1	106.673829024	106.675819109	"6"	738.400430502	736.127008264	1.5	0.1
0.01	1	0.00198353600001155	1	118	NA	112.799663385	0	0.68	2.36	1	106.907507721	106.909491257	"6"	738.400430502	736.127008264	1.5	0.1
0.01	1	0.00201214500003744	1	118	NA	112.799663385	0	0.68	2.36	1	107.14124194	107.143254085	"6"	738.400430502	736.127008264	1.5	0.1
0.01	1	0.00207470000003696	1	118	NA	112.799663385	0	0.68	2.36	1	107.375045932	107.377120632	"6"	738.400430502	736.127008264	1.5	0.1
0.01	1	0.00371075399999654	1	118	NA	112.799663385	0	0.68	2.36	1	107.608689587	107.612400341	"6"	738.400430502	736.127008264	1.5	0.1
0.01	1	0.00361729899998409	1	118	NA	112.799663385	0	0.68	2.36	1	107.84247968	107.846096979	"6"	738.400430502	736.127008264	1.5	0.1
0.01	1	0.105078850999973	1	118	NA	112.799663385	0	0.68	2.36	1	108.076186322	108.181265173	"6"	738.400430502	736.127008264	1.5	0.1
0.01	1	0.00206403399999999	1	118	NA	112.799663385	0	0.68	2.36	1	108.410054805	108.412118839	"6"	738.400430502	736.127008264	1.5	0.1
0.01	1	0.00202505000004294	1	118	NA	112.799663385	0	0.68	2.36	1	108.643803351	108.645828401	"6"	738.400430502	736.127008264	1.5	0.1
0.01	1	0.00458319199998414	1	118	NA	112.799663385	0	0.68	2.36	1	108.87753555	108.882118742	"6"	738.400430502	736.127008264	1.5	0.1
0.01	1	0.00424444399999402	1	118	NA	112.799663385	0	0.68	2.36	1	109.111284968	109.115529412	"6"	738.400430502	736.127008264	1.5	0.1
0.01	1	0.0038918179999996	1	118	NA	112.799663385	0	0.68	2.36	1	109.345026385	109.348918203	"6"	738.400430502	736.127008264	1.5	0.1
0.01	1	0.138929808	1	118	NA	112.799663385	0	0.68	2.36	1	109.578758892	109.7176887	"6"	738.400430502	736.127008264	1.5	0.1
0.01	1	0.00198911999996199	1	118	NA	112.799663385	0	0.68	2.36	1	109.946035762	109.948024882	"6"	738.400430502	736.127008264	1.5	0.1
0.01	1	0.00195393399997101	1	118	NA	112.799663385	0	0.68	2.36	1	110.179756401	110.181710335	"6"	738.400430502	736.127008264	1.5	0.1
0.01	1	0.00384194100001878	1	118	NA	112.799663385	0	0.68	2.36	1	110.41337918	110.417221121	"6"	738.400430502	736.127008264	1.5	0.1
0.01	1	0.00375343000001749	1	118	NA	112.799663385	0	0.68	2.36	1	110.647157655	110.650911085	"6"	738.400430502	736.127008264	1.5	0.1
0.01	1	0.00431205099999943	1	118	NA	112.799663385	0	0.68	2.36	1	110.880838014	110.885150065	"6"	738.400430502	736.127008264	1.5	0.1
0.01	1	0.00373838300004081	1	118	NA	112.799663385	0	0.68	2.36	1	111.114603312	111.118341695	"6"	738.400430502	736.127008264	1.5	0.1
0.01	1	0.00454573700000083	1	118	NA	112.799663385	0	0.68	2.36	1	111.348315645	111.352861382	"6"	738.400430502	736.127008264	1.5	0.1
0.01	1	0.00376010999997334	1	118	NA	112.799663385	0	0.68	2.36	1	111.582076167	111.585836277	"6"	738.400430502	736.127008264	1.5	0.1
0.01	1	0.00385725899997169	1	118	NA	112.799663385	0	0.68	2.36	1	111.815854172	111.819711431	"6"	738.400430502	736.127008264	1.5	0.1
0.01	1	0.0038482670000235	1	118	NA	112.799663385	0	0.68	2.36	1	112.04947502	112.053323287	"6"	738.400430502	736.127008264	1.5	0.1
0.01	1	0.514913057000001	2	118	NA	112.799663385	0	0.68	2.36	1	112.283196512	112.798109569	"6"	738.400430502	736.127008264	1.5	0.1
0.01	1	0.110692743000016	1	87	NA	136.470033941	0	0.850000000000001	3.21	1	114.854244042	114.964936785	"7"	738.400430502	736.127008264	1.5	0.1
0.01	1	0.0020701390000113	1	87	NA	136.470033941	0	0.850000000000001	3.21	1	115.204874013	115.206944152	"7"	738.400430502	736.127008264	1.5	0.1
0.01	1	0.118213942000011	1	87	NA	136.470033941	0	0.850000000000001	3.21	1	115.438484765	115.556698707	"7"	738.400430502	736.127008264	1.5	0.1
0.01	1	0.00452897999997504	1	87	NA	136.470033941	0	0.850000000000001	3.21	1	115.78913467	115.79366365	"7"	738.400430502	736.127008264	1.5	0.1
0.01	1	0.111058974999992	1	87	NA	136.470033941	0	0.850000000000001	3.21	1	116.022935822	116.133994797	"7"	738.400430502	736.127008264	1.5	0.1
0.01	1	0.00205697300003749	1	87	NA	136.470033941	0	0.850000000000001	3.21	1	116.356762899	116.358819872	"7"	738.400430502	736.127008264	1.5	0.1
0.01	1	0.00385083300000133	1	87	NA	136.470033941	0	0.850000000000001	3.21	1	116.59047125	116.594322083	"7"	738.400430502	736.127008264	1.5	0.1
0.01	1	0.11770311600003	1	87	NA	136.470033941	0	0.850000000000001	3.21	1	116.824280967	116.941984083	"7"	738.400430502	736.127008264	1.5	0.1
0.01	1	0.00459098700002869	1	87	NA	136.470033941	0	0.850000000000001	3.21	1	117.174965865	117.179556852	"7"	738.400430502	736.127008264	1.5	0.1
0.01	1	0.00457058000000643	1	87	NA	136.470033941	0	0.850000000000001	3.21	1	117.408562895	117.413133475	"7"	738.400430502	736.127008264	1.5	0.1
0.01	1	0.004536690000009	1	87	NA	136.470033941	0	0.850000000000001	3.21	1	117.642281195	117.646817885	"7"	738.400430502	736.127008264	1.5	0.1
0.01	1	0.105935387999978	1	87	NA	136.470033941	0	0.850000000000001	3.21	1	117.87604148	117.981976868	"7"	738.400430502	736.127008264	1.5	0.1
0.01	1	0.00203731499999549	1	87	NA	136.470033941	0	0.850000000000001	3.21	1	118.20984269	118.211880005	"7"	738.400430502	736.127008264	1.5	0.1
0.01	1	0.00380979100003742	1	87	NA	136.470033941	0	0.850000000000001	3.21	1	118.44364956	118.447459351	"7"	738.400430502	736.127008264	1.5	0.1
0.01	1	0.111295112999983	1	87	NA	136.470033941	0	0.850000000000001	3.21	1	118.677379235	118.788674348	"7"	738.400430502	736.127008264	1.5	0.1
0.01	1	0.0021867150000503	1	87	NA	136.470033941	0	0.850000000000001	3.21	1	119.011229079	119.013415794	"7"	738.400430502	736.127008264	1.5	0.1
0.01	1	0.0036356889999638	1	87	NA	136.470033941	0	0.850000000000001	3.21	1	119.244920852	119.248556541	"7"	738.400430502	736.127008264	1.5	0.1
0.01	1	0.00375042599995368	1	87	NA	136.470033941	0	0.850000000000001	3.21	1	119.478685045	119.482435471	"7"	738.400430502	736.127008264	1.5	0.1
0.01	1	0.00465025500000138	1	87	NA	136.470033941	0	0.850000000000001	3.21	1	119.712460475	119.71711073	"7"	738.400430502	736.127008264	1.5	0.1
0.01	1	0.00458532999999761	1	87	NA	136.470033941	0	0.850000000000001	3.21	1	119.94612814	119.95071347	"7"	738.400430502	736.127008264	1.5	0.1
0.01	1	0.128599121000036	1	87	NA	136.470033941	0	0.850000000000001	3.21	1	120.179800087	120.308399208	"7"	738.400430502	736.127008264	1.5	0.1
0.01	1	0.00395153500005563	1	87	NA	136.470033941	0	0.850000000000001	3.21	1	120.530378512	120.534330047	"7"	738.400430502	736.127008264	1.5	0.1
0.01	1	0.00219270499997037	1	87	NA	136.470033941	0	0.850000000000001	3.21	1	120.764175351	120.766368056	"7"	738.400430502	736.127008264	1.5	0.1
0.01	1	0.00198765699997239	1	87	NA	136.470033941	0	0.850000000000001	3.21	1	120.99789297	120.999880627	"7"	738.400430502	736.127008264	1.5	0.1
0.01	1	0.00253146599999354	1	87	NA	136.470033941	0	0.850000000000001	3.21	1	121.231624309	121.234155775	"7"	738.400430502	736.127008264	1.5	0.1
0.01	1	0.0022104350000518	1	87	NA	136.470033941	0	0.850000000000001	3.21	1	121.46524599	121.467456425	"7"	738.400430502	736.127008264	1.5	0.1
0.01	1	0.00223707099996773	1	87	NA	136.470033941	0	0.850000000000001	3.21	1	121.698997548	121.701234619	"7"	738.400430502	736.127008264	1.5	0.1
0.01	1	0.00457153500002505	1	87	NA	136.470033941	0	0.850000000000001	3.21	1	121.93298701	121.937558545	"7"	738.400430502	736.127008264	1.5	0.1
0.01	1	0.00202448100003494	1	87	NA	136.470033941	0	0.850000000000001	3.21	1	122.16653639	122.168560871	"7"	738.400430502	736.127008264	1.5	0.1
0.01	1	0.00204215199994451	1	87	NA	136.470033941	0	0.850000000000001	3.21	1	122.400237342	122.402279494	"7"	738.400430502	736.127008264	1.5	0.1
0.01	1	0.00392970100000412	1	87	NA	136.470033941	0	0.850000000000001	3.21	1	122.633905172	122.637834873	"7"	738.400430502	736.127008264	1.5	0.1
0.01	1	0.0038068229999908	1	87	NA	136.470033941	0	0.850000000000001	3.21	1	122.86773016	122.871536983	"7"	738.400430502	736.127008264	1.5	0.1
0.01	1	0.11900583399995	1	87	NA	136.470033941	0	0.850000000000001	3.21	1	123.101378203	123.220384037	"7"	738.400430502	736.127008264	1.5	0.1
0.01	1	0.00291393600002721	1	87	NA	136.470033941	0	0.850000000000001	3.21	1	123.452010305	123.454924241	"7"	738.400430502	736.127008264	1.5	0.1
0.01	1	0.00203935199999705	1	87	NA	136.470033941	0	0.850000000000001	3.21	1	123.685705863	123.687745215	"7"	738.400430502	736.127008264	1.5	0.1
0.01	1	0.002052429999992	1	87	NA	136.470033941	0	0.850000000000001	3.21	1	123.919436571	123.921489001	"7"	738.400430502	736.127008264	1.5	0.1
0.01	1	0.00199577500001169	1	87	NA	136.470033941	0	0.850000000000001	3.21	1	124.153153464	124.155149239	"7"	738.400430502	736.127008264	1.5	0.1
0.01	1	0.00208761800001867	1	87	NA	136.470033941	0	0.850000000000001	3.21	1	124.386895811	124.388983429	"7"	738.400430502	736.127008264	1.5	0.1
0.01	1	0.00326978399999689	1	87	NA	136.470033941	0	0.850000000000001	3.21	1	124.620648419	124.623918203	"7"	738.400430502	736.127008264	1.5	0.1
0.01	1	0.00450802199998179	1	87	NA	136.470033941	0	0.850000000000001	3.21	1	124.854427305	124.858935327	"7"	738.400430502	736.127008264	1.5	0.1
0.01	1	0.00457049700003154	1	87	NA	136.470033941	0	0.850000000000001	3.21	1	125.08812957	125.092700067	"7"	738.400430502	736.127008264	1.5	0.1
0.01	1	0.00396373500001346	1	87	NA	136.470033941	0	0.850000000000001	3.21	1	125.321887002	125.325850737	"7"	738.400430502	736.127008264	1.5	0.1
0.01	1	0.00381247299998222	1	87	NA	136.470033941	0	0.850000000000001	3.21	1	125.55562657	125.559439043	"7"	738.400430502	736.127008264	1.5	0.1
0.01	1	0.135769067000012	1	87	NA	136.470033941	0	0.850000000000001	3.21	1	125.789297575	125.925066642	"7"	738.400430502	736.127008264	1.5	0.1
0.01	1	0.00201580600003126	1	87	NA	136.470033941	0	0.850000000000001	3.21	1	126.156606937	126.158622743	"7"	738.400430502	736.127008264	1.5	0.1
0.01	1	0.00202298200002815	1	87	NA	136.470033941	0	0.850000000000001	3.21	1	126.39038386	126.392406842	"7"	738.400430502	736.127008264	1.5	0.1
0.01	1	0.00196508999999878	1	87	NA	136.470033941	0	0.850000000000001	3.21	1	126.624077345	126.626042435	"7"	738.400430502	736.127008264	1.5	0.1
0.01	1	0.00202155900001344	1	87	NA	136.470033941	0	0.850000000000001	3.21	1	126.857816391	126.85983795	"7"	738.400430502	736.127008264	1.5	0.1
0.01	1	0.00197600600000669	1	87	NA	136.470033941	0	0.850000000000001	3.21	1	127.091562662	127.093538668	"7"	738.400430502	736.127008264	1.5	0.1
0.01	1	0.00454054499999756	1	87	NA	136.470033941	0	0.850000000000001	3.21	1	127.3252635	127.329804045	"7"	738.400430502	736.127008264	1.5	0.1
0.01	1	0.00461650700003702	1	87	NA	136.470033941	0	0.850000000000001	3.21	1	127.55893618	127.563552687	"7"	738.400430502	736.127008264	1.5	0.1
0.01	1	0.00199957199998835	1	87	NA	136.470033941	0	0.850000000000001	3.21	1	127.792627848	127.79462742	"7"	738.400430502	736.127008264	1.5	0.1
0.01	1	0.0020087999999987	1	87	NA	136.470033941	0	0.850000000000001	3.21	1	128.02635444	128.02836324	"7"	738.400430502	736.127008264	1.5	0.1
0.01	1	0.00198322199997847	1	87	NA	136.470033941	0	0.850000000000001	3.21	1	128.260114074	128.262097296	"7"	738.400430502	736.127008264	1.5	0.1
0.01	1	0.00214822999998887	1	87	NA	136.470033941	0	0.850000000000001	3.21	1	128.49380136	128.49594959	"7"	738.400430502	736.127008264	1.5	0.1
0.01	1	0.00371264199998222	1	87	NA	136.470033941	0	0.850000000000001	3.21	1	128.727631775	128.731344417	"7"	738.400430502	736.127008264	1.5	0.1
0.01	1	0.0045057699999802	1	87	NA	136.470033941	0	0.850000000000001	3.21	1	128.96128847	128.96579424	"7"	738.400430502	736.127008264	1.5	0.1
0.01	1	0.00435143199996446	1	87	NA	136.470033941	0	0.850000000000001	3.21	1	129.195059483	129.199410915	"7"	738.400430502	736.127008264	1.5	0.1
0.01	1	0.00446924200002741	1	87	NA	136.470033941	0	0.850000000000001	3.21	1	129.42868679	129.433156032	"7"	738.400430502	736.127008264	1.5	0.1
0.01	1	0.00426459300001625	1	87	NA	136.470033941	0	0.850000000000001	3.21	1	129.662403734	129.666668327	"7"	738.400430502	736.127008264	1.5	0.1
0.01	1	0.100480651999987	1	87	NA	136.470033941	0	0.850000000000001	3.21	1	129.89624747	129.996728122	"7"	738.400430502	736.127008264	1.5	0.1
0.01	1	0.00198974300002419	1	87	NA	136.470033941	0	0.850000000000001	3.21	1	130.23007735	130.232067093	"7"	738.400430502	736.127008264	1.5	0.1
0.01	1	0.00198270300001013	1	87	NA	136.470033941	0	0.850000000000001	3.21	1	130.463809155	130.465791858	"7"	738.400430502	736.127008264	1.5	0.1
0.01	1	0.00262426699998741	1	87	NA	136.470033941	0	0.850000000000001	3.21	1	130.697567097	130.700191364	"7"	738.400430502	736.127008264	1.5	0.1
0.01	1	0.138806302999967	1	87	NA	136.470033941	0	0.850000000000001	3.21	1	130.931151202	131.069957505	"7"	738.400430502	736.127008264	1.5	0.1
0.01	1	0.00216531400002395	1	87	NA	136.470033941	0	0.850000000000001	3.21	1	131.298580202	131.300745516	"7"	738.400430502	736.127008264	1.5	0.1
0.01	1	0.00204816299998356	1	87	NA	136.470033941	0	0.850000000000001	3.21	1	131.532249454	131.534297617	"7"	738.400430502	736.127008264	1.5	0.1
0.01	1	0.00209614099998134	1	87	NA	136.470033941	0	0.850000000000001	3.21	1	131.76595729	131.768053431	"7"	738.400430502	736.127008264	1.5	0.1
0.01	1	0.00395862199997055	1	87	NA	136.470033941	0	0.850000000000001	3.21	1	131.999754325	132.003712947	"7"	738.400430502	736.127008264	1.5	0.1
0.01	1	0.00459759000000304	1	87	NA	136.470033941	0	0.850000000000001	3.21	1	132.23344814	132.23804573	"7"	738.400430502	736.127008264	1.5	0.1
0.01	1	0.113942868000038	1	87	NA	136.470033941	0	0.850000000000001	3.21	1	132.467190165	132.581133033	"7"	738.400430502	736.127008264	1.5	0.1
0.01	1	0.00389914700002691	1	87	NA	136.470033941	0	0.850000000000001	3.21	1	132.8176946	132.821593747	"7"	738.400430502	736.127008264	1.5	0.1
0.01	1	0.00204598099998066	1	87	NA	136.470033941	0	0.850000000000001	3.21	1	133.051551061	133.053597042	"7"	738.400430502	736.127008264	1.5	0.1
0.01	1	0.00402207199999793	1	87	NA	136.470033941	0	0.850000000000001	3.21	1	133.285211705	133.289233777	"7"	738.400430502	736.127008264	1.5	0.1
0.01	1	0.00385764799995059	1	87	NA	136.470033941	0	0.850000000000001	3.21	1	133.519032265	133.522889913	"7"	738.400430502	736.127008264	1.5	0.1
0.01	1	0.0044824349999999	1	87	NA	136.470033941	0	0.850000000000001	3.21	1	133.75273511	133.757217545	"7"	738.400430502	736.127008264	1.5	0.1
0.01	1	0.0986476680000123	1	87	NA	136.470033941	0	0.850000000000001	3.21	1	133.986579017	134.085226685	"7"	738.400430502	736.127008264	1.5	0.1
0.01	1	0.00454843199997867	1	87	NA	136.470033941	0	0.850000000000001	3.21	1	134.32032417	134.324872602	"7"	738.400430502	736.127008264	1.5	0.1
0.01	1	0.00205888100003904	1	87	NA	136.470033941	0	0.850000000000001	3.21	1	134.55409681	134.556155691	"7"	738.400430502	736.127008264	1.5	0.1
0.01	1	0.00296673600001895	1	87	NA	136.470033941	0	0.850000000000001	3.21	1	134.787777253	134.790743989	"7"	738.400430502	736.127008264	1.5	0.1
0.01	1	0.103145963000031	1	87	NA	136.470033941	0	0.850000000000001	3.21	1	135.021455067	135.12460103	"7"	738.400430502	736.127008264	1.5	0.1
0.01	1	0.00200253400004158	1	87	NA	136.470033941	0	0.850000000000001	3.21	1	135.355336267	135.357338801	"7"	738.400430502	736.127008264	1.5	0.1
0.01	1	0.0043701309999733	1	87	NA	136.470033941	0	0.850000000000001	3.21	1	135.589186364	135.593556495	"7"	738.400430502	736.127008264	1.5	0.1
0.01	1	0.00396486099998583	1	87	NA	136.470033941	0	0.850000000000001	3.21	1	135.822850792	135.826815653	"7"	738.400430502	736.127008264	1.5	0.1
0.01	1	0.108353759000011	1	87	NA	136.470033941	0	0.850000000000001	3.21	1	136.056463809	136.164817568	"7"	738.400430502	736.127008264	1.5	0.1
0.01	1	0.0779673449999905	2	87	NA	136.470033941	0	0.850000000000001	3.21	1	136.390486895	136.46845424	"7"	738.400430502	736.127008264	1.5	0.1
0.01	1	0.29320479200004	1	6	140.300858682	NA	1	0	3.21	1	138.52739266	138.820597452	"8"	738.400430502	736.127008264	1.5	0.1
0.01	1	0.0045739669999989	1	6	140.300858682	NA	1	0	3.21	1	139.061566145	139.066140112	"8"	738.400430502	736.127008264	1.5	0.1
0.01	1	0.110328754000022	1	6	140.300858682	NA	1	0	3.21	1	139.29538748	139.405716234	"8"	738.400430502	736.127008264	1.5	0.1
0.01	1	0.00452611000002889	1	6	140.300858682	NA	1	0	3.21	1	139.62930171	139.63382782	"8"	738.400430502	736.127008264	1.5	0.1
0.01	1	0.00457742199995437	1	6	140.300858682	NA	1	0	3.21	1	139.86307648	139.867653902	"8"	738.400430502	736.127008264	1.5	0.1
0.01	1	0.0923677679999741	1	6	140.300858682	NA	1	0	3.21	1	140.096680865	140.189048633	"8"	738.400430502	736.127008264	1.5	0.1
0.01	1	0.126914530000022	1	106	NA	164.486181869	0	0.880000000000001	4.09	1	142.333758397	142.460672927	"9"	738.400430502	736.127008264	1.5	0.1
0.01	1	0.00454198199997791	1	106	NA	164.486181869	0	0.880000000000001	4.09	1	142.701174955	142.705716937	"9"	738.400430502	736.127008264	1.5	0.1
0.01	1	0.00400946399997792	1	106	NA	164.486181869	0	0.880000000000001	4.09	1	142.934801255	142.938810719	"9"	738.400430502	736.127008264	1.5	0.1
0.01	1	0.109038625000039	1	106	NA	164.486181869	0	0.880000000000001	4.09	1	143.168480065	143.27751869	"9"	738.400430502	736.127008264	1.5	0.1
0.01	1	0.00245944299996381	1	106	NA	164.486181869	0	0.880000000000001	4.09	1	143.502404779	143.504864222	"9"	738.400430502	736.127008264	1.5	0.1
0.01	1	0.00216815999999653	1	106	NA	164.486181869	0	0.880000000000001	4.09	1	143.736159387	143.738327547	"9"	738.400430502	736.127008264	1.5	0.1
0.01	1	0.00387220300001445	1	106	NA	164.486181869	0	0.880000000000001	4.09	1	143.96988983	143.973762033	"9"	738.400430502	736.127008264	1.5	0.1
0.01	1	0.00381840899996178	1	106	NA	164.486181869	0	0.880000000000001	4.09	1	144.20355553	144.207373939	"9"	738.400430502	736.127008264	1.5	0.1
0.01	1	0.120230424999988	1	106	NA	164.486181869	0	0.880000000000001	4.09	1	144.437347465	144.55757789	"9"	738.400430502	736.127008264	1.5	0.1
0.01	1	0.00273305099995014	1	106	NA	164.486181869	0	0.880000000000001	4.09	1	144.787819053	144.790552104	"9"	738.400430502	736.127008264	1.5	0.1
0.01	1	0.00204220400001986	1	106	NA	164.486181869	0	0.880000000000001	4.09	1	145.02154417	145.023586374	"9"	738.400430502	736.127008264	1.5	0.1
0.01	1	0.00378669200000559	1	106	NA	164.486181869	0	0.880000000000001	4.09	1	145.255325095	145.259111787	"9"	738.400430502	736.127008264	1.5	0.1
0.01	1	0.00394351299996742	1	106	NA	164.486181869	0	0.880000000000001	4.09	1	145.489081917	145.49302543	"9"	738.400430502	736.127008264	1.5	0.1
0.01	1	0.113283648999982	1	106	NA	164.486181869	0	0.880000000000001	4.09	1	145.72289401	145.836177659	"9"	738.400430502	736.127008264	1.5	0.1
0.01	1	0.00456360000003997	1	106	NA	164.486181869	0	0.880000000000001	4.09	1	146.073367815	146.077931415	"9"	738.400430502	736.127008264	1.5	0.1
0.01	1	0.00391480199999705	1	106	NA	164.486181869	0	0.880000000000001	4.09	1	146.307177445	146.311092247	"9"	738.400430502	736.127008264	1.5	0.1
0.01	1	0.00382097900001099	1	106	NA	164.486181869	0	0.880000000000001	4.09	1	146.54085267	146.544673649	"9"	738.400430502	736.127008264	1.5	0.1
0.01	1	0.126853154000003	1	106	NA	164.486181869	0	0.880000000000001	4.09	1	146.77457143	146.901424584	"9"	738.400430502	736.127008264	1.5	0.1
0.01	1	0.00434133800001746	1	106	NA	164.486181869	0	0.880000000000001	4.09	1	147.125142504	147.129483842	"9"	738.400430502	736.127008264	1.5	0.1
0.01	1	0.00204164999996692	1	106	NA	164.486181869	0	0.880000000000001	4.09	1	147.358871093	147.360912743	"9"	738.400430502	736.127008264	1.5	0.1
0.01	1	0.00201891400001841	1	106	NA	164.486181869	0	0.880000000000001	4.09	1	147.592559393	147.594578307	"9"	738.400430502	736.127008264	1.5	0.1
0.01	1	0.00198477599997204	1	106	NA	164.486181869	0	0.880000000000001	4.09	1	147.826304955	147.828289731	"9"	738.400430502	736.127008264	1.5	0.1
0.01	1	0.00456622999996625	1	106	NA	164.486181869	0	0.880000000000001	4.09	1	148.06011838	148.06468461	"9"	738.400430502	736.127008264	1.5	0.1
0.01	1	0.00383679499998379	1	106	NA	164.486181869	0	0.880000000000001	4.09	1	148.293784942	148.297621737	"9"	738.400430502	736.127008264	1.5	0.1
0.01	1	0.00456576499999528	1	106	NA	164.486181869	0	0.880000000000001	4.09	1	148.52758484	148.532150605	"9"	738.400430502	736.127008264	1.5	0.1
0.01	1	0.114870236999991	1	106	NA	164.486181869	0	0.880000000000001	4.09	1	148.761226202	148.876096439	"9"	738.400430502	736.127008264	1.5	0.1
0.01	1	0.00219822200000408	1	106	NA	164.486181869	0	0.880000000000001	4.09	1	149.111907193	149.114105415	"9"	738.400430502	736.127008264	1.5	0.1
0.01	1	0.00458754200002431	1	106	NA	164.486181869	0	0.880000000000001	4.09	1	149.34559374	149.350181282	"9"	738.400430502	736.127008264	1.5	0.1
0.01	1	0.00452419000004056	1	106	NA	164.486181869	0	0.880000000000001	4.09	1	149.579234645	149.583758835	"9"	738.400430502	736.127008264	1.5	0.1
0.01	1	0.00380513699997209	1	106	NA	164.486181869	0	0.880000000000001	4.09	1	149.81305291	149.816858047	"9"	738.400430502	736.127008264	1.5	0.1
0.01	1	0.0037728810000317	1	106	NA	164.486181869	0	0.880000000000001	4.09	1	150.046784442	150.050557323	"9"	738.400430502	736.127008264	1.5	0.1
0.01	1	0.140100509999968	1	106	NA	164.486181869	0	0.880000000000001	4.09	1	150.280525564	150.420626074	"9"	738.400430502	736.127008264	1.5	0.1
0.01	1	0.00207307199997331	1	106	NA	164.486181869	0	0.880000000000001	4.09	1	150.647733247	150.649806319	"9"	738.400430502	736.127008264	1.5	0.1
0.01	1	0.00386065600002894	1	106	NA	164.486181869	0	0.880000000000001	4.09	1	150.881507905	150.885368561	"9"	738.400430502	736.127008264	1.5	0.1
0.01	1	0.00364285299997391	1	106	NA	164.486181869	0	0.880000000000001	4.09	1	151.115237872	151.118880725	"9"	738.400430502	736.127008264	1.5	0.1
0.01	1	0.00383396100005484	1	106	NA	164.486181869	0	0.880000000000001	4.09	1	151.34900098	151.352834941	"9"	738.400430502	736.127008264	1.5	0.1
0.01	1	0.119045488999973	1	106	NA	164.486181869	0	0.880000000000001	4.09	1	151.582610922	151.701656411	"9"	738.400430502	736.127008264	1.5	0.1
0.01	1	0.00216491500003713	1	106	NA	164.486181869	0	0.880000000000001	4.09	1	151.933245422	151.935410337	"9"	738.400430502	736.127008264	1.5	0.1
0.01	1	0.00206169199998385	1	106	NA	164.486181869	0	0.880000000000001	4.09	1	152.166942689	152.169004381	"9"	738.400430502	736.127008264	1.5	0.1
0.01	1	0.00382631499996933	1	106	NA	164.486181869	0	0.880000000000001	4.09	1	152.400670692	152.404497007	"9"	738.400430502	736.127008264	1.5	0.1
0.01	1	0.170957198999986	1	106	NA	164.486181869	0	0.880000000000001	4.09	1	152.634556422	152.805513621	"9"	738.400430502	736.127008264	1.5	0.1
0.01	1	0.00478714000001901	1	106	NA	164.486181869	0	0.880000000000001	4.09	1	153.03511143	153.03989857	"9"	738.400430502	736.127008264	1.5	0.1
0.01	1	0.00202604099996506	1	106	NA	164.486181869	0	0.880000000000001	4.09	1	153.268789194	153.270815235	"9"	738.400430502	736.127008264	1.5	0.1
0.01	1	0.00383565399999952	1	106	NA	164.486181869	0	0.880000000000001	4.09	1	153.502481025	153.506316679	"9"	738.400430502	736.127008264	1.5	0.1
0.01	1	0.00395779599995194	1	106	NA	164.486181869	0	0.880000000000001	4.09	1	153.736259795	153.740217591	"9"	738.400430502	736.127008264	1.5	0.1
0.01	1	0.107432748999997	1	106	NA	164.486181869	0	0.880000000000001	4.09	1	153.969987995	154.077420744	"9"	738.400430502	736.127008264	1.5	0.1
0.01	1	0.00213171299998294	1	106	NA	164.486181869	0	0.880000000000001	4.09	1	154.303892516	154.306024229	"9"	738.400430502	736.127008264	1.5	0.1
0.01	1	0.00217705800002932	1	106	NA	164.486181869	0	0.880000000000001	4.09	1	154.537630554	154.539807612	"9"	738.400430502	736.127008264	1.5	0.1
0.01	1	0.00204031999999188	1	106	NA	164.486181869	0	0.880000000000001	4.09	1	154.771332153	154.773372473	"9"	738.400430502	736.127008264	1.5	0.1
0.01	1	0.00201171899999508	1	106	NA	164.486181869	0	0.880000000000001	4.09	1	155.005128946	155.007140665	"9"	738.400430502	736.127008264	1.5	0.1
0.01	1	0.00205252999995764	1	106	NA	164.486181869	0	0.880000000000001	4.09	1	155.238872972	155.240925502	"9"	738.400430502	736.127008264	1.5	0.1
0.01	1	0.00458053699998118	1	106	NA	164.486181869	0	0.880000000000001	4.09	1	155.472612325	155.477192862	"9"	738.400430502	736.127008264	1.5	0.1
0.01	1	0.00370270799999162	1	106	NA	164.486181869	0	0.880000000000001	4.09	1	155.706250865	155.709953573	"9"	738.400430502	736.127008264	1.5	0.1
0.01	1	0.00389408800003821	1	106	NA	164.486181869	0	0.880000000000001	4.09	1	155.940075247	155.943969335	"9"	738.400430502	736.127008264	1.5	0.1
0.01	1	0.00349772599997777	1	106	NA	164.486181869	0	0.880000000000001	4.09	1	156.173716985	156.177214711	"9"	738.400430502	736.127008264	1.5	0.1
0.01	1	0.132801480000012	1	106	NA	164.486181869	0	0.880000000000001	4.09	1	156.407466422	156.540267902	"9"	738.400430502	736.127008264	1.5	0.1
0.01	1	0.00375604599997814	1	106	NA	164.486181869	0	0.880000000000001	4.09	1	156.774756555	156.778512601	"9"	738.400430502	736.127008264	1.5	0.1
0.01	1	0.0117029749999915	1	106	NA	164.486181869	0	0.880000000000001	4.09	1	157.0084344	157.020137375	"9"	738.400430502	736.127008264	1.5	0.1
0.01	1	0.0036753210000029	1	106	NA	164.486181869	0	0.880000000000001	4.09	1	157.242195702	157.245871023	"9"	738.400430502	736.127008264	1.5	0.1
0.01	1	0.0421743059999926	1	106	NA	164.486181869	0	0.880000000000001	4.09	1	157.475881587	157.518055893	"9"	738.400430502	736.127008264	1.5	0.1
0.01	1	0.0299574229999848	1	106	NA	164.486181869	0	0.880000000000001	4.09	1	157.743008427	157.77296585	"9"	738.400430502	736.127008264	1.5	0.1
0.01	1	0.00430471700002499	1	106	NA	164.486181869	0	0.880000000000001	4.09	1	158.010216958	158.014521675	"9"	738.400430502	736.127008264	1.5	0.1
0.01	1	0.00198374500001819	1	106	NA	164.486181869	0	0.880000000000001	4.09	1	158.243831099	158.245814844	"9"	738.400430502	736.127008264	1.5	0.1
0.01	1	0.00385297000002538	1	106	NA	164.486181869	0	0.880000000000001	4.09	1	158.477595207	158.481448177	"9"	738.400430502	736.127008264	1.5	0.1
0.01	1	0.00386744700000463	1	106	NA	164.486181869	0	0.880000000000001	4.09	1	158.71125202	158.715119467	"9"	738.400430502	736.127008264	1.5	0.1
0.01	1	0.00365319200000158	1	106	NA	164.486181869	0	0.880000000000001	4.09	1	158.945050957	158.948704149	"9"	738.400430502	736.127008264	1.5	0.1
0.01	1	0.00396099499999991	1	106	NA	164.486181869	0	0.880000000000001	4.09	1	159.178736742	159.182697737	"9"	738.400430502	736.127008264	1.5	0.1
0.01	1	0.00387983199999553	1	106	NA	164.486181869	0	0.880000000000001	4.09	1	159.412528285	159.416408117	"9"	738.400430502	736.127008264	1.5	0.1
0.01	1	0.00385029899996425	1	106	NA	164.486181869	0	0.880000000000001	4.09	1	159.64616057	159.650010869	"9"	738.400430502	736.127008264	1.5	0.1
0.01	1	0.00458807500001512	1	106	NA	164.486181869	0	0.880000000000001	4.09	1	159.87992985	159.884517925	"9"	738.400430502	736.127008264	1.5	0.1
0.01	1	0.0044863409999607	1	106	NA	164.486181869	0	0.880000000000001	4.09	1	160.113739301	160.118225642	"9"	738.400430502	736.127008264	1.5	0.1
0.01	1	0.00447867100001531	1	106	NA	164.486181869	0	0.880000000000001	4.09	1	160.347322164	160.351800835	"9"	738.400430502	736.127008264	1.5	0.1
0.01	1	0.00372885700005554	1	106	NA	164.486181869	0	0.880000000000001	4.09	1	160.581091832	160.584820689	"9"	738.400430502	736.127008264	1.5	0.1
0.01	1	0.13389367100001	1	106	NA	164.486181869	0	0.880000000000001	4.09	1	160.814911862	160.948805533	"9"	738.400430502	736.127008264	1.5	0.1
0.01	1	0.00377197900002102	1	106	NA	164.486181869	0	0.880000000000001	4.09	1	161.182051672	161.185823651	"9"	738.400430502	736.127008264	1.5	0.1
0.01	1	0.00203198799999882	1	106	NA	164.486181869	0	0.880000000000001	4.09	1	161.415850271	161.417882259	"9"	738.400430502	736.127008264	1.5	0.1
0.01	1	0.00212426400003096	1	106	NA	164.486181869	0	0.880000000000001	4.09	1	161.64963628	161.651760544	"9"	738.400430502	736.127008264	1.5	0.1
0.01	1	0.00217239600004859	1	106	NA	164.486181869	0	0.880000000000001	4.09	1	161.883256375	161.885428771	"9"	738.400430502	736.127008264	1.5	0.1
0.01	1	0.00202142399996319	1	106	NA	164.486181869	0	0.880000000000001	4.09	1	162.117077165	162.119098589	"9"	738.400430502	736.127008264	1.5	0.1
0.01	1	0.00214420000003201	1	106	NA	164.486181869	0	0.880000000000001	4.09	1	162.350801125	162.352945325	"9"	738.400430502	736.127008264	1.5	0.1
0.01	1	0.00201849300003687	1	106	NA	164.486181869	0	0.880000000000001	4.09	1	162.584503737	162.58652223	"9"	738.400430502	736.127008264	1.5	0.1
0.01	1	0.0020383680000009	1	106	NA	164.486181869	0	0.880000000000001	4.09	1	162.818284241	162.820322609	"9"	738.400430502	736.127008264	1.5	0.1
0.01	1	0.00220525999998245	1	106	NA	164.486181869	0	0.880000000000001	4.09	1	163.052034917	163.054240177	"9"	738.400430502	736.127008264	1.5	0.1
0.01	1	0.00960447099998873	1	106	NA	164.486181869	0	0.880000000000001	4.09	1	163.28575273	163.295357201	"9"	738.400430502	736.127008264	1.5	0.1
0.01	1	0.00221293799995692	1	106	NA	164.486181869	0	0.880000000000001	4.09	1	163.519346685	163.521559623	"9"	738.400430502	736.127008264	1.5	0.1
0.01	1	0.00219778400003179	1	106	NA	164.486181869	0	0.880000000000001	4.09	1	163.753188536	163.75538632	"9"	738.400430502	736.127008264	1.5	0.1
0.01	1	0.00209888899996713	1	106	NA	164.486181869	0	0.880000000000001	4.09	1	163.986911081	163.98900997	"9"	738.400430502	736.127008264	1.5	0.1
0.01	1	0.00237012600001663	1	106	NA	164.486181869	0	0.880000000000001	4.09	1	164.220506927	164.222877053	"9"	738.400430502	736.127008264	1.5	0.1
0.01	1	0.0301576609999756	2	106	NA	164.486181869	0	0.880000000000001	4.09	1	164.45448591	164.484643571	"9"	738.400430502	736.127008264	1.5	0.1
0.01	1	0.00960835199998655	1	21	171.702899002	NA	1	0	4.09	1	166.541149715	166.550758067	"10"	738.400430502	736.127008264	1.5	0.1
0.01	1	0.00204925100001674	1	21	171.702899002	NA	1	0	4.09	1	166.79160328	166.793652531	"10"	738.400430502	736.127008264	1.5	0.1
0.01	1	0.00195063400002482	1	21	171.702899002	NA	1	0	4.09	1	167.025294301	167.027244935	"10"	738.400430502	736.127008264	1.5	0.1
0.01	1	0.00428225799998927	1	21	171.702899002	NA	1	0	4.09	1	167.258987067	167.263269325	"10"	738.400430502	736.127008264	1.5	0.1
0.01	1	0.0884950189999927	1	21	171.702899002	NA	1	0	4.09	1	167.492789675	167.581284694	"10"	738.400430502	736.127008264	1.5	0.1
0.01	1	0.00219320400003653	1	21	171.702899002	NA	1	0	4.09	1	167.809868846	167.81206205	"10"	738.400430502	736.127008264	1.5	0.1
0.01	1	0.00399878100000706	1	21	171.702899002	NA	1	0	4.09	1	168.04374491	168.047743691	"10"	738.400430502	736.127008264	1.5	0.1
0.01	1	0.00384618899994393	1	21	171.702899002	NA	1	0	4.09	1	168.277396622	168.281242811	"10"	738.400430502	736.127008264	1.5	0.1
0.01	1	0.142888968999955	1	21	171.702899002	NA	1	0	4.09	1	168.51108612	168.653975089	"10"	738.400430502	736.127008264	1.5	0.1
0.01	1	0.00388283899997077	1	21	171.702899002	NA	1	0	4.09	1	168.87851315	168.882395989	"10"	738.400430502	736.127008264	1.5	0.1
0.01	1	0.00219623100002764	1	21	171.702899002	NA	1	0	4.09	1	169.112021258	169.114217489	"10"	738.400430502	736.127008264	1.5	0.1
0.01	1	0.00206503500004374	1	21	171.702899002	NA	1	0	4.09	1	169.345796605	169.34786164	"10"	738.400430502	736.127008264	1.5	0.1
0.01	1	0.00196917599998869	1	21	171.702899002	NA	1	0	4.09	1	169.579596155	169.581565331	"10"	738.400430502	736.127008264	1.5	0.1
0.01	1	0.0038182989999882	1	21	171.702899002	NA	1	0	4.09	1	169.81329505	169.817113349	"10"	738.400430502	736.127008264	1.5	0.1
0.01	1	0.00461523500001704	1	21	171.702899002	NA	1	0	4.09	1	170.047027765	170.051643	"10"	738.400430502	736.127008264	1.5	0.1
0.01	1	0.00399728700000423	1	21	171.702899002	NA	1	0	4.09	1	170.280850572	170.284847859	"10"	738.400430502	736.127008264	1.5	0.1
0.01	1	0.129727226	1	21	171.702899002	NA	1	0	4.09	1	170.514469577	170.644196803	"10"	738.400430502	736.127008264	1.5	0.1
0.01	1	0.00206321899997874	1	21	171.702899002	NA	1	0	4.09	1	170.881789043	170.883852262	"10"	738.400430502	736.127008264	1.5	0.1
0.01	1	0.00208774499998299	1	21	171.702899002	NA	1	0	4.09	1	171.115510165	171.11759791	"10"	738.400430502	736.127008264	1.5	0.1
0.01	1	0.0020991849999632	1	21	171.702899002	NA	1	0	4.09	1	171.349235689	171.351334874	"10"	738.400430502	736.127008264	1.5	0.1
0.01	1	0.00383780999999317	1	21	171.702899002	NA	1	0	4.09	1	171.582975647	171.586813457	"10"	738.400430502	736.127008264	1.5	0.1
0.01	1	0.0444043569999621	1	19	178.447423667	NA	1	0	4.09	1	173.753367172	173.797771529	"11"	738.400430502	736.127008264	1.5	0.1
0.01	1	0.0021045670000035	1	19	178.447423667	NA	1	0	4.09	1	174.037148912	174.039253479	"11"	738.400430502	736.127008264	1.5	0.1
0.01	1	0.00395329099995934	1	19	178.447423667	NA	1	0	4.09	1	174.270912182	174.274865473	"11"	738.400430502	736.127008264	1.5	0.1
0.01	1	0.100336143999982	1	19	178.447423667	NA	1	0	4.09	1	174.50450812	174.604844264	"11"	738.400430502	736.127008264	1.5	0.1
0.01	1	0.0020116730000268	1	19	178.447423667	NA	1	0	4.09	1	174.838429703	174.840441376	"11"	738.400430502	736.127008264	1.5	0.1
0.01	1	0.00397559499998579	1	19	178.447423667	NA	1	0	4.09	1	175.07224157	175.076217165	"11"	738.400430502	736.127008264	1.5	0.1
0.01	1	0.00396576099996082	1	19	178.447423667	NA	1	0	4.09	1	175.305929782	175.309895543	"11"	738.400430502	736.127008264	1.5	0.1
0.01	1	0.106071762999989	1	19	178.447423667	NA	1	0	4.09	1	175.539545197	175.64561696	"11"	738.400430502	736.127008264	1.5	0.1
0.01	1	0.00203142500004105	1	19	178.447423667	NA	1	0	4.09	1	175.87351312	175.875544545	"11"	738.400430502	736.127008264	1.5	0.1
0.01	1	0.00197341699998788	1	19	178.447423667	NA	1	0	4.09	1	176.107289362	176.109262779	"11"	738.400430502	736.127008264	1.5	0.1
0.01	1	0.00391286400002855	1	19	178.447423667	NA	1	0	4.09	1	176.341070465	176.344983329	"11"	738.400430502	736.127008264	1.5	0.1
0.01	1	0.00454193599995278	1	19	178.447423667	NA	1	0	4.09	1	176.574766644	176.57930858	"11"	738.400430502	736.127008264	1.5	0.1
0.01	1	0.00460330999999314	1	19	178.447423667	NA	1	0	4.09	1	176.808409855	176.813013165	"11"	738.400430502	736.127008264	1.5	0.1
0.01	1	0.114764674000014	1	19	178.447423667	NA	1	0	4.09	1	177.042095017	177.156859691	"11"	738.400430502	736.127008264	1.5	0.1
0.01	1	0.00455517500000724	1	19	178.447423667	NA	1	0	4.09	1	177.39277314	177.397328315	"11"	738.400430502	736.127008264	1.5	0.1
0.01	1	0.00205734700000448	1	19	178.447423667	NA	1	0	4.09	1	177.626444768	177.628502115	"11"	738.400430502	736.127008264	1.5	0.1
0.01	1	0.00451701199995114	1	19	178.447423667	NA	1	0	4.09	1	177.860259625	177.864776637	"11"	738.400430502	736.127008264	1.5	0.1
0.01	1	0.00446203799998557	1	19	178.447423667	NA	1	0	4.09	1	178.093848287	178.098310325	"11"	738.400430502	736.127008264	1.5	0.1
0.01	1	0.00459680500000559	1	19	178.447423667	NA	1	0	4.09	1	178.327711405	178.33230821	"11"	738.400430502	736.127008264	1.5	0.1
0.01	1	0.0039031250000221	1	63	196.044535572	NA	1	0	4.09	1	180.48131888	180.485222005	"12"	738.400430502	736.127008264	1.5	0.1
0.01	1	0.00377088200002618	1	63	196.044535572	NA	1	0	4.09	1	180.714966195	180.718737077	"12"	738.400430502	736.127008264	1.5	0.1
0.01	1	0.112081636000028	1	63	196.044535572	NA	1	0	4.09	1	180.948680315	181.060761951	"12"	738.400430502	736.127008264	1.5	0.1
0.01	1	0.00211063100005049	1	63	196.044535572	NA	1	0	4.09	1	181.299381904	181.301492535	"12"	738.400430502	736.127008264	1.5	0.1
0.01	1	0.00457114700003558	1	63	196.044535572	NA	1	0	4.09	1	181.533088965	181.537660112	"12"	738.400430502	736.127008264	1.5	0.1
0.01	1	0.00396610600000713	1	63	196.044535572	NA	1	0	4.09	1	181.766711195	181.770677301	"12"	738.400430502	736.127008264	1.5	0.1
0.01	1	0.00457682499995826	1	63	196.044535572	NA	1	0	4.09	1	182.00047783	182.005054655	"12"	738.400430502	736.127008264	1.5	0.1
0.01	1	0.00375070400002642	1	63	196.044535572	NA	1	0	4.09	1	182.234233847	182.237984551	"12"	738.400430502	736.127008264	1.5	0.1
0.01	1	0.00464932200003432	1	63	196.044535572	NA	1	0	4.09	1	182.46793146	182.472580782	"12"	738.400430502	736.127008264	1.5	0.1
0.01	1	0.118505882999955	1	63	196.044535572	NA	1	0	4.09	1	182.701699	182.820204883	"12"	738.400430502	736.127008264	1.5	0.1
0.01	1	0.00255478100001483	1	63	196.044535572	NA	1	0	4.09	1	183.052226001	183.054780782	"12"	738.400430502	736.127008264	1.5	0.1
0.01	1	0.00234081199999991	1	63	196.044535572	NA	1	0	4.09	1	183.285952101	183.288292913	"12"	738.400430502	736.127008264	1.5	0.1
0.01	1	0.00203936599996268	1	63	196.044535572	NA	1	0	4.09	1	183.519681573	183.521720939	"12"	738.400430502	736.127008264	1.5	0.1
0.01	1	0.00202753899998243	1	63	196.044535572	NA	1	0	4.09	1	183.753445763	183.755473302	"12"	738.400430502	736.127008264	1.5	0.1
0.01	1	0.0046335370000179	1	63	196.044535572	NA	1	0	4.09	1	183.98714214	183.991775677	"12"	738.400430502	736.127008264	1.5	0.1
0.01	1	0.0019897710000123	1	63	196.044535572	NA	1	0	4.09	1	184.220888709	184.22287848	"12"	738.400430502	736.127008264	1.5	0.1
0.01	1	0.0019960939999919	1	63	196.044535572	NA	1	0	4.09	1	184.454690961	184.456687055	"12"	738.400430502	736.127008264	1.5	0.1
0.01	1	0.0039252359999864	1	63	196.044535572	NA	1	0	4.09	1	184.688366755	184.692291991	"12"	738.400430502	736.127008264	1.5	0.1
0.01	1	0.00394645500000479	1	63	196.044535572	NA	1	0	4.09	1	184.92212685	184.926073305	"12"	738.400430502	736.127008264	1.5	0.1
0.01	1	0.00385943899999575	1	63	196.044535572	NA	1	0	4.09	1	185.155769832	185.159629271	"12"	738.400430502	736.127008264	1.5	0.1
0.01	1	0.00385783900003389	1	63	196.044535572	NA	1	0	4.09	1	185.389563792	185.393421631	"12"	738.400430502	736.127008264	1.5	0.1
0.01	1	0.00388613000001214	1	63	196.044535572	NA	1	0	4.09	1	185.623286065	185.627172195	"12"	738.400430502	736.127008264	1.5	0.1
0.01	1	0.00389953499995954	1	63	196.044535572	NA	1	0	4.09	1	185.85702399	185.860923525	"12"	738.400430502	736.127008264	1.5	0.1
0.01	1	0.122544978000008	1	63	196.044535572	NA	1	0	4.09	1	186.090782955	186.213327933	"12"	738.400430502	736.127008264	1.5	0.1
0.01	1	0.0194874860000027	1	63	196.044535572	NA	1	0	4.09	1	186.44124989	186.460737376	"12"	738.400430502	736.127008264	1.5	0.1
0.01	1	0.00203345299996727	1	63	196.044535572	NA	1	0	4.09	1	186.691738573	186.693772026	"12"	738.400430502	736.127008264	1.5	0.1
0.01	1	0.120185450999998	1	63	196.044535572	NA	1	0	4.09	1	186.92554717	187.045732621	"12"	738.400430502	736.127008264	1.5	0.1
0.01	1	0.170074272000022	1	63	196.044535572	NA	1	0	4.09	1	187.276078947	187.446153219	"12"	738.400430502	736.127008264	1.5	0.1
0.01	1	0.0111035080000192	1	63	196.044535572	NA	1	0	4.09	1	187.676740495	187.687844003	"12"	738.400430502	736.127008264	1.5	0.1
0.01	1	0.0465936690000035	1	63	196.044535572	NA	1	0	4.09	1	187.910433244	187.957026913	"12"	738.400430502	736.127008264	1.5	0.1
0.01	1	0.00218196099996248	1	63	196.044535572	NA	1	0	4.09	1	188.194193346	188.196375307	"12"	738.400430502	736.127008264	1.5	0.1
0.01	1	0.00400707199997896	1	63	196.044535572	NA	1	0	4.09	1	188.427968935	188.431976007	"12"	738.400430502	736.127008264	1.5	0.1
0.01	1	0.0633573750000096	1	63	196.044535572	NA	1	0	4.09	1	188.661682125	188.7250395	"12"	738.400430502	736.127008264	1.5	0.1
0.01	1	0.00206400700000131	1	63	196.044535572	NA	1	0	4.09	1	188.962236742	188.964300749	"12"	738.400430502	736.127008264	1.5	0.1
0.01	1	0.00204621000000316	1	63	196.044535572	NA	1	0	4.09	1	189.195949683	189.197995893	"12"	738.400430502	736.127008264	1.5	0.1
0.01	1	0.00477420499998971	1	63	196.044535572	NA	1	0	4.09	1	189.42976009	189.434534295	"12"	738.400430502	736.127008264	1.5	0.1
0.01	1	0.0045120420000444	1	63	196.044535572	NA	1	0	4.09	1	189.66334577	189.667857812	"12"	738.400430502	736.127008264	1.5	0.1
0.01	1	0.0045243819999996	1	63	196.044535572	NA	1	0	4.09	1	189.89704218	189.901566562	"12"	738.400430502	736.127008264	1.5	0.1
0.01	1	0.00420139400000608	1	63	196.044535572	NA	1	0	4.09	1	190.130822171	190.135023565	"12"	738.400430502	736.127008264	1.5	0.1
0.01	1	0.00377757199998996	1	63	196.044535572	NA	1	0	4.09	1	190.364506225	190.368283797	"12"	738.400430502	736.127008264	1.5	0.1
0.01	1	0.00394542899999806	1	63	196.044535572	NA	1	0	4.09	1	190.59826625	190.602211679	"12"	738.400430502	736.127008264	1.5	0.1
0.01	1	0.124340582999992	1	63	196.044535572	NA	1	0	4.09	1	190.831948	190.956288583	"12"	738.400430502	736.127008264	1.5	0.1
0.01	1	0.00674463600000763	1	63	196.044535572	NA	1	0	4.09	1	191.182657205	191.189401841	"12"	738.400430502	736.127008264	1.5	0.1
0.01	1	0.0120592279999983	1	63	196.044535572	NA	1	0	4.09	1	191.41622943	191.428288658	"12"	738.400430502	736.127008264	1.5	0.1
0.01	1	0.00290406599998505	1	63	196.044535572	NA	1	0	4.09	1	191.666686331	191.669590397	"12"	738.400430502	736.127008264	1.5	0.1
0.01	1	0.00283338699995284	1	63	196.044535572	NA	1	0	4.09	1	191.900459531	191.903292918	"12"	738.400430502	736.127008264	1.5	0.1
0.01	1	0.00774893799996335	1	63	196.044535572	NA	1	0	4.09	1	192.134177055	192.141925993	"12"	738.400430502	736.127008264	1.5	0.1
0.01	1	0.0140576059999944	1	63	196.044535572	NA	1	0	4.09	1	192.367831547	192.381889153	"12"	738.400430502	736.127008264	1.5	0.1
0.01	1	0.0121622679999973	1	63	196.044535572	NA	1	0	4.09	1	192.61832224	192.630484508	"12"	738.400430502	736.127008264	1.5	0.1
0.01	1	0.0175676220000014	1	63	196.044535572	NA	1	0	4.09	1	192.85210052	192.869668142	"12"	738.400430502	736.127008264	1.5	0.1
0.01	1	0.0152035370000476	1	63	196.044535572	NA	1	0	4.09	1	193.102442615	193.117646152	"12"	738.400430502	736.127008264	1.5	0.1
0.01	1	0.00222086700000546	1	63	196.044535572	NA	1	0	4.09	1	193.35282501	193.355045877	"12"	738.400430502	736.127008264	1.5	0.1
0.01	1	0.00201634600000489	1	63	196.044535572	NA	1	0	4.09	1	193.586685033	193.588701379	"12"	738.400430502	736.127008264	1.5	0.1
0.01	1	0.00198315199997978	1	63	196.044535572	NA	1	0	4.09	1	193.820374049	193.822357201	"12"	738.400430502	736.127008264	1.5	0.1
0.01	1	0.00207695900002136	1	63	196.044535572	NA	1	0	4.09	1	194.054069551	194.05614651	"12"	738.400430502	736.127008264	1.5	0.1
0.01	1	0.0020578890000138	1	63	196.044535572	NA	1	0	4.09	1	194.287782257	194.289840146	"12"	738.400430502	736.127008264	1.5	0.1
0.01	1	0.00215425700002925	1	63	196.044535572	NA	1	0	4.09	1	194.521568522	194.523722779	"12"	738.400430502	736.127008264	1.5	0.1
0.01	1	0.00270555700001296	1	63	196.044535572	NA	1	0	4.09	1	194.755273597	194.757979154	"12"	738.400430502	736.127008264	1.5	0.1
0.01	1	0.00377454499999885	1	63	196.044535572	NA	1	0	4.09	1	194.988988112	194.992762657	"12"	738.400430502	736.127008264	1.5	0.1
0.01	1	0.00251481700001932	1	63	196.044535572	NA	1	0	4.09	1	195.222669765	195.225184582	"12"	738.400430502	736.127008264	1.5	0.1
0.01	1	0.00206389900000659	1	63	196.044535572	NA	1	0	4.09	1	195.456348756	195.458412655	"12"	738.400430502	736.127008264	1.5	0.1
0.01	1	0.00197843899996997	1	63	196.044535572	NA	1	0	4.09	1	195.69020989	195.692188329	"12"	738.400430502	736.127008264	1.5	0.1
0.01	1	0.00456808199999159	1	63	196.044535572	NA	1	0	4.09	1	195.92383334	195.928401422	"12"	738.400430502	736.127008264	1.5	0.1
0.01	1	0.063663039000005	1	54	NA	211.65571792	0	0.52	4.61	1	198.094209135	198.157872174	"13"	738.400430502	736.127008264	1.5	0.1
0.01	1	0.00296936400002323	1	54	NA	211.65571792	0	0.52	4.61	1	198.394656473	198.397625837	"13"	738.400430502	736.127008264	1.5	0.1
0.01	1	0.00459248999999318	1	54	NA	211.65571792	0	0.52	4.61	1	198.628410965	198.633003455	"13"	738.400430502	736.127008264	1.5	0.1
0.01	1	0.103247250999971	1	54	NA	211.65571792	0	0.52	4.61	1	198.862221867	198.965469118	"13"	738.400430502	736.127008264	1.5	0.1
0.01	1	0.00196595599999227	1	54	NA	211.65571792	0	0.52	4.61	1	199.196086215	199.198052171	"13"	738.400430502	736.127008264	1.5	0.1
0.01	1	0.110804303999998	1	54	NA	211.65571792	0	0.52	4.61	1	199.429725485	199.540529789	"13"	738.400430502	736.127008264	1.5	0.1
0.01	1	0.00212997400001314	1	54	NA	211.65571792	0	0.52	4.61	1	199.763733155	199.765863129	"13"	738.400430502	736.127008264	1.5	0.1
0.01	1	0.00392712100000381	1	54	NA	211.65571792	0	0.52	4.61	1	199.997462232	200.001389353	"13"	738.400430502	736.127008264	1.5	0.1
0.01	1	0.00452151999996886	1	54	NA	211.65571792	0	0.52	4.61	1	200.23117349	200.23569501	"13"	738.400430502	736.127008264	1.5	0.1
0.01	1	0.108825007999997	1	54	NA	211.65571792	0	0.52	4.61	1	200.464774832	200.57359984	"13"	738.400430502	736.127008264	1.5	0.1
0.01	1	0.00208006200000455	1	54	NA	211.65571792	0	0.52	4.61	1	200.79877761	200.800857672	"13"	738.400430502	736.127008264	1.5	0.1
0.01	1	0.0020331380000016	1	54	NA	211.65571792	0	0.52	4.61	1	201.032507423	201.034540561	"13"	738.400430502	736.127008264	1.5	0.1
0.01	1	0.00454887500001178	1	54	NA	211.65571792	0	0.52	4.61	1	201.266232605	201.27078148	"13"	738.400430502	736.127008264	1.5	0.1
0.01	1	0.129044389000001	1	54	NA	211.65571792	0	0.52	4.61	1	201.49991192	201.628956309	"13"	738.400430502	736.127008264	1.5	0.1
0.01	1	0.00236774699999387	1	54	NA	211.65571792	0	0.52	4.61	1	201.867333963	201.86970171	"13"	738.400430502	736.127008264	1.5	0.1
0.01	1	0.00206584800002929	1	54	NA	211.65571792	0	0.52	4.61	1	202.100969165	202.103035013	"13"	738.400430502	736.127008264	1.5	0.1
0.01	1	0.00227069599998231	1	54	NA	211.65571792	0	0.52	4.61	1	202.334739674	202.33701037	"13"	738.400430502	736.127008264	1.5	0.1
0.01	1	0.00387932699999283	1	54	NA	211.65571792	0	0.52	4.61	1	202.56843857	202.572317897	"13"	738.400430502	736.127008264	1.5	0.1
0.01	1	0.00420159300000478	1	54	NA	211.65571792	0	0.52	4.61	1	202.802247192	202.806448785	"13"	738.400430502	736.127008264	1.5	0.1
0.01	1	0.120991462999996	1	54	NA	211.65571792	0	0.52	4.61	1	203.035826678	203.156818141	"13"	738.400430502	736.127008264	1.5	0.1
0.01	1	0.00204406400001744	1	54	NA	211.65571792	0	0.52	4.61	1	203.38645549	203.388499554	"13"	738.400430502	736.127008264	1.5	0.1
0.01	1	0.00209713200001715	1	54	NA	211.65571792	0	0.52	4.61	1	203.620124865	203.622221997	"13"	738.400430502	736.127008264	1.5	0.1
0.01	1	0.00446705999996766	1	54	NA	211.65571792	0	0.52	4.61	1	203.85390602	203.85837308	"13"	738.400430502	736.127008264	1.5	0.1
0.01	1	0.116923928000006	1	54	NA	211.65571792	0	0.52	4.61	1	204.087647305	204.204571233	"13"	738.400430502	736.127008264	1.5	0.1
0.01	1	0.00360326600002736	1	54	NA	211.65571792	0	0.52	4.61	1	204.438171357	204.441774623	"13"	738.400430502	736.127008264	1.5	0.1
0.01	1	0.00459751500000039	1	54	NA	211.65571792	0	0.52	4.61	1	204.67190724	204.676504755	"13"	738.400430502	736.127008264	1.5	0.1
0.01	1	0.00376419299999498	1	54	NA	211.65571792	0	0.52	4.61	1	204.905739182	204.909503375	"13"	738.400430502	736.127008264	1.5	0.1
0.01	1	0.00449738200001093	1	54	NA	211.65571792	0	0.52	4.61	1	205.1393437	205.143841082	"13"	738.400430502	736.127008264	1.5	0.1
0.01	1	0.00388810100002956	1	54	NA	211.65571792	0	0.52	4.61	1	205.373170912	205.377059013	"13"	738.400430502	736.127008264	1.5	0.1
0.01	1	0.00390269500002205	1	54	NA	211.65571792	0	0.52	4.61	1	205.6068585	205.610761195	"13"	738.400430502	736.127008264	1.5	0.1
0.01	1	0.00433047500001749	1	54	NA	211.65571792	0	0.52	4.61	1	205.840647947	205.844978422	"13"	738.400430502	736.127008264	1.5	0.1
0.01	1	0.00434941100002106	1	54	NA	211.65571792	0	0.52	4.61	1	206.074346964	206.078696375	"13"	738.400430502	736.127008264	1.5	0.1
0.01	1	0.112401803000012	1	54	NA	211.65571792	0	0.52	4.61	1	206.308100967	206.42050277	"13"	738.400430502	736.127008264	1.5	0.1
0.01	1	0.00451559499998666	1	54	NA	211.65571792	0	0.52	4.61	1	206.65859723	206.663112825	"13"	738.400430502	736.127008264	1.5	0.1
0.01	1	0.00375443299998324	1	54	NA	211.65571792	0	0.52	4.61	1	206.892304562	206.896058995	"13"	738.400430502	736.127008264	1.5	0.1
0.01	1	0.00459136000000626	1	54	NA	211.65571792	0	0.52	4.61	1	207.1260675	207.13065886	"13"	738.400430502	736.127008264	1.5	0.1
0.01	1	0.109841576000008	1	54	NA	211.65571792	0	0.52	4.61	1	207.359747455	207.469589031	"13"	738.400430502	736.127008264	1.5	0.1
0.01	1	0.00397764100000586	1	54	NA	211.65571792	0	0.52	4.61	1	207.693599352	207.697576993	"13"	738.400430502	736.127008264	1.5	0.1
0.01	1	0.00418299500000785	1	54	NA	211.65571792	0	0.52	4.61	1	207.92734236	207.931525355	"13"	738.400430502	736.127008264	1.5	0.1
0.01	1	0.0045585869999627	1	54	NA	211.65571792	0	0.52	4.61	1	208.161130725	208.165689312	"13"	738.400430502	736.127008264	1.5	0.1
0.01	1	0.114532506000046	1	54	NA	211.65571792	0	0.52	4.61	1	208.394896165	208.509428671	"13"	738.400430502	736.127008264	1.5	0.1
0.01	1	0.00216492200001994	1	54	NA	211.65571792	0	0.52	4.61	1	208.74544147	208.747606392	"13"	738.400430502	736.127008264	1.5	0.1
0.01	1	0.00203737599997567	1	54	NA	211.65571792	0	0.52	4.61	1	208.979191711	208.981229087	"13"	738.400430502	736.127008264	1.5	0.1
0.01	1	0.0041816749999839	1	54	NA	211.65571792	0	0.52	4.61	1	209.212830775	209.21701245	"13"	738.400430502	736.127008264	1.5	0.1
0.01	1	0.00392146100000446	1	54	NA	211.65571792	0	0.52	4.61	1	209.44661445	209.450535911	"13"	738.400430502	736.127008264	1.5	0.1
0.01	1	0.00450167700000748	1	54	NA	211.65571792	0	0.52	4.61	1	209.680419815	209.684921492	"13"	738.400430502	736.127008264	1.5	0.1
0.01	1	0.114011181000023	1	54	NA	211.65571792	0	0.52	4.61	1	209.914149501	210.028160682	"13"	738.400430502	736.127008264	1.5	0.1
0.01	1	0.00201162499996599	1	54	NA	211.65571792	0	0.52	4.61	1	210.264786967	210.266798592	"13"	738.400430502	736.127008264	1.5	0.1
0.01	1	0.0037658219999912	1	54	NA	211.65571792	0	0.52	4.61	1	210.498395887	210.502161709	"13"	738.400430502	736.127008264	1.5	0.1
0.01	1	0.00361532400000897	1	54	NA	211.65571792	0	0.52	4.61	1	210.732068665	210.735683989	"13"	738.400430502	736.127008264	1.5	0.1
0.01	1	0.00398998399998618	1	54	NA	211.65571792	0	0.52	4.61	1	210.965782115	210.969772099	"13"	738.400430502	736.127008264	1.5	0.1
0.01	1	0.00367560900002672	1	54	NA	211.65571792	0	0.52	4.61	1	211.19958503	211.203260639	"13"	738.400430502	736.127008264	1.5	0.1
0.01	1	0.220833192999976	2	54	NA	211.65571792	0	0.52	4.61	1	211.43327675	211.654109943	"13"	738.400430502	736.127008264	1.5	0.1
0.01	1	0.133769700000016	1	103	NA	232.62239832	0	0.77	5.38	1	213.703803822	213.837573522	"14"	738.400430502	736.127008264	1.5	0.1
0.01	1	0.00199076199999126	1	103	NA	232.62239832	0	0.77	5.38	1	214.071066773	214.073057535	"14"	738.400430502	736.127008264	1.5	0.1
0.01	1	0.00454131999998708	1	103	NA	232.62239832	0	0.77	5.38	1	214.30479597	214.30933729	"14"	738.400430502	736.127008264	1.5	0.1
0.01	1	0.00380316700000094	1	103	NA	232.62239832	0	0.77	5.38	1	214.538595902	214.542399069	"14"	738.400430502	736.127008264	1.5	0.1
0.01	1	0.121102768000014	1	103	NA	232.62239832	0	0.77	5.38	1	214.772269862	214.89337263	"14"	738.400430502	736.127008264	1.5	0.1
0.01	1	0.00456307000001743	1	103	NA	232.62239832	0	0.77	5.38	1	215.123057545	215.127620615	"14"	738.400430502	736.127008264	1.5	0.1
0.01	1	0.00207934999997406	1	103	NA	232.62239832	0	0.77	5.38	1	215.356572823	215.358652173	"14"	738.400430502	736.127008264	1.5	0.1
0.01	1	0.00387682300004144	1	103	NA	232.62239832	0	0.77	5.38	1	215.590215212	215.594092035	"14"	738.400430502	736.127008264	1.5	0.1
0.01	1	0.00378248200001963	1	103	NA	232.62239832	0	0.77	5.38	1	215.823998585	215.827781067	"14"	738.400430502	736.127008264	1.5	0.1
0.01	1	0.00368143299999701	1	103	NA	232.62239832	0	0.77	5.38	1	216.05779293	216.061474363	"14"	738.400430502	736.127008264	1.5	0.1
0.01	1	0.138016220999987	1	103	NA	232.62239832	0	0.77	5.38	1	216.291493182	216.429509403	"14"	738.400430502	736.127008264	1.5	0.1
0.01	1	0.00217537499997889	1	103	NA	232.62239832	0	0.77	5.38	1	216.658827245	216.66100262	"14"	738.400430502	736.127008264	1.5	0.1
0.01	1	0.00197839900005192	1	103	NA	232.62239832	0	0.77	5.38	1	216.892517943	216.894496342	"14"	738.400430502	736.127008264	1.5	0.1
0.01	1	0.00202084900001864	1	103	NA	232.62239832	0	0.77	5.38	1	217.126184741	217.12820559	"14"	738.400430502	736.127008264	1.5	0.1
0.01	1	0.00198055800001384	1	103	NA	232.62239832	0	0.77	5.38	1	217.360017351	217.361997909	"14"	738.400430502	736.127008264	1.5	0.1
0.01	1	0.00216079900002342	1	103	NA	232.62239832	0	0.77	5.38	1	217.593742927	217.595903726	"14"	738.400430502	736.127008264	1.5	0.1
0.01	1	0.00195515999996587	1	103	NA	232.62239832	0	0.77	5.38	1	217.827353114	217.829308274	"14"	738.400430502	736.127008264	1.5	0.1
0.01	1	0.00375092300004098	1	103	NA	232.62239832	0	0.77	5.38	1	218.06115227	218.064903193	"14"	738.400430502	736.127008264	1.5	0.1
0.01	1	0.0045189100000016	1	103	NA	232.62239832	0	0.77	5.38	1	218.294782145	218.299301055	"14"	738.400430502	736.127008264	1.5	0.1
0.01	1	0.00452799499998946	1	103	NA	232.62239832	0	0.77	5.38	1	218.528620955	218.53314895	"14"	738.400430502	736.127008264	1.5	0.1
0.01	1	0.00457940999996254	1	103	NA	232.62239832	0	0.77	5.38	1	218.76232427	218.76690368	"14"	738.400430502	736.127008264	1.5	0.1
0.01	1	0.00366182299995899	1	103	NA	232.62239832	0	0.77	5.38	1	218.99604906	218.999710883	"14"	738.400430502	736.127008264	1.5	0.1
0.01	1	0.00452411599997049	1	103	NA	232.62239832	0	0.77	5.38	1	219.229737154	219.23426127	"14"	738.400430502	736.127008264	1.5	0.1
0.01	1	0.118285345000004	1	103	NA	232.62239832	0	0.77	5.38	1	219.463446187	219.581731532	"14"	738.400430502	736.127008264	1.5	0.1
0.01	1	0.00878445099999681	1	103	NA	232.62239832	0	0.77	5.38	1	219.814155562	219.822940013	"14"	738.400430502	736.127008264	1.5	0.1
0.01	1	0.00215697299995554	1	103	NA	232.62239832	0	0.77	5.38	1	220.04769843	220.049855403	"14"	738.400430502	736.127008264	1.5	0.1
0.01	1	0.00198999999997795	1	103	NA	232.62239832	0	0.77	5.38	1	220.281494393	220.283484393	"14"	738.400430502	736.127008264	1.5	0.1
0.01	1	0.0020158759999731	1	103	NA	232.62239832	0	0.77	5.38	1	220.515308934	220.51732481	"14"	738.400430502	736.127008264	1.5	0.1
0.01	1	0.00200289599996495	1	103	NA	232.62239832	0	0.77	5.38	1	220.74902299	220.751025886	"14"	738.400430502	736.127008264	1.5	0.1
0.01	1	0.00203345799997123	1	103	NA	232.62239832	0	0.77	5.38	1	220.982759332	220.98479279	"14"	738.400430502	736.127008264	1.5	0.1
0.01	1	0.00213781499996912	1	103	NA	232.62239832	0	0.77	5.38	1	221.216460245	221.21859806	"14"	738.400430502	736.127008264	1.5	0.1
0.01	1	0.00373006900002792	1	103	NA	232.62239832	0	0.77	5.38	1	221.450143032	221.453873101	"14"	738.400430502	736.127008264	1.5	0.1
0.01	1	0.00461822000005441	1	103	NA	232.62239832	0	0.77	5.38	1	221.68402021	221.68863843	"14"	738.400430502	736.127008264	1.5	0.1
0.01	1	0.00390140799999017	1	103	NA	232.62239832	0	0.77	5.38	1	221.917645385	221.921546793	"14"	738.400430502	736.127008264	1.5	0.1
0.01	1	0.0042719450000277	1	103	NA	232.62239832	0	0.77	5.38	1	222.151302867	222.155574812	"14"	738.400430502	736.127008264	1.5	0.1
0.01	1	0.00378976100000727	1	103	NA	232.62239832	0	0.77	5.38	1	222.385038112	222.388827873	"14"	738.400430502	736.127008264	1.5	0.1
0.01	1	0.122543367999981	1	103	NA	232.62239832	0	0.77	5.38	1	222.6187746	222.741317968	"14"	738.400430502	736.127008264	1.5	0.1
0.01	1	0.00220066599996471	1	103	NA	232.62239832	0	0.77	5.38	1	222.969371824	222.97157249	"14"	738.400430502	736.127008264	1.5	0.1
0.01	1	0.0106193139999959	1	103	NA	232.62239832	0	0.77	5.38	1	223.20306461	223.213683924	"14"	738.400430502	736.127008264	1.5	0.1
0.01	1	0.00460023499999807	1	103	NA	232.62239832	0	0.77	5.38	1	223.436938445	223.44153868	"14"	738.400430502	736.127008264	1.5	0.1
0.01	1	0.00206525400000146	1	103	NA	232.62239832	0	0.77	5.38	1	223.67053093	223.672596184	"14"	738.400430502	736.127008264	1.5	0.1
0.01	1	0.00394853200003809	1	103	NA	232.62239832	0	0.77	5.38	1	223.904344215	223.908292747	"14"	738.400430502	736.127008264	1.5	0.1
0.01	1	0.0020209859999909	1	103	NA	232.62239832	0	0.77	5.38	1	224.137985743	224.140006729	"14"	738.400430502	736.127008264	1.5	0.1
0.01	1	0.00373546200000874	1	103	NA	232.62239832	0	0.77	5.38	1	224.371717125	224.375452587	"14"	738.400430502	736.127008264	1.5	0.1
0.01	1	0.0038852170000041	1	103	NA	232.62239832	0	0.77	5.38	1	224.60553701	224.609422227	"14"	738.400430502	736.127008264	1.5	0.1
0.01	1	0.00451776699998163	1	103	NA	232.62239832	0	0.77	5.38	1	224.839271295	224.843789062	"14"	738.400430502	736.127008264	1.5	0.1
0.01	1	0.00432681400002366	1	103	NA	232.62239832	0	0.77	5.38	1	225.072882378	225.077209192	"14"	738.400430502	736.127008264	1.5	0.1
0.01	1	0.113898114999984	1	103	NA	232.62239832	0	0.77	5.38	1	225.306621205	225.42051932	"14"	738.400430502	736.127008264	1.5	0.1
0.01	1	0.0021689519999768	1	103	NA	232.62239832	0	0.77	5.38	1	225.65730945	225.659478402	"14"	738.400430502	736.127008264	1.5	0.1
0.01	1	0.00466281500001742	1	103	NA	232.62239832	0	0.77	5.38	1	225.89103011	225.895692925	"14"	738.400430502	736.127008264	1.5	0.1
0.01	1	0.00246612499995535	1	103	NA	232.62239832	0	0.77	5.38	1	226.124625039	226.127091164	"14"	738.400430502	736.127008264	1.5	0.1
0.01	1	0.00210273199996891	1	103	NA	232.62239832	0	0.77	5.38	1	226.358319782	226.360422514	"14"	738.400430502	736.127008264	1.5	0.1
0.01	1	0.00198934000002282	1	103	NA	232.62239832	0	0.77	5.38	1	226.592157243	226.594146583	"14"	738.400430502	736.127008264	1.5	0.1
0.01	1	0.00451455000001033	1	103	NA	232.62239832	0	0.77	5.38	1	226.825924535	226.830439085	"14"	738.400430502	736.127008264	1.5	0.1
0.01	1	0.00460469000000785	1	103	NA	232.62239832	0	0.77	5.38	1	227.059649355	227.064254045	"14"	738.400430502	736.127008264	1.5	0.1
0.01	1	0.00428177999998525	1	103	NA	232.62239832	0	0.77	5.38	1	227.29338567	227.29766745	"14"	738.400430502	736.127008264	1.5	0.1
0.01	1	0.00456979500000898	1	103	NA	232.62239832	0	0.77	5.38	1	227.527135305	227.5317051	"14"	738.400430502	736.127008264	1.5	0.1
0.01	1	0.00364029799999344	1	103	NA	232.62239832	0	0.77	5.38	1	227.760690925	227.764331223	"14"	738.400430502	736.127008264	1.5	0.1
0.01	1	0.00383761199998389	1	103	NA	232.62239832	0	0.77	5.38	1	227.994537035	227.998374647	"14"	738.400430502	736.127008264	1.5	0.1
0.01	1	0.00397778599995036	1	103	NA	232.62239832	0	0.77	5.38	1	228.228174425	228.232152211	"14"	738.400430502	736.127008264	1.5	0.1
0.01	1	0.00379782900000691	1	103	NA	232.62239832	0	0.77	5.38	1	228.461893402	228.465691231	"14"	738.400430502	736.127008264	1.5	0.1
0.01	1	0.0046049700000026	1	103	NA	232.62239832	0	0.77	5.38	1	228.69566313	228.7002681	"14"	738.400430502	736.127008264	1.5	0.1
0.01	1	0.0134222119999663	1	103	NA	232.62239832	0	0.77	5.38	1	228.92936434	228.942786552	"14"	738.400430502	736.127008264	1.5	0.1
0.01	1	0.00227669299999889	1	103	NA	232.62239832	0	0.77	5.38	1	229.179810622	229.182087315	"14"	738.400430502	736.127008264	1.5	0.1
0.01	1	0.0156352330000118	1	103	NA	232.62239832	0	0.77	5.38	1	229.413591747	229.42922698	"14"	738.400430502	736.127008264	1.5	0.1
0.01	1	0.00216268100001571	1	103	NA	232.62239832	0	0.77	5.38	1	229.663862413	229.666025094	"14"	738.400430502	736.127008264	1.5	0.1
0.01	1	0.00320243800001663	1	103	NA	232.62239832	0	0.77	5.38	1	229.897600963	229.900803401	"14"	738.400430502	736.127008264	1.5	0.1
0.01	1	0.00214265400001068	1	103	NA	232.62239832	0	0.77	5.38	1	230.13139033	230.133532984	"14"	738.400430502	736.127008264	1.5	0.1
