"payoff.level"	"balloon"	"rt"	"resp"	"explode.trial"	"explode.time"	"finish.time"	"exploded"	"trial.total"	"cumulative.total"	"finished"	"trial.start"	"trial.end"	"trial.num"	"secs"	"start.time"	"iti"	"isi"
0.01	1	0.855717005999395	1	64	NA	11.8341766670001	0	0.07	0.07	1	0.0159265930005859	0.871643598999981	"1"	6059.900838679	6054.633547942	1.5	0.1
0.01	1	0.707816081000601	1	64	NA	11.8341766670001	0	0.07	0.07	1	1.2512787149999	1.9590947960005	"1"	6059.900838679	6054.633547942	1.5	0.1
0.01	1	1.31013515999985	1	64	NA	11.8341766670001	0	0.07	0.07	1	2.18627275400013	3.49640791399997	"1"	6059.900838679	6054.633547942	1.5	0.1
0.01	1	1.31815301999995	1	64	NA	11.8341766670001	0	0.07	0.07	1	3.72219802700056	5.04035104700051	"1"	6059.900838679	6054.633547942	1.5	0.1
0.01	1	1.50010484999984	1	64	NA	11.8341766670001	0	0.07	0.07	1	5.27485000700017	6.77495485700001	"1"	6059.900838679	6054.633547942	1.5	0.1
0.01	1	1.68464942199989	1	64	NA	11.8341766670001	0	0.07	0.07	1	7.01106651200007	8.69571593399996	"1"	6059.900838679	6054.633547942	1.5	0.1
0.01	1	1.46861514299962	1	64	NA	11.8341766670001	0	0.07	0.07	1	8.93087652000031	10.3994916629999	"1"	6059.900838679	6054.633547942	1.5	0.1
0.01	1	1.19862371999989	2	64	NA	11.8341766670001	0	0.07	0.07	1	10.6338720150006	11.8324957350005	"1"	6059.900838679	6054.633547942	1.5	0.1
0.01	1	0.934660487000656	1	102	106.148847347	NA	1	0	0.07	1	13.8892375969999	14.8238980840006	"2"	6059.900838679	6054.633547942	1.5	0.1
0.01	1	0.933325154999693	1	102	106.148847347	NA	1	0	0.07	1	15.0579213970004	15.9912465520001	"2"	6059.900838679	6054.633547942	1.5	0.1
0.01	1	1.19776955799989	1	102	106.148847347	NA	1	0	0.07	1	16.2265572050001	17.424326763	"2"	6059.900838679	6054.633547942	1.5	0.1
0.01	1	0.945273582000482	1	102	106.148847347	NA	1	0	0.07	1	17.66221288	18.6074864620005	"2"	6059.900838679	6054.633547942	1.5	0.1
0.01	1	0.920119277000595	1	102	106.148847347	NA	1	0	0.07	1	18.8476107400002	19.7677300170008	"2"	6059.900838679	6054.633547942	1.5	0.1
0.01	1	0.944511576999503	1	102	106.148847347	NA	1	0	0.07	1	19.9995733370006	20.9440849140001	"2"	6059.900838679	6054.633547942	1.5	0.1
0.01	1	1.00076522000018	1	102	106.148847347	NA	1	0	0.07	1	21.1681666570003	22.1689318770004	"2"	6059.900838679	6054.633547942	1.5	0.1
0.01	1	1.0928886669999	1	102	106.148847347	NA	1	0	0.07	1	22.4035707100002	23.4964593770001	"2"	6059.900838679	6054.633547942	1.5	0.1
0.01	1	1.00649051500022	1	102	106.148847347	NA	1	0	0.07	1	23.7223669650002	24.7288574800004	"2"	6059.900838679	6054.633547942	1.5	0.1
0.01	1	1.01892787199995	1	102	106.148847347	NA	1	0	0.07	1	24.9578924150001	25.976820287	"2"	6059.900838679	6054.633547942	1.5	0.1
0.01	1	0.941206045999934	1	102	106.148847347	NA	1	0	0.07	1	26.210012474	27.1512185199999	"2"	6059.900838679	6054.633547942	1.5	0.1
0.01	1	0.98156437399939	1	102	106.148847347	NA	1	0	0.07	1	27.3785917620007	28.3601561360001	"2"	6059.900838679	6054.633547942	1.5	0.1
0.01	1	1.00263661999998	1	102	106.148847347	NA	1	0	0.07	1	28.5974104500001	29.6000470700001	"2"	6059.900838679	6054.633547942	1.5	0.1
0.01	1	1.19105654299983	1	102	106.148847347	NA	1	0	0.07	1	29.8327893300002	31.023845873	"2"	6059.900838679	6054.633547942	1.5	0.1
0.01	1	1.04605297299986	1	102	106.148847347	NA	1	0	0.07	1	31.2518267720006	32.2978797450005	"2"	6059.900838679	6054.633547942	1.5	0.1
0.01	1	0.991039770000498	1	102	106.148847347	NA	1	0	0.07	1	32.52057092	33.5116106900005	"2"	6059.900838679	6054.633547942	1.5	0.1
0.01	1	1.2358655299995	1	102	106.148847347	NA	1	0	0.07	1	33.7393876470005	34.975253177	"2"	6059.900838679	6054.633547942	1.5	0.1
0.01	1	1.34243886200056	1	102	106.148847347	NA	1	0	0.07	1	35.2085238039999	36.5509626660005	"2"	6059.900838679	6054.633547942	1.5	0.1
0.01	1	1.07851000699975	1	102	106.148847347	NA	1	0	0.07	1	36.7778003040003	37.856310311	"2"	6059.900838679	6054.633547942	1.5	0.1
0.01	1	1.05524096699992	1	102	106.148847347	NA	1	0	0.07	1	38.096648402	39.1518893689999	"2"	6059.900838679	6054.633547942	1.5	0.1
0.01	1	1.05860216300061	1	102	106.148847347	NA	1	0	0.07	1	39.382172951	40.4407751140006	"2"	6059.900838679	6054.633547942	1.5	0.1
0.01	1	1.25240813000073	1	102	106.148847347	NA	1	0	0.07	1	40.6676757499999	41.9200838800007	"2"	6059.900838679	6054.633547942	1.5	0.1
0.01	1	1.18266419700012	1	102	106.148847347	NA	1	0	0.07	1	42.1534615099999	43.3361257070001	"2"	6059.900838679	6054.633547942	1.5	0.1
0.01	1	1.22824837999997	1	102	106.148847347	NA	1	0	0.07	1	43.5725882750003	44.8008366550002	"2"	6059.900838679	6054.633547942	1.5	0.1
0.01	1	1.27795722999963	1	102	106.148847347	NA	1	0	0.07	1	45.0417003700004	46.3196576	"2"	6059.900838679	6054.633547942	1.5	0.1
0.01	1	1.22418379999999	1	102	106.148847347	NA	1	0	0.07	1	46.5441867500003	47.7683705500003	"2"	6059.900838679	6054.633547942	1.5	0.1
0.01	1	1.13205808899966	1	102	106.148847347	NA	1	0	0.07	1	47.9966891600006	49.1287472490003	"2"	6059.900838679	6054.633547942	1.5	0.1
0.01	1	1.12328998500016	1	102	106.148847347	NA	1	0	0.07	1	49.365700245	50.4889902300001	"2"	6059.900838679	6054.633547942	1.5	0.1
0.01	1	1.09056528900055	1	102	106.148847347	NA	1	0	0.07	1	50.7179762400001	51.8085415290006	"2"	6059.900838679	6054.633547942	1.5	0.1
0.01	1	1.17930035900008	1	102	106.148847347	NA	1	0	0.07	1	52.0367910499999	53.216091409	"2"	6059.900838679	6054.633547942	1.5	0.1
0.01	1	0.712450849000561	1	102	106.148847347	NA	1	0	0.07	1	53.455881502	54.1683323510006	"2"	6059.900838679	6054.633547942	1.5	0.1
0.01	1	0.648808065000594	1	102	106.148847347	NA	1	0	0.07	1	54.3907864120001	55.0395944770007	"2"	6059.900838679	6054.633547942	1.5	0.1
0.01	1	0.619931963000454	1	102	106.148847347	NA	1	0	0.07	1	55.2755524849999	55.8954844480004	"2"	6059.900838679	6054.633547942	1.5	0.1
0.01	1	0.761052555000788	1	102	106.148847347	NA	1	0	0.07	1	56.1270504049999	56.8881029600007	"2"	6059.900838679	6054.633547942	1.5	0.1
0.01	1	0.679164518999642	1	102	106.148847347	NA	1	0	0.07	1	57.1287682950006	57.8079328140002	"2"	6059.900838679	6054.633547942	1.5	0.1
0.01	1	0.834387335999963	1	102	106.148847347	NA	1	0	0.07	1	58.0302947350001	58.8646820710001	"2"	6059.900838679	6054.633547942	1.5	0.1
0.01	1	0.621871755000029	1	102	106.148847347	NA	1	0	0.07	1	59.0987235900002	59.7205953450002	"2"	6059.900838679	6054.633547942	1.5	0.1
0.01	1	0.601797715999965	1	102	106.148847347	NA	1	0	0.07	1	59.950115484	60.5519131999999	"2"	6059.900838679	6054.633547942	1.5	0.1
0.01	1	0.606441838000137	1	102	106.148847347	NA	1	0	0.07	1	60.7849501150004	61.3913919530005	"2"	6059.900838679	6054.633547942	1.5	0.1
0.01	1	1.1573283179996	1	102	106.148847347	NA	1	0	0.07	1	61.6195490150003	62.7768773329999	"2"	6059.900838679	6054.633547942	1.5	0.1
0.01	1	1.01779366000028	1	102	106.148847347	NA	1	0	0.07	1	63.005267515	64.0230611750003	"2"	6059.900838679	6054.633547942	1.5	0.1
0.01	1	0.615111811999668	1	102	106.148847347	NA	1	0	0.07	1	64.2573907820006	64.8725025940003	"2"	6059.900838679	6054.633547942	1.5	0.1
0.01	1	0.51567319500009	1	102	106.148847347	NA	1	0	0.07	1	65.1087615450006	65.6244347400007	"2"	6059.900838679	6054.633547942	1.5	0.1
0.01	1	0.44290038500003	1	102	106.148847347	NA	1	0	0.07	1	65.8601140000001	66.3030143850001	"2"	6059.900838679	6054.633547942	1.5	0.1
0.01	1	0.615718919999381	1	102	106.148847347	NA	1	0	0.07	1	66.5278395620007	67.1435584820001	"2"	6059.900838679	6054.633547942	1.5	0.1
0.01	1	0.62886546000027	1	102	106.148847347	NA	1	0	0.07	1	67.3793256150002	68.0081910750005	"2"	6059.900838679	6054.633547942	1.5	0.1
0.01	1	0.512755289999404	1	102	106.148847347	NA	1	0	0.07	1	68.2306818900006	68.74343718	"2"	6059.900838679	6054.633547942	1.5	0.1
0.01	1	0.602550753000287	1	102	106.148847347	NA	1	0	0.07	1	68.982017282	69.5845680350003	"2"	6059.900838679	6054.633547942	1.5	0.1
0.01	1	0.631600077999792	1	102	106.148847347	NA	1	0	0.07	1	69.8167464650005	70.4483465430003	"2"	6059.900838679	6054.633547942	1.5	0.1
0.01	1	0.923998155000845	1	102	106.148847347	NA	1	0	0.07	1	70.6847054079999	71.6087035630007	"2"	6059.900838679	6054.633547942	1.5	0.1
0.01	1	1.05874209699959	1	102	106.148847347	NA	1	0	0.07	1	71.8367036400005	72.895445737	"2"	6059.900838679	6054.633547942	1.5	0.1
0.01	1	0.742264370000157	1	102	106.148847347	NA	1	0	0.07	1	73.1222107670001	73.8644751370002	"2"	6059.900838679	6054.633547942	1.5	0.1
0.01	1	0.716522542000348	1	102	106.148847347	NA	1	0	0.07	1	74.0905500150002	74.8070725570005	"2"	6059.900838679	6054.633547942	1.5	0.1
0.01	1	0.549551440999494	1	102	106.148847347	NA	1	0	0.07	1	75.0421711100007	75.5917225510002	"2"	6059.900838679	6054.633547942	1.5	0.1
0.01	1	0.421307857000102	1	102	106.148847347	NA	1	0	0.07	1	75.8268523520001	76.2481602090002	"2"	6059.900838679	6054.633547942	1.5	0.1
0.01	1	0.449154634000479	1	102	106.148847347	NA	1	0	0.07	1	76.477926392	76.9270810260005	"2"	6059.900838679	6054.633547942	1.5	0.1
0.01	1	0.277841627999805	1	102	106.148847347	NA	1	0	0.07	1	77.1623599320001	77.4402015599999	"2"	6059.900838679	6054.633547942	1.5	0.1
0.01	1	0.289458365000428	1	102	106.148847347	NA	1	0	0.07	1	77.6632670600002	77.9527254250006	"2"	6059.900838679	6054.633547942	1.5	0.1
0.01	1	0.339349038000364	1	102	106.148847347	NA	1	0	0.07	1	78.180839312	78.5201883500004	"2"	6059.900838679	6054.633547942	1.5	0.1
0.01	1	0.346875336000267	1	102	106.148847347	NA	1	0	0.07	1	78.7483734050002	79.0952487410004	"2"	6059.900838679	6054.633547942	1.5	0.1
0.01	1	0.778322864000074	1	102	106.148847347	NA	1	0	0.07	1	79.332754258	80.1110771220001	"2"	6059.900838679	6054.633547942	1.5	0.1
0.01	1	0.169828060000327	1	102	106.148847347	NA	1	0	0.07	1	80.3343923749999	80.5042204350002	"2"	6059.900838679	6054.633547942	1.5	0.1
0.01	1	0.352295308999601	1	102	106.148847347	NA	1	0	0.07	1	80.7350878470006	81.0873831560002	"2"	6059.900838679	6054.633547942	1.5	0.1
0.01	1	0.399663588000294	1	102	106.148847347	NA	1	0	0.07	1	81.3193750600003	81.7190386480006	"2"	6059.900838679	6054.633547942	1.5	0.1
0.01	1	0.470817575000183	1	102	106.148847347	NA	1	0	0.07	1	81.9537962650002	82.4246138400003	"2"	6059.900838679	6054.633547942	1.5	0.1
0.01	1	0.329094906000137	1	102	106.148847347	NA	1	0	0.07	1	82.655047022	82.9841419280001	"2"	6059.900838679	6054.633547942	1.5	0.1
0.01	1	0.408551907999936	1	102	106.148847347	NA	1	0	0.07	1	83.2225961550002	83.6311480630002	"2"	6059.900838679	6054.633547942	1.5	0.1
0.01	1	0.350830678999955	1	102	106.148847347	NA	1	0	0.07	1	83.8570928320005	84.2079235110004	"2"	6059.900838679	6054.633547942	1.5	0.1
0.01	1	0.478910965000068	1	102	106.148847347	NA	1	0	0.07	1	84.4413462749999	84.92025724	"2"	6059.900838679	6054.633547942	1.5	0.1
0.01	1	0.504993644999558	1	102	106.148847347	NA	1	0	0.07	1	85.1424468600007	85.6474405050003	"2"	6059.900838679	6054.633547942	1.5	0.1
0.01	1	0.587898566000149	1	102	106.148847347	NA	1	0	0.07	1	85.8770743650002	86.4649729310004	"2"	6059.900838679	6054.633547942	1.5	0.1
0.01	1	0.353083977999631	1	102	106.148847347	NA	1	0	0.07	1	86.6952649410005	87.0483489190001	"2"	6059.900838679	6054.633547942	1.5	0.1
0.01	1	0.495896747000188	1	102	106.148847347	NA	1	0	0.07	1	87.2793639520005	87.7752606990007	"2"	6059.900838679	6054.633547942	1.5	0.1
0.01	1	0.466115920999982	1	102	106.148847347	NA	1	0	0.07	1	87.9974380849999	88.4635540059999	"2"	6059.900838679	6054.633547942	1.5	0.1
0.01	1	0.533366539000781	1	102	106.148847347	NA	1	0	0.07	1	88.6984758799999	89.2318424190007	"2"	6059.900838679	6054.633547942	1.5	0.1
0.01	1	0.341062043999955	1	102	106.148847347	NA	1	0	0.07	1	89.4664935950004	89.8075556390004	"2"	6059.900838679	6054.633547942	1.5	0.1
0.01	1	0.390158729000177	1	102	106.148847347	NA	1	0	0.07	1	90.0341353849999	90.4242941140001	"2"	6059.900838679	6054.633547942	1.5	0.1
0.01	1	0.357100963000448	1	102	106.148847347	NA	1	0	0.07	1	90.65172661	91.0088275730004	"2"	6059.900838679	6054.633547942	1.5	0.1
0.01	1	0.427681937999296	1	102	106.148847347	NA	1	0	0.07	1	91.2361556350006	91.6638375729999	"2"	6059.900838679	6054.633547942	1.5	0.1
0.01	1	0.680615839999518	1	102	106.148847347	NA	1	0	0.07	1	91.9039166700004	92.5845325099999	"2"	6059.900838679	6054.633547942	1.5	0.1
0.01	1	0.289870951999546	1	102	106.148847347	NA	1	0	0.07	1	92.8220823070005	93.1119532590001	"2"	6059.900838679	6054.633547942	1.5	0.1
0.01	1	0.147919090999494	1	102	106.148847347	NA	1	0	0.07	1	93.3395857700007	93.4875048610002	"2"	6059.900838679	6054.633547942	1.5	0.1
0.01	1	0.124092821999511	1	102	106.148847347	NA	1	0	0.07	1	93.7235456900007	93.8476385120002	"2"	6059.900838679	6054.633547942	1.5	0.1
0.01	1	0.21411057899968	1	102	106.148847347	NA	1	0	0.07	1	94.0742428000003	94.288353379	"2"	6059.900838679	6054.633547942	1.5	0.1
0.01	1	0.227227220000714	1	102	106.148847347	NA	1	0	0.07	1	94.525039485	94.7522667050007	"2"	6059.900838679	6054.633547942	1.5	0.1
0.01	1	0.111479932999828	1	102	106.148847347	NA	1	0	0.07	1	94.9924217950002	95.103901728	"2"	6059.900838679	6054.633547942	1.5	0.1
0.01	1	0.185156038000059	1	102	106.148847347	NA	1	0	0.07	1	95.3262425150006	95.5113985530006	"2"	6059.900838679	6054.633547942	1.5	0.1
0.01	1	0.223896931999661	1	102	106.148847347	NA	1	0	0.07	1	95.7436903850003	95.9675873169999	"2"	6059.900838679	6054.633547942	1.5	0.1
0.01	1	0.294103423000706	1	102	106.148847347	NA	1	0	0.07	1	96.1944749849999	96.4885784080006	"2"	6059.900838679	6054.633547942	1.5	0.1
0.01	1	0.495760333999897	1	102	106.148847347	NA	1	0	0.07	1	96.7120310850005	97.2077914190004	"2"	6059.900838679	6054.633547942	1.5	0.1
0.01	1	2.1299162510004	1	102	106.148847347	NA	1	0	0.07	1	97.4299456420003	99.5598618930007	"2"	6059.900838679	6054.633547942	1.5	0.1
0.01	1	0.287315735999982	1	102	106.148847347	NA	1	0	0.07	1	99.8005419199999	100.087857656	"2"	6059.900838679	6054.633547942	1.5	0.1
0.01	1	0.241762171999653	1	102	106.148847347	NA	1	0	0.07	1	100.318032375	100.559794547	"2"	6059.900838679	6054.633547942	1.5	0.1
0.01	1	0.311052903000018	1	102	106.148847347	NA	1	0	0.07	1	100.785482922	101.096535825001	"2"	6059.900838679	6054.633547942	1.5	0.1
0.01	1	0.2326975699998	1	102	106.148847347	NA	1	0	0.07	1	101.319765432	101.552463002	"2"	6059.900838679	6054.633547942	1.5	0.1
0.01	1	0.292364122000436	1	102	106.148847347	NA	1	0	0.07	1	101.787287565	102.079651687	"2"	6059.900838679	6054.633547942	1.5	0.1
0.01	1	0.319747989999996	1	102	106.148847347	NA	1	0	0.07	1	102.30484152	102.62458951	"2"	6059.900838679	6054.633547942	1.5	0.1
0.01	1	0.272592674999942	1	102	106.148847347	NA	1	0	0.07	1	102.855726352001	103.128319027001	"2"	6059.900838679	6054.633547942	1.5	0.1
0.01	1	0.252309850000529	1	102	106.148847347	NA	1	0	0.07	1	103.356595135	103.608904985001	"2"	6059.900838679	6054.633547942	1.5	0.1
0.01	1	0.478925625000556	1	102	106.148847347	NA	1	0	0.07	1	103.840679805	104.319605430001	"2"	6059.900838679	6054.633547942	1.5	0.1
0.01	1	1.04190362200006	1	102	106.148847347	NA	1	0	0.07	1	104.54188608	105.583789702	"2"	6059.900838679	6054.633547942	1.5	0.1
0.01	1	0.221849691999523	1	102	106.148847347	NA	1	0	0.07	1	105.810582280001	106.032431972	"2"	6059.900838679	6054.633547942	1.5	0.1
0.01	1	1.76227384999947	1	97	134.094705487	NA	1	0	0.07	1	108.197966495	109.960240345	"3"	6059.900838679	6054.633547942	1.5	0.1
0.01	1	0.00454275500032963	1	97	134.094705487	NA	1	0	0.07	1	110.201369315	110.205912070001	"3"	6059.900838679	6054.633547942	1.5	0.1
0.01	1	0.101246808000724	1	97	134.094705487	NA	1	0	0.07	1	110.435110605	110.536357413001	"3"	6059.900838679	6054.633547942	1.5	0.1
0.01	1	0.00195375600014813	1	97	134.094705487	NA	1	0	0.07	1	110.769022514	110.770976270001	"3"	6059.900838679	6054.633547942	1.5	0.1
0.01	1	0.11660594299974	1	97	134.094705487	NA	1	0	0.07	1	111.002684550001	111.119290493	"3"	6059.900838679	6054.633547942	1.5	0.1
0.01	1	0.00389096500020969	1	97	134.094705487	NA	1	0	0.07	1	111.353271932	111.357162897	"3"	6059.900838679	6054.633547942	1.5	0.1
0.01	1	0.0768733779996182	1	97	134.094705487	NA	1	0	0.07	1	111.586944332001	111.66381771	"3"	6059.900838679	6054.633547942	1.5	0.1
0.01	1	0.00414762799937307	1	97	134.094705487	NA	1	0	0.07	1	111.887449084001	111.891596712	"3"	6059.900838679	6054.633547942	1.5	0.1
0.01	1	0.00387592399965797	1	97	134.094705487	NA	1	0	0.07	1	112.121164425001	112.125040349	"3"	6059.900838679	6054.633547942	1.5	0.1
0.01	1	0.108770885999547	1	97	134.094705487	NA	1	0	0.07	1	112.355028925001	112.463799811	"3"	6059.900838679	6054.633547942	1.5	0.1
0.01	1	0.00213637300021219	1	97	134.094705487	NA	1	0	0.07	1	112.688848062	112.690984435	"3"	6059.900838679	6054.633547942	1.5	0.1
0.01	1	0.00199539999994158	1	97	134.094705487	NA	1	0	0.07	1	112.922677221	112.924672621	"3"	6059.900838679	6054.633547942	1.5	0.1
0.01	1	0.00389331500082335	1	97	134.094705487	NA	1	0	0.07	1	113.15630548	113.160198795001	"3"	6059.900838679	6054.633547942	1.5	0.1
0.01	1	0.0038626129999102	1	97	134.094705487	NA	1	0	0.07	1	113.389981682	113.393844295	"3"	6059.900838679	6054.633547942	1.5	0.1
0.01	1	0.00432331200045155	1	97	134.094705487	NA	1	0	0.07	1	113.623916955	113.628240267	"3"	6059.900838679	6054.633547942	1.5	0.1
0.01	1	0.00454663700020319	1	97	134.094705487	NA	1	0	0.07	1	113.857627385	113.862174022001	"3"	6059.900838679	6054.633547942	1.5	0.1
0.01	1	0.133038351000323	1	97	134.094705487	NA	1	0	0.07	1	114.091222402	114.224260753001	"3"	6059.900838679	6054.633547942	1.5	0.1
0.01	1	0.00697423700057698	1	97	134.094705487	NA	1	0	0.07	1	114.458518992	114.465493229	"3"	6059.900838679	6054.633547942	1.5	0.1
0.01	1	0.00208247900081915	1	97	134.094705487	NA	1	0	0.07	1	114.692314733	114.694397212001	"3"	6059.900838679	6054.633547942	1.5	0.1
0.01	1	0.00322805200084986	1	97	134.094705487	NA	1	0	0.07	1	114.925918303	114.929146355001	"3"	6059.900838679	6054.633547942	1.5	0.1
0.01	1	0.00205238099988492	1	97	134.094705487	NA	1	0	0.07	1	115.159727900001	115.161780281001	"3"	6059.900838679	6054.633547942	1.5	0.1
0.01	1	0.00217729799987865	1	97	134.094705487	NA	1	0	0.07	1	115.393470977	115.395648275	"3"	6059.900838679	6054.633547942	1.5	0.1
0.01	1	0.00328738799998973	1	97	134.094705487	NA	1	0	0.07	1	115.627047551	115.630334939	"3"	6059.900838679	6054.633547942	1.5	0.1
0.01	1	0.0262525299995104	1	97	134.094705487	NA	1	0	0.07	1	115.860912300001	115.88716483	"3"	6059.900838679	6054.633547942	1.5	0.1
0.01	1	0.00251301699972828	1	97	134.094705487	NA	1	0	0.07	1	116.127981763	116.13049478	"3"	6059.900838679	6054.633547942	1.5	0.1
0.01	1	0.00360128299962525	1	97	134.094705487	NA	1	0	0.07	1	116.36173534	116.365336623	"3"	6059.900838679	6054.633547942	1.5	0.1
0.01	1	0.11644996799987	1	97	134.094705487	NA	1	0	0.07	1	116.595373695	116.711823663	"3"	6059.900838679	6054.633547942	1.5	0.1
0.01	1	0.0215673220000099	1	97	134.094705487	NA	1	0	0.07	1	116.946090335	116.967657657	"3"	6059.900838679	6054.633547942	1.5	0.1
0.01	1	0.00399314599962963	1	97	134.094705487	NA	1	0	0.07	1	117.196501825	117.200494971	"3"	6059.900838679	6054.633547942	1.5	0.1
0.01	1	0.00320349199955672	1	97	134.094705487	NA	1	0	0.07	1	117.430127715001	117.433331207	"3"	6059.900838679	6054.633547942	1.5	0.1
0.01	1	0.0153234199997314	1	97	134.094705487	NA	1	0	0.07	1	117.66382976	117.67915318	"3"	6059.900838679	6054.633547942	1.5	0.1
0.01	1	0.0131175590004204	1	97	134.094705487	NA	1	0	0.07	1	117.91432856	117.927446119001	"3"	6059.900838679	6054.633547942	1.5	0.1
0.01	1	0.00200203299937129	1	97	134.094705487	NA	1	0	0.07	1	118.164821222001	118.166823255	"3"	6059.900838679	6054.633547942	1.5	0.1
0.01	1	0.00205907400049909	1	97	134.094705487	NA	1	0	0.07	1	118.39850009	118.400559164001	"3"	6059.900838679	6054.633547942	1.5	0.1
0.01	1	0.00207487199986645	1	97	134.094705487	NA	1	0	0.07	1	118.632184841001	118.634259713001	"3"	6059.900838679	6054.633547942	1.5	0.1
0.01	1	0.00398467700051697	1	97	134.094705487	NA	1	0	0.07	1	118.86595872	118.869943397	"3"	6059.900838679	6054.633547942	1.5	0.1
0.01	1	0.140869390999796	1	97	134.094705487	NA	1	0	0.07	1	119.099640792	119.240510183	"3"	6059.900838679	6054.633547942	1.5	0.1
0.01	1	0.00340528200013068	1	97	134.094705487	NA	1	0	0.07	1	119.466879425	119.470284707	"3"	6059.900838679	6054.633547942	1.5	0.1
0.01	1	0.0112540270001773	1	97	134.094705487	NA	1	0	0.07	1	119.70070179	119.711955817001	"3"	6059.900838679	6054.633547942	1.5	0.1
0.01	1	0.0663384589997804	1	97	134.094705487	NA	1	0	0.07	1	119.934317871001	120.00065633	"3"	6059.900838679	6054.633547942	1.5	0.1
0.01	1	0.0076584720000028	1	97	134.094705487	NA	1	0	0.07	1	120.234904365	120.242562837	"3"	6059.900838679	6054.633547942	1.5	0.1
0.01	1	0.00458549199993286	1	97	134.094705487	NA	1	0	0.07	1	120.46861728	120.473202772	"3"	6059.900838679	6054.633547942	1.5	0.1
0.01	1	0.0972734629995102	1	97	134.094705487	NA	1	0	0.07	1	120.702313522001	120.799586985	"3"	6059.900838679	6054.633547942	1.5	0.1
0.01	1	0.00207900700024766	1	97	134.094705487	NA	1	0	0.07	1	121.03629591	121.038374917001	"3"	6059.900838679	6054.633547942	1.5	0.1
0.01	1	0.00404363800043939	1	97	134.094705487	NA	1	0	0.07	1	121.269981165	121.274024803	"3"	6059.900838679	6054.633547942	1.5	0.1
0.01	1	0.00381508600003144	1	97	134.094705487	NA	1	0	0.07	1	121.503771987001	121.507587073001	"3"	6059.900838679	6054.633547942	1.5	0.1
0.01	1	0.00383974200030934	1	97	134.094705487	NA	1	0	0.07	1	121.737387365	121.741227107001	"3"	6059.900838679	6054.633547942	1.5	0.1
0.01	1	0.00371499699940614	1	97	134.094705487	NA	1	0	0.07	1	121.971189622001	121.974904619	"3"	6059.900838679	6054.633547942	1.5	0.1
0.01	1	0.115091794999898	1	97	134.094705487	NA	1	0	0.07	1	122.2049057	122.319997495	"3"	6059.900838679	6054.633547942	1.5	0.1
0.01	1	0.00201194900000701	1	97	134.094705487	NA	1	0	0.07	1	122.555452135	122.557464084	"3"	6059.900838679	6054.633547942	1.5	0.1
0.01	1	0.00387658100044064	1	97	134.094705487	NA	1	0	0.07	1	122.78918083	122.793057411001	"3"	6059.900838679	6054.633547942	1.5	0.1
0.01	1	0.0894399409999096	1	97	134.094705487	NA	1	0	0.07	1	123.02292922	123.112369161	"3"	6059.900838679	6054.633547942	1.5	0.1
0.01	1	0.00215129400021397	1	97	134.094705487	NA	1	0	0.07	1	123.340178866	123.342330160001	"3"	6059.900838679	6054.633547942	1.5	0.1
0.01	1	0.11364175000017	1	97	134.094705487	NA	1	0	0.07	1	123.573806049	123.687447799	"3"	6059.900838679	6054.633547942	1.5	0.1
0.01	1	0.00447992199951841	1	97	134.094705487	NA	1	0	0.07	1	123.924483790001	123.928963712	"3"	6059.900838679	6054.633547942	1.5	0.1
0.01	1	0.00387419500020769	1	97	134.094705487	NA	1	0	0.07	1	124.15816348	124.162037675001	"3"	6059.900838679	6054.633547942	1.5	0.1
0.01	1	0.00407475100018928	1	97	134.094705487	NA	1	0	0.07	1	124.391862542	124.395937293	"3"	6059.900838679	6054.633547942	1.5	0.1
0.01	1	0.0069019960001242	1	97	134.094705487	NA	1	0	0.07	1	124.625629405	124.632531401	"3"	6059.900838679	6054.633547942	1.5	0.1
0.01	1	0.00683885599937639	1	97	134.094705487	NA	1	0	0.07	1	124.859381177001	124.866220033	"3"	6059.900838679	6054.633547942	1.5	0.1
0.01	1	0.00214977199993882	1	97	134.094705487	NA	1	0	0.07	1	125.09295759	125.095107362	"3"	6059.900838679	6054.633547942	1.5	0.1
0.01	1	0.00400230800005374	1	97	134.094705487	NA	1	0	0.07	1	125.326795597	125.330797905001	"3"	6059.900838679	6054.633547942	1.5	0.1
0.01	1	0.00432936000015616	1	97	134.094705487	NA	1	0	0.07	1	125.5605611	125.56489046	"3"	6059.900838679	6054.633547942	1.5	0.1
0.01	1	0.00387398800012306	1	97	134.094705487	NA	1	0	0.07	1	125.794186645	125.798060633	"3"	6059.900838679	6054.633547942	1.5	0.1
0.01	1	0.116530717000387	1	97	134.094705487	NA	1	0	0.07	1	126.028042562	126.144573279001	"3"	6059.900838679	6054.633547942	1.5	0.1
0.01	1	0.00215112200021395	1	97	134.094705487	NA	1	0	0.07	1	126.378460611	126.380611733	"3"	6059.900838679	6054.633547942	1.5	0.1
0.01	1	0.0118996100000004	1	97	134.094705487	NA	1	0	0.07	1	126.612223665	126.624123275	"3"	6059.900838679	6054.633547942	1.5	0.1
0.01	1	0.0112209649996657	1	97	134.094705487	NA	1	0	0.07	1	126.84606633	126.857287295	"3"	6059.900838679	6054.633547942	1.5	0.1
0.01	1	0.0324455449999732	1	97	134.094705487	NA	1	0	0.07	1	127.079653507	127.112099052	"3"	6059.900838679	6054.633547942	1.5	0.1
0.01	1	0.00774086999990686	1	97	134.094705487	NA	1	0	0.07	1	127.346945435001	127.354686305001	"3"	6059.900838679	6054.633547942	1.5	0.1
0.01	1	0.00380526899971301	1	97	134.094705487	NA	1	0	0.07	1	127.58062492	127.584430189	"3"	6059.900838679	6054.633547942	1.5	0.1
0.01	1	0.00284948199987411	1	97	134.094705487	NA	1	0	0.07	1	127.814248615	127.817098097	"3"	6059.900838679	6054.633547942	1.5	0.1
0.01	1	0.00272662400038826	1	97	134.094705487	NA	1	0	0.07	1	128.047964851	128.050691475	"3"	6059.900838679	6054.633547942	1.5	0.1
0.01	1	0.00334936200033553	1	97	134.094705487	NA	1	0	0.07	1	128.281731357	128.285080719001	"3"	6059.900838679	6054.633547942	1.5	0.1
0.01	1	0.00323595000008936	1	97	134.094705487	NA	1	0	0.07	1	128.515461727	128.518697677	"3"	6059.900838679	6054.633547942	1.5	0.1
0.01	1	0.00221065000005183	1	97	134.094705487	NA	1	0	0.07	1	128.74920566	128.75141631	"3"	6059.900838679	6054.633547942	1.5	0.1
0.01	1	0.0159589699997014	1	97	134.094705487	NA	1	0	0.07	1	128.983035015	128.998993985	"3"	6059.900838679	6054.633547942	1.5	0.1
0.01	1	0.00211690200012526	1	97	134.094705487	NA	1	0	0.07	1	129.233313473001	129.235430375001	"3"	6059.900838679	6054.633547942	1.5	0.1
0.01	1	0.00232609900012903	1	97	134.094705487	NA	1	0	0.07	1	129.467001504	129.469327603	"3"	6059.900838679	6054.633547942	1.5	0.1
0.01	1	0.00453504200049792	1	97	134.094705487	NA	1	0	0.07	1	129.700856065	129.705391107001	"3"	6059.900838679	6054.633547942	1.5	0.1
0.01	1	0.00206207100018219	1	97	134.094705487	NA	1	0	0.07	1	129.934446983	129.936509054	"3"	6059.900838679	6054.633547942	1.5	0.1
0.01	1	0.00386621200050286	1	97	134.094705487	NA	1	0	0.07	1	130.168328625	130.172194837	"3"	6059.900838679	6054.633547942	1.5	0.1
0.01	1	0.00201019999985874	1	97	134.094705487	NA	1	0	0.07	1	130.401934083	130.403944283	"3"	6059.900838679	6054.633547942	1.5	0.1
0.01	1	0.0038272860001598	1	97	134.094705487	NA	1	0	0.07	1	130.635799965	130.639627251	"3"	6059.900838679	6054.633547942	1.5	0.1
0.01	1	0.00453902199933509	1	97	134.094705487	NA	1	0	0.07	1	130.869470860001	130.874009882	"3"	6059.900838679	6054.633547942	1.5	0.1
0.01	1	0.00385494300007849	1	97	134.094705487	NA	1	0	0.07	1	131.103149462	131.107004405	"3"	6059.900838679	6054.633547942	1.5	0.1
0.01	1	0.00394230300025811	1	97	134.094705487	NA	1	0	0.07	1	131.33697493	131.340917233	"3"	6059.900838679	6054.633547942	1.5	0.1
0.01	1	0.00426748499921814	1	97	134.094705487	NA	1	0	0.07	1	131.570593007001	131.574860492	"3"	6059.900838679	6054.633547942	1.5	0.1
0.01	1	0.00370116100020823	1	97	134.094705487	NA	1	0	0.07	1	131.804316322	131.808017483	"3"	6059.900838679	6054.633547942	1.5	0.1
0.01	1	0.00439673099936044	1	97	134.094705487	NA	1	0	0.07	1	132.038095614001	132.042492345	"3"	6059.900838679	6054.633547942	1.5	0.1
0.01	1	0.00207414299984521	1	97	134.094705487	NA	1	0	0.07	1	132.271816287001	132.27389043	"3"	6059.900838679	6054.633547942	1.5	0.1
0.01	1	0.0037967859998389	1	97	134.094705487	NA	1	0	0.07	1	132.505563045001	132.509359831	"3"	6059.900838679	6054.633547942	1.5	0.1
0.01	1	0.00461900500067713	1	97	134.094705487	NA	1	0	0.07	1	132.739274095	132.743893100001	"3"	6059.900838679	6054.633547942	1.5	0.1
0.01	1	0.0346518910000668	1	97	134.094705487	NA	1	0	0.07	1	132.972971312	133.007623203001	"3"	6059.900838679	6054.633547942	1.5	0.1
0.01	1	0.0400665099996331	1	97	134.094705487	NA	1	0	0.07	1	133.24011321	133.28017972	"3"	6059.900838679	6054.633547942	1.5	0.1
0.01	1	0.00328440999965096	1	97	134.094705487	NA	1	0	0.07	1	133.507240145001	133.510524555	"3"	6059.900838679	6054.633547942	1.5	0.1
0.01	1	0.00210598000012396	1	97	134.094705487	NA	1	0	0.07	1	133.741021284	133.743127264001	"3"	6059.900838679	6054.633547942	1.5	0.1
0.01	1	0.00208587999986776	1	97	134.094705487	NA	1	0	0.07	1	133.974742272	133.976828152	"3"	6059.900838679	6054.633547942	1.5	0.1
0.01	1	0.687677044999873	1	51	150.98971873	NA	1	0	0.07	1	136.144958215001	136.832635260001	"4"	6059.900838679	6054.633547942	1.5	0.1
0.01	1	0.0559853889999431	1	51	150.98971873	NA	1	0	0.07	1	137.063329285001	137.119314674001	"4"	6059.900838679	6054.633547942	1.5	0.1
0.01	1	0.00702335499954643	1	51	150.98971873	NA	1	0	0.07	1	137.346992352001	137.354015707	"4"	6059.900838679	6054.633547942	1.5	0.1
0.01	1	0.00390854699980991	1	51	150.98971873	NA	1	0	0.07	1	137.580731032001	137.584639579	"4"	6059.900838679	6054.633547942	1.5	0.1
0.01	1	0.120600827000089	1	51	150.98971873	NA	1	0	0.07	1	137.814492872	137.935093699	"4"	6059.900838679	6054.633547942	1.5	0.1
0.01	1	0.00197581099928357	1	51	150.98971873	NA	1	0	0.07	1	138.165041822001	138.167017633	"4"	6059.900838679	6054.633547942	1.5	0.1
0.01	1	0.00343620100011321	1	51	150.98971873	NA	1	0	0.07	1	138.398794982	138.402231183	"4"	6059.900838679	6054.633547942	1.5	0.1
0.01	1	0.0944404709998707	1	51	150.98971873	NA	1	0	0.07	1	138.632563892001	138.727004363001	"4"	6059.900838679	6054.633547942	1.5	0.1
0.01	1	0.00218245899941394	1	51	150.98971873	NA	1	0	0.07	1	138.949710733001	138.951893192	"4"	6059.900838679	6054.633547942	1.5	0.1
0.01	1	0.119889116000195	1	51	150.98971873	NA	1	0	0.07	1	139.183432020001	139.303321136001	"4"	6059.900838679	6054.633547942	1.5	0.1
0.01	1	0.00462053999945056	1	51	150.98971873	NA	1	0	0.07	1	139.534140170001	139.53876071	"4"	6059.900838679	6054.633547942	1.5	0.1
0.01	1	0.00381896499948198	1	51	150.98971873	NA	1	0	0.07	1	139.767809982	139.771628947	"4"	6059.900838679	6054.633547942	1.5	0.1
0.01	1	0.00200300699998479	1	51	150.98971873	NA	1	0	0.07	1	140.001471794	140.003474801	"4"	6059.900838679	6054.633547942	1.5	0.1
0.01	1	0.00460876200031635	1	51	150.98971873	NA	1	0	0.07	1	140.235238825	140.239847587	"4"	6059.900838679	6054.633547942	1.5	0.1
0.01	1	0.00379661499937356	1	51	150.98971873	NA	1	0	0.07	1	140.468942830001	140.472739445	"4"	6059.900838679	6054.633547942	1.5	0.1
0.01	1	0.00378890100000717	1	51	150.98971873	NA	1	0	0.07	1	140.702669602	140.706458503	"4"	6059.900838679	6054.633547942	1.5	0.1
0.01	1	0.00384976700024708	1	51	150.98971873	NA	1	0	0.07	1	140.93630225	140.940152017	"4"	6059.900838679	6054.633547942	1.5	0.1
0.01	1	0.00374228900000162	1	51	150.98971873	NA	1	0	0.07	1	141.17010579	141.173848079	"4"	6059.900838679	6054.633547942	1.5	0.1
0.01	1	0.00397919100032595	1	51	150.98971873	NA	1	0	0.07	1	141.40392832	141.407907511	"4"	6059.900838679	6054.633547942	1.5	0.1
0.01	1	0.00208877199929702	1	51	150.98971873	NA	1	0	0.07	1	141.637590660001	141.639679432	"4"	6059.900838679	6054.633547942	1.5	0.1
0.01	1	0.0020546870000544	1	51	150.98971873	NA	1	0	0.07	1	141.871315215	141.873369902	"4"	6059.900838679	6054.633547942	1.5	0.1
0.01	1	0.110234087000208	1	51	150.98971873	NA	1	0	0.07	1	142.105028412	142.215262499	"4"	6059.900838679	6054.633547942	1.5	0.1
0.01	1	0.00199315200006822	1	51	150.98971873	NA	1	0	0.07	1	142.438884356	142.440877508	"4"	6059.900838679	6054.633547942	1.5	0.1
0.01	1	0.111266971000077	1	51	150.98971873	NA	1	0	0.07	1	142.672682502	142.783949473001	"4"	6059.900838679	6054.633547942	1.5	0.1
0.01	1	0.00204872199992678	1	51	150.98971873	NA	1	0	0.07	1	143.006615513001	143.008664235001	"4"	6059.900838679	6054.633547942	1.5	0.1
0.01	1	0.00203768899973511	1	51	150.98971873	NA	1	0	0.07	1	143.240263115001	143.242300804	"4"	6059.900838679	6054.633547942	1.5	0.1
0.01	1	0.00454356699992786	1	51	150.98971873	NA	1	0	0.07	1	143.474002965	143.478546532	"4"	6059.900838679	6054.633547942	1.5	0.1
0.01	1	0.00228619500012428	1	51	150.98971873	NA	1	0	0.07	1	143.707653415	143.70993961	"4"	6059.900838679	6054.633547942	1.5	0.1
0.01	1	0.105974497999341	1	51	150.98971873	NA	1	0	0.07	1	143.941466355001	144.047440853	"4"	6059.900838679	6054.633547942	1.5	0.1
0.01	1	0.123726486999658	1	51	150.98971873	NA	1	0	0.07	1	144.275411252001	144.399137739	"4"	6059.900838679	6054.633547942	1.5	0.1
0.01	1	0.0786055789994862	1	51	150.98971873	NA	1	0	0.07	1	144.625949382001	144.704554961	"4"	6059.900838679	6054.633547942	1.5	0.1
0.01	1	0.00986003199977858	1	51	150.98971873	NA	1	0	0.07	1	144.943227765	144.953087797	"4"	6059.900838679	6054.633547942	1.5	0.1
0.01	1	0.00203008100015722	1	51	150.98971873	NA	1	0	0.07	1	145.176958732	145.178988813001	"4"	6059.900838679	6054.633547942	1.5	0.1
0.01	1	0.00392779300000257	1	51	150.98971873	NA	1	0	0.07	1	145.410700932001	145.414628725001	"4"	6059.900838679	6054.633547942	1.5	0.1
0.01	1	0.0425928059994476	1	51	150.98971873	NA	1	0	0.07	1	145.64432687	145.686919676	"4"	6059.900838679	6054.633547942	1.5	0.1
0.01	1	0.064478624000003	1	51	150.98971873	NA	1	0	0.07	1	145.91140551	145.975884134	"4"	6059.900838679	6054.633547942	1.5	0.1
0.01	1	0.0116581570000562	1	51	150.98971873	NA	1	0	0.07	1	146.2119287	146.223586857001	"4"	6059.900838679	6054.633547942	1.5	0.1
0.01	1	0.00401693999992858	1	51	150.98971873	NA	1	0	0.07	1	146.445582567	146.449599507	"4"	6059.900838679	6054.633547942	1.5	0.1
0.01	1	0.00208373800069239	1	51	150.98971873	NA	1	0	0.07	1	146.679380875	146.681464613001	"4"	6059.900838679	6054.633547942	1.5	0.1
0.01	1	0.0020630799999708	1	51	150.98971873	NA	1	0	0.07	1	146.913130463	146.915193543	"4"	6059.900838679	6054.633547942	1.5	0.1
0.01	1	0.00200540300011198	1	51	150.98971873	NA	1	0	0.07	1	147.146855862	147.148861265	"4"	6059.900838679	6054.633547942	1.5	0.1
0.01	1	0.122449444000267	1	51	150.98971873	NA	1	0	0.07	1	147.38054543	147.502994874	"4"	6059.900838679	6054.633547942	1.5	0.1
0.01	1	0.00820498999928532	1	51	150.98971873	NA	1	0	0.07	1	147.731183995001	147.739388985	"4"	6059.900838679	6054.633547942	1.5	0.1
0.01	1	0.139923639999324	1	51	150.98971873	NA	1	0	0.07	1	147.964937852001	148.104861492	"4"	6059.900838679	6054.633547942	1.5	0.1
0.01	1	0.00797332500042103	1	51	150.98971873	NA	1	0	0.07	1	148.332150688	148.340124013001	"4"	6059.900838679	6054.633547942	1.5	0.1
0.01	1	0.00276621699958923	1	51	150.98971873	NA	1	0	0.07	1	148.565854289001	148.568620506	"4"	6059.900838679	6054.633547942	1.5	0.1
0.01	1	0.00957158999972307	1	51	150.98971873	NA	1	0	0.07	1	148.799600490001	148.80917208	"4"	6059.900838679	6054.633547942	1.5	0.1
0.01	1	0.0155463270002656	1	51	150.98971873	NA	1	0	0.07	1	149.033334065	149.048880392001	"4"	6059.900838679	6054.633547942	1.5	0.1
0.01	1	0.140486879000491	1	51	150.98971873	NA	1	0	0.07	1	149.2837461	149.424232979	"4"	6059.900838679	6054.633547942	1.5	0.1
0.01	1	0.652254640999672	1	51	150.98971873	NA	1	0	0.07	1	149.651129575001	150.303384216	"4"	6059.900838679	6054.633547942	1.5	0.1
0.01	1	0.336106286000359	1	51	150.98971873	NA	1	0	0.07	1	150.535943287	150.872049573	"4"	6059.900838679	6054.633547942	1.5	0.1
0.01	1	0.679030897000303	1	116	NA	162.360707922	0	0.32	0.39	1	153.040105347	153.719136244001	"5"	6059.900838679	6054.633547942	1.5	0.1
0.01	1	0.00219904899950052	1	116	NA	162.360707922	0	0.32	0.39	1	153.958233979	153.960433028	"5"	6059.900838679	6054.633547942	1.5	0.1
0.01	1	0.00782895900010772	1	116	NA	162.360707922	0	0.32	0.39	1	154.192025443001	154.199854402001	"5"	6059.900838679	6054.633547942	1.5	0.1
0.01	1	0.00809575099992799	1	116	NA	162.360707922	0	0.32	0.39	1	154.4256968	154.433792551	"5"	6059.900838679	6054.633547942	1.5	0.1
0.01	1	0.0196047569997972	1	116	NA	162.360707922	0	0.32	0.39	1	154.659463114001	154.679067871	"5"	6059.900838679	6054.633547942	1.5	0.1
0.01	1	0.0253142960000332	1	116	NA	162.360707922	0	0.32	0.39	1	154.909883347001	154.935197643001	"5"	6059.900838679	6054.633547942	1.5	0.1
0.01	1	0.0309984830000758	1	116	NA	162.360707922	0	0.32	0.39	1	155.16030379	155.191302273	"5"	6059.900838679	6054.633547942	1.5	0.1
0.01	1	0.0434952929999781	1	116	NA	162.360707922	0	0.32	0.39	1	155.42753442	155.471029713	"5"	6059.900838679	6054.633547942	1.5	0.1
0.01	1	0.033473782999863	1	116	NA	162.360707922	0	0.32	0.39	1	155.69453229	155.728006073	"5"	6059.900838679	6054.633547942	1.5	0.1
0.01	1	0.0132865519999541	1	116	NA	162.360707922	0	0.32	0.39	1	155.961662535	155.974949087	"5"	6059.900838679	6054.633547942	1.5	0.1
0.01	1	0.00255346500034648	1	116	NA	162.360707922	0	0.32	0.39	1	156.212088229	156.214641694	"5"	6059.900838679	6054.633547942	1.5	0.1
0.01	1	0.00275208499988366	1	116	NA	162.360707922	0	0.32	0.39	1	156.445738489	156.448490574	"5"	6059.900838679	6054.633547942	1.5	0.1
0.01	1	0.00796466599967971	1	116	NA	162.360707922	0	0.32	0.39	1	156.679618548001	156.687583214	"5"	6059.900838679	6054.633547942	1.5	0.1
0.01	1	0.0229624970006626	1	116	NA	162.360707922	0	0.32	0.39	1	156.913291965	156.936254462001	"5"	6059.900838679	6054.633547942	1.5	0.1
0.01	1	0.0273789060001945	1	116	NA	162.360707922	0	0.32	0.39	1	157.163784561	157.191163467	"5"	6059.900838679	6054.633547942	1.5	0.1
0.01	1	0.0321987839997746	1	116	NA	162.360707922	0	0.32	0.39	1	157.430806050001	157.463004834	"5"	6059.900838679	6054.633547942	1.5	0.1
0.01	1	0.030329327999425	1	116	NA	162.360707922	0	0.32	0.39	1	157.697953880001	157.728283208	"5"	6059.900838679	6054.633547942	1.5	0.1
0.01	1	0.0593655379998381	1	116	NA	162.360707922	0	0.32	0.39	1	157.965207635	158.024573173	"5"	6059.900838679	6054.633547942	1.5	0.1
0.01	1	0.0229063249998944	1	116	NA	162.360707922	0	0.32	0.39	1	158.2488657	158.271772025	"5"	6059.900838679	6054.633547942	1.5	0.1
0.01	1	0.0614037250006731	1	116	NA	162.360707922	0	0.32	0.39	1	158.499291014	158.560694739001	"5"	6059.900838679	6054.633547942	1.5	0.1
0.01	1	0.0816846289999376	1	116	NA	162.360707922	0	0.32	0.39	1	158.78312343	158.864808059	"5"	6059.900838679	6054.633547942	1.5	0.1
0.01	1	0.0192403150003884	1	116	NA	162.360707922	0	0.32	0.39	1	159.10037317	159.119613485001	"5"	6059.900838679	6054.633547942	1.5	0.1
0.01	1	0.0326018400000976	1	116	NA	162.360707922	0	0.32	0.39	1	159.350721445	159.383323285	"5"	6059.900838679	6054.633547942	1.5	0.1
0.01	1	0.0462495900001159	1	116	NA	162.360707922	0	0.32	0.39	1	159.617878200001	159.664127790001	"5"	6059.900838679	6054.633547942	1.5	0.1
0.01	1	0.0111663809993843	1	116	NA	162.360707922	0	0.32	0.39	1	159.901670820001	159.912837201	"5"	6059.900838679	6054.633547942	1.5	0.1
0.01	1	0.0406019470001411	1	116	NA	162.360707922	0	0.32	0.39	1	160.13525807	160.175860017001	"5"	6059.900838679	6054.633547942	1.5	0.1
0.01	1	0.092369607999899	1	116	NA	162.360707922	0	0.32	0.39	1	160.402537162	160.49490677	"5"	6059.900838679	6054.633547942	1.5	0.1
0.01	1	0.00355502599995816	1	116	NA	162.360707922	0	0.32	0.39	1	160.736297327	160.739852353	"5"	6059.900838679	6054.633547942	1.5	0.1
0.01	1	0.0141409780007962	1	116	NA	162.360707922	0	0.32	0.39	1	160.970184072	160.984325050001	"5"	6059.900838679	6054.633547942	1.5	0.1
0.01	1	0.0441033130000505	1	116	NA	162.360707922	0	0.32	0.39	1	161.220594172	161.264697485	"5"	6059.900838679	6054.633547942	1.5	0.1
0.01	1	0.0712936479994823	1	116	NA	162.360707922	0	0.32	0.39	1	161.487616852	161.5589105	"5"	6059.900838679	6054.633547942	1.5	0.1
0.01	1	0.180637661999754	1	116	NA	162.360707922	0	0.32	0.39	1	161.788108565001	161.968746227	"5"	6059.900838679	6054.633547942	1.5	0.1
0.01	1	0.153691618999801	2	116	NA	162.360707922	0	0.32	0.39	1	162.205457415001	162.359149034	"5"	6059.900838679	6054.633547942	1.5	0.1
0.01	1	0.430463016000431	1	118	NA	172.345436215001	0	0.24	0.63	1	164.409238102	164.839701118	"6"	6059.900838679	6054.633547942	1.5	0.1
0.01	1	0.00206028800039348	1	118	NA	172.345436215001	0	0.24	0.63	1	165.077039351	165.079099639001	"6"	6059.900838679	6054.633547942	1.5	0.1
0.01	1	0.136718925000423	1	118	NA	172.345436215001	0	0.24	0.63	1	165.31077919	165.447498115001	"6"	6059.900838679	6054.633547942	1.5	0.1
0.01	1	0.00219392800045171	1	118	NA	172.345436215001	0	0.24	0.63	1	165.678113432	165.68030736	"6"	6059.900838679	6054.633547942	1.5	0.1
0.01	1	0.00206602100024611	1	118	NA	172.345436215001	0	0.24	0.63	1	165.911702154001	165.913768175001	"6"	6059.900838679	6054.633547942	1.5	0.1
0.01	1	0.00378063200059842	1	118	NA	172.345436215001	0	0.24	0.63	1	166.145490365	166.149270997001	"6"	6059.900838679	6054.633547942	1.5	0.1
0.01	1	0.0041536669996276	1	118	NA	172.345436215001	0	0.24	0.63	1	166.379227840001	166.383381507	"6"	6059.900838679	6054.633547942	1.5	0.1
0.01	1	0.130283503000101	1	118	NA	172.345436215001	0	0.24	0.63	1	166.612995707001	166.743279210001	"6"	6059.900838679	6054.633547942	1.5	0.1
0.01	1	0.00314488200001506	1	118	NA	172.345436215001	0	0.24	0.63	1	166.980130193	166.983275075	"6"	6059.900838679	6054.633547942	1.5	0.1
0.01	1	0.00222580199988442	1	118	NA	172.345436215001	0	0.24	0.63	1	167.213866015	167.216091817	"6"	6059.900838679	6054.633547942	1.5	0.1
0.01	1	0.00205214000015985	1	118	NA	172.345436215001	0	0.24	0.63	1	167.447668620001	167.449720760001	"6"	6059.900838679	6054.633547942	1.5	0.1
0.01	1	0.00202480000007199	1	118	NA	172.345436215001	0	0.24	0.63	1	167.681457064	167.683481864	"6"	6059.900838679	6054.633547942	1.5	0.1
0.01	1	0.00205483800073125	1	118	NA	172.345436215001	0	0.24	0.63	1	167.915237157	167.917291995001	"6"	6059.900838679	6054.633547942	1.5	0.1
0.01	1	0.00403127500067058	1	118	NA	172.345436215001	0	0.24	0.63	1	168.148811	168.152842275001	"6"	6059.900838679	6054.633547942	1.5	0.1
0.01	1	0.00459273000069516	1	118	NA	172.345436215001	0	0.24	0.63	1	168.38257161	168.387164340001	"6"	6059.900838679	6054.633547942	1.5	0.1
0.01	1	0.00455566500022542	1	118	NA	172.345436215001	0	0.24	0.63	1	168.616293115	168.62084878	"6"	6059.900838679	6054.633547942	1.5	0.1
0.01	1	0.00230576699959784	1	118	NA	172.345436215001	0	0.24	0.63	1	168.849924411001	168.852230178	"6"	6059.900838679	6054.633547942	1.5	0.1
0.01	1	0.0135370269999839	1	118	NA	172.345436215001	0	0.24	0.63	1	169.083857080001	169.097394107001	"6"	6059.900838679	6054.633547942	1.5	0.1
0.01	1	0.0187380050001593	1	118	NA	172.345436215001	0	0.24	0.63	1	169.33412421	169.352862215001	"6"	6059.900838679	6054.633547942	1.5	0.1
0.01	1	0.0151233449996653	1	118	NA	172.345436215001	0	0.24	0.63	1	169.584583012001	169.599706357	"6"	6059.900838679	6054.633547942	1.5	0.1
0.01	1	0.069385434000651	1	118	NA	172.345436215001	0	0.24	0.63	1	169.83513856	169.904523994001	"6"	6059.900838679	6054.633547942	1.5	0.1
0.01	1	0.465207168000234	1	118	NA	172.345436215001	0	0.24	0.63	1	170.135585255	170.600792423001	"6"	6059.900838679	6054.633547942	1.5	0.1
0.01	1	0.291533909999998	1	118	NA	172.345436215001	0	0.24	0.63	1	170.836686762001	171.128220672001	"6"	6059.900838679	6054.633547942	1.5	0.1
0.01	1	0.398424455000168	1	118	NA	172.345436215001	0	0.24	0.63	1	171.354290537	171.752714992001	"6"	6059.900838679	6054.633547942	1.5	0.1
0.01	1	0.355167564000112	2	118	NA	172.345436215001	0	0.24	0.63	1	171.988730215	172.343897779	"6"	6059.900838679	6054.633547942	1.5	0.1
0.01	1	0.00949609100007365	1	87	NA	189.897637197	0	0.34	0.97	1	174.376007592	174.385503683	"7"	6059.900838679	6054.633547942	1.5	0.1
0.01	1	0.00225662600041687	1	87	NA	189.897637197	0	0.34	0.97	1	174.609672669	174.611929295001	"7"	6059.900838679	6054.633547942	1.5	0.1
0.01	1	0.00338445800025511	1	87	NA	189.897637197	0	0.34	0.97	1	174.843424185	174.846808643	"7"	6059.900838679	6054.633547942	1.5	0.1
0.01	1	0.00312812399988616	1	87	NA	189.897637197	0	0.34	0.97	1	175.077232745	175.080360869	"7"	6059.900838679	6054.633547942	1.5	0.1
0.01	1	0.00241823799933627	1	87	NA	189.897637197	0	0.34	0.97	1	175.310851517001	175.313269755	"7"	6059.900838679	6054.633547942	1.5	0.1
0.01	1	0.00206367600003432	1	87	NA	189.897637197	0	0.34	0.97	1	175.544624765001	175.546688441001	"7"	6059.900838679	6054.633547942	1.5	0.1
0.01	1	0.00342711800021789	1	87	NA	189.897637197	0	0.34	0.97	1	175.778344377	175.781771495001	"7"	6059.900838679	6054.633547942	1.5	0.1
0.01	1	0.00205542099956801	1	87	NA	189.897637197	0	0.34	0.97	1	176.01214184	176.014197261	"7"	6059.900838679	6054.633547942	1.5	0.1
0.01	1	0.0114898390002054	1	87	NA	189.897637197	0	0.34	0.97	1	176.245774785	176.257264624001	"7"	6059.900838679	6054.633547942	1.5	0.1
0.01	1	0.00422230500043952	1	87	NA	189.897637197	0	0.34	0.97	1	176.47946219	176.483684495	"7"	6059.900838679	6054.633547942	1.5	0.1
0.01	1	0.00203129100009392	1	87	NA	189.897637197	0	0.34	0.97	1	176.713254614	176.715285905	"7"	6059.900838679	6054.633547942	1.5	0.1
0.01	1	0.00198260599972855	1	87	NA	189.897637197	0	0.34	0.97	1	176.947050303001	176.949032909	"7"	6059.900838679	6054.633547942	1.5	0.1
0.01	1	0.00205571700007567	1	87	NA	189.897637197	0	0.34	0.97	1	177.18066541	177.182721127	"7"	6059.900838679	6054.633547942	1.5	0.1
0.01	1	0.129996452000341	1	87	NA	189.897637197	0	0.34	0.97	1	177.414600705	177.544597157001	"7"	6059.900838679	6054.633547942	1.5	0.1
0.01	1	0.00214825900002324	1	87	NA	189.897637197	0	0.34	0.97	1	177.781748611001	177.783896870001	"7"	6059.900838679	6054.633547942	1.5	0.1
0.01	1	0.00455869999950664	1	87	NA	189.897637197	0	0.34	0.97	1	178.015416310001	178.01997501	"7"	6059.900838679	6054.633547942	1.5	0.1
0.01	1	0.00394684799994138	1	87	NA	189.897637197	0	0.34	0.97	1	178.249222535001	178.253169383001	"7"	6059.900838679	6054.633547942	1.5	0.1
0.01	1	0.140847901000598	1	87	NA	189.897637197	0	0.34	0.97	1	178.483001955	178.623849856001	"7"	6059.900838679	6054.633547942	1.5	0.1
0.01	1	0.00373301199942944	1	87	NA	189.897637197	0	0.34	0.97	1	178.850174617	178.853907629	"7"	6059.900838679	6054.633547942	1.5	0.1
0.01	1	0.0671482979996654	1	87	NA	189.897637197	0	0.34	0.97	1	179.083915375	179.151063673	"7"	6059.900838679	6054.633547942	1.5	0.1
0.01	1	0.0875401180001063	1	87	NA	189.897637197	0	0.34	0.97	1	179.384411632001	179.471951750001	"7"	6059.900838679	6054.633547942	1.5	0.1
0.01	1	0.106905394000023	1	87	NA	189.897637197	0	0.34	0.97	1	179.701689315	179.808594709	"7"	6059.900838679	6054.633547942	1.5	0.1
0.01	1	0.140063522999299	1	87	NA	189.897637197	0	0.34	0.97	1	180.035600390001	180.175663913	"7"	6059.900838679	6054.633547942	1.5	0.1
0.01	1	0.100934074999714	1	87	NA	189.897637197	0	0.34	0.97	1	180.402760192001	180.503694267	"7"	6059.900838679	6054.633547942	1.5	0.1
0.01	1	0.311816252999961	1	87	NA	189.897637197	0	0.34	0.97	1	180.736710075001	181.048526328001	"7"	6059.900838679	6054.633547942	1.5	0.1
0.01	1	0.457280165000157	1	87	NA	189.897637197	0	0.34	0.97	1	181.28764444	181.744924605	"7"	6059.900838679	6054.633547942	1.5	0.1
0.01	1	0.500409464000768	1	87	NA	189.897637197	0	0.34	0.97	1	181.97219237	182.472601834001	"7"	6059.900838679	6054.633547942	1.5	0.1
0.01	1	0.550431982999726	1	87	NA	189.897637197	0	0.34	0.97	1	182.70659527	183.257027253	"7"	6059.900838679	6054.633547942	1.5	0.1
0.01	1	0.565156521000063	1	87	NA	189.897637197	0	0.34	0.97	1	183.491360502	184.056517023	"7"	6059.900838679	6054.633547942	1.5	0.1
0.01	1	0.699907158999849	1	87	NA	189.897637197	0	0.34	0.97	1	184.29270428	184.992611439	"7"	6059.900838679	6054.633547942	1.5	0.1
0.01	1	0.619330575999811	1	87	NA	189.897637197	0	0.34	0.97	1	185.22756268	185.846893256	"7"	6059.900838679	6054.633547942	1.5	0.1
0.01	1	0.584472844999254	1	87	NA	189.897637197	0	0.34	0.97	1	186.079075025001	186.66354787	"7"	6059.900838679	6054.633547942	1.5	0.1
0.01	1	0.550467593999201	1	87	NA	189.897637197	0	0.34	0.97	1	186.897033765001	187.447501359	"7"	6059.900838679	6054.633547942	1.5	0.1
0.01	1	1.25514710199968	1	87	NA	189.897637197	0	0.34	0.97	1	187.681758385001	188.936905487	"7"	6059.900838679	6054.633547942	1.5	0.1
0.01	1	0.728553614000703	2	87	NA	189.897637197	0	0.34	0.97	1	189.16747606	189.896029674001	"7"	6059.900838679	6054.633547942	1.5	0.1
0.01	1	0.628038097000172	1	6	194.04550157	NA	1	0	0.97	1	191.93904242	192.567080517	"8"	6059.900838679	6054.633547942	1.5	0.1
0.01	1	0.00210300199978519	1	6	194.04550157	NA	1	0	0.97	1	192.807055621	192.809158623	"8"	6059.900838679	6054.633547942	1.5	0.1
0.01	1	0.119832753000082	1	6	194.04550157	NA	1	0	0.97	1	193.040778832	193.160611585	"8"	6059.900838679	6054.633547942	1.5	0.1
0.01	1	0.00428984200061677	1	6	194.04550157	NA	1	0	0.97	1	193.39153221	193.395822052001	"8"	6059.900838679	6054.633547942	1.5	0.1
0.01	1	0.00392847300008725	1	6	194.04550157	NA	1	0	0.97	1	193.625007812	193.628936285	"8"	6059.900838679	6054.633547942	1.5	0.1
0.01	1	0.077164835000076	1	6	194.04550157	NA	1	0	0.97	1	193.858887410001	193.936052245001	"8"	6059.900838679	6054.633547942	1.5	0.1
0.01	1	0.457515721999698	1	106	NA	206.473635845	0	0.2	1.17	1	196.079122642001	196.536638364	"9"	6059.900838679	6054.633547942	1.5	0.1
0.01	1	0.00344070699975418	1	106	NA	206.473635845	0	0.2	1.17	1	196.763633282	196.767073989	"9"	6059.900838679	6054.633547942	1.5	0.1
0.01	1	0.00398629499977687	1	106	NA	206.473635845	0	0.2	1.17	1	196.997451772	197.001438067	"9"	6059.900838679	6054.633547942	1.5	0.1
0.01	1	0.0025152309999612	1	106	NA	206.473635845	0	0.2	1.17	1	197.231062321001	197.233577552	"9"	6059.900838679	6054.633547942	1.5	0.1
0.01	1	0.015998077000404	1	106	NA	206.473635845	0	0.2	1.17	1	197.464889332	197.480887409	"9"	6059.900838679	6054.633547942	1.5	0.1
0.01	1	0.0287226069995086	1	106	NA	206.473635845	0	0.2	1.17	1	197.715345420001	197.744068027	"9"	6059.900838679	6054.633547942	1.5	0.1
0.01	1	0.0336360189994593	1	106	NA	206.473635845	0	0.2	1.17	1	197.982367580001	198.016003599	"9"	6059.900838679	6054.633547942	1.5	0.1
0.01	1	0.0545609529999638	1	106	NA	206.473635845	0	0.2	1.17	1	198.249453417	198.30401437	"9"	6059.900838679	6054.633547942	1.5	0.1
0.01	1	0.209943014999226	1	106	NA	206.473635845	0	0.2	1.17	1	198.533276722001	198.743219737	"9"	6059.900838679	6054.633547942	1.5	0.1
0.01	1	0.480620326000462	1	106	NA	206.473635845	0	0.2	1.17	1	198.967319262	199.447939588001	"9"	6059.900838679	6054.633547942	1.5	0.1
0.01	1	0.531714275999548	1	106	NA	206.473635845	0	0.2	1.17	1	199.685253667	200.216967943	"9"	6059.900838679	6054.633547942	1.5	0.1
0.01	1	0.00202824099960708	1	106	NA	206.473635845	0	0.2	1.17	1	200.453227181	200.455255422	"9"	6059.900838679	6054.633547942	1.5	0.1
0.01	1	0.376862897000137	1	106	NA	206.473635845	0	0.2	1.17	1	200.686997267	201.063860164	"9"	6059.900838679	6054.633547942	1.5	0.1
0.01	1	0.472816176000379	1	106	NA	206.473635845	0	0.2	1.17	1	201.287926725	201.760742901	"9"	6059.900838679	6054.633547942	1.5	0.1
0.01	1	0.466682399999627	1	106	NA	206.473635845	0	0.2	1.17	1	201.98911578	202.45579818	"9"	6059.900838679	6054.633547942	1.5	0.1
0.01	1	0.293204263999542	1	106	NA	206.473635845	0	0.2	1.17	1	202.690253477001	202.983457741	"9"	6059.900838679	6054.633547942	1.5	0.1
0.01	1	0.319526684000266	1	106	NA	206.473635845	0	0.2	1.17	1	203.20784065	203.527367334001	"9"	6059.900838679	6054.633547942	1.5	0.1
0.01	1	0.393199357999947	1	106	NA	206.473635845	0	0.2	1.17	1	203.758774167	204.151973525	"9"	6059.900838679	6054.633547942	1.5	0.1
0.01	1	0.456030993999775	1	106	NA	206.473635845	0	0.2	1.17	1	204.376635465001	204.832666459	"9"	6059.900838679	6054.633547942	1.5	0.1
0.01	1	0.539094861000194	1	106	NA	206.473635845	0	0.2	1.17	1	205.060985872	205.600080733	"9"	6059.900838679	6054.633547942	1.5	0.1
0.01	1	0.643183592999776	2	106	NA	206.473635845	0	0.2	1.17	1	205.828892422001	206.472076015	"9"	6059.900838679	6054.633547942	1.5	0.1
0.01	1	0.37847167200016	1	21	NA	217.00191864	0	0.18	1.35	1	208.516766571001	208.895238243001	"10"	6059.900838679	6054.633547942	1.5	0.1
0.01	1	0.130207898999288	1	21	NA	217.00191864	0	0.18	1.35	1	209.134458795001	209.264666694	"10"	6059.900838679	6054.633547942	1.5	0.1
0.01	1	0.130313380000189	1	21	NA	217.00191864	0	0.18	1.35	1	209.501673403	209.631986783001	"10"	6059.900838679	6054.633547942	1.5	0.1
0.01	1	0.187103680999826	1	21	NA	217.00191864	0	0.18	1.35	1	209.868944090001	210.056047771001	"10"	6059.900838679	6054.633547942	1.5	0.1
0.01	1	0.138281818999531	1	21	NA	217.00191864	0	0.18	1.35	1	210.286469735001	210.424751554	"10"	6059.900838679	6054.633547942	1.5	0.1
0.01	1	0.154752847000054	1	21	NA	217.00191864	0	0.18	1.35	1	210.653651407	210.808404254	"10"	6059.900838679	6054.633547942	1.5	0.1
0.01	1	0.1543286240003	1	21	NA	217.00191864	0	0.18	1.35	1	211.03769689	211.192025514	"10"	6059.900838679	6054.633547942	1.5	0.1
0.01	1	0.170243197000673	1	21	NA	217.00191864	0	0.18	1.35	1	211.421676135	211.591919332001	"10"	6059.900838679	6054.633547942	1.5	0.1
0.01	1	0.15319588300008	1	21	NA	217.00191864	0	0.18	1.35	1	211.822287087	211.97548297	"10"	6059.900838679	6054.633547942	1.5	0.1
0.01	1	0.154083649999848	1	21	NA	217.00191864	0	0.18	1.35	1	212.20641728	212.36050093	"10"	6059.900838679	6054.633547942	1.5	0.1
0.01	1	0.121063593000144	1	21	NA	217.00191864	0	0.18	1.35	1	212.59030119	212.711364783	"10"	6059.900838679	6054.633547942	1.5	0.1
0.01	1	0.122279946999697	1	21	NA	217.00191864	0	0.18	1.35	1	212.940929952	213.063209899	"10"	6059.900838679	6054.633547942	1.5	0.1
0.01	1	0.132040112999675	1	21	NA	217.00191864	0	0.18	1.35	1	213.291409567	213.42344968	"10"	6059.900838679	6054.633547942	1.5	0.1
0.01	1	0.165186404000451	1	21	NA	217.00191864	0	0.18	1.35	1	213.658768315	213.823954719001	"10"	6059.900838679	6054.633547942	1.5	0.1
0.01	1	0.189418093999848	1	21	NA	217.00191864	0	0.18	1.35	1	214.059393705001	214.248811799001	"10"	6059.900838679	6054.633547942	1.5	0.1
0.01	1	0.458948449000673	1	21	NA	217.00191864	0	0.18	1.35	1	214.47680235	214.935750799001	"10"	6059.900838679	6054.633547942	1.5	0.1
0.01	1	0.463008636999803	1	21	NA	217.00191864	0	0.18	1.35	1	215.161326930001	215.624335567	"10"	6059.900838679	6054.633547942	1.5	0.1
0.01	1	0.432870389000527	1	21	NA	217.00191864	0	0.18	1.35	1	215.862414145	216.295284534001	"10"	6059.900838679	6054.633547942	1.5	0.1
0.01	1	0.470106836000014	2	21	NA	217.00191864	0	0.18	1.35	1	216.530195972	217.000302808	"10"	6059.900838679	6054.633547942	1.5	0.1
0.01	1	0.46224084000005	1	19	224.83098475	NA	1	0	1.35	1	219.03451717	219.49675801	"11"	6059.900838679	6054.633547942	1.5	0.1
0.01	1	0.072157481999966	1	19	224.83098475	NA	1	0	1.35	1	219.735606345001	219.807763827001	"11"	6059.900838679	6054.633547942	1.5	0.1
0.01	1	0.0671379010000237	1	19	224.83098475	NA	1	0	1.35	1	220.036111802	220.103249703	"11"	6059.900838679	6054.633547942	1.5	0.1
0.01	1	0.0640936600002533	1	19	224.83098475	NA	1	0	1.35	1	220.336712415	220.400806075	"11"	6059.900838679	6054.633547942	1.5	0.1
0.01	1	0.0117252940008257	1	19	224.83098475	NA	1	0	1.35	1	220.637197442	220.648922736001	"11"	6059.900838679	6054.633547942	1.5	0.1
0.01	1	0.0654451290001816	1	19	224.83098475	NA	1	0	1.35	1	220.870881062	220.936326191	"11"	6059.900838679	6054.633547942	1.5	0.1
0.01	1	0.0690082269993582	1	19	224.83098475	NA	1	0	1.35	1	221.171426280001	221.240434507	"11"	6059.900838679	6054.633547942	1.5	0.1
0.01	1	0.0250037800005884	1	19	224.83098475	NA	1	0	1.35	1	221.47194639	221.496950170001	"11"	6059.900838679	6054.633547942	1.5	0.1
0.01	1	0.061193204999654	1	19	224.83098475	NA	1	0	1.35	1	221.722286345001	221.78347955	"11"	6059.900838679	6054.633547942	1.5	0.1
0.01	1	0.0743964549992597	1	19	224.83098475	NA	1	0	1.35	1	222.006102775001	222.08049923	"11"	6059.900838679	6054.633547942	1.5	0.1
0.01	1	0.0768225190004159	1	19	224.83098475	NA	1	0	1.35	1	222.30659576	222.383418279001	"11"	6059.900838679	6054.633547942	1.5	0.1
0.01	1	0.0400519639997583	1	19	224.83098475	NA	1	0	1.35	1	222.62381797	222.663869934	"11"	6059.900838679	6054.633547942	1.5	0.1
0.01	1	0.0691255129995625	1	19	224.83098475	NA	1	0	1.35	1	222.890933635001	222.960059148	"11"	6059.900838679	6054.633547942	1.5	0.1
0.01	1	0.0564495849994273	1	19	224.83098475	NA	1	0	1.35	1	223.191479065001	223.24792865	"11"	6059.900838679	6054.633547942	1.5	0.1
0.01	1	0.0517214870005773	1	19	224.83098475	NA	1	0	1.35	1	223.4752865	223.527007987001	"11"	6059.900838679	6054.633547942	1.5	0.1
0.01	1	0.0496015390008324	1	19	224.83098475	NA	1	0	1.35	1	223.759075692	223.808677231001	"11"	6059.900838679	6054.633547942	1.5	0.1
0.01	1	0.0762901580001198	1	19	224.83098475	NA	1	0	1.35	1	224.042886532	224.11917669	"11"	6059.900838679	6054.633547942	1.5	0.1
0.01	1	0.073308347999955	1	19	224.83098475	NA	1	0	1.35	1	224.343370952	224.4166793	"11"	6059.900838679	6054.633547942	1.5	0.1
0.01	1	0.0758319549995576	1	19	224.83098475	NA	1	0	1.35	1	224.643872182	224.719704137	"11"	6059.900838679	6054.633547942	1.5	0.1
0.01	1	0.423285668999597	1	63	NA	233.841650511	0	0.15	1.5	1	226.881018902001	227.304304571	"12"	6059.900838679	6054.633547942	1.5	0.1
0.01	1	0.00313493399971776	1	63	NA	233.841650511	0	0.15	1.5	1	227.532109215001	227.535244149	"12"	6059.900838679	6054.633547942	1.5	0.1
0.01	1	0.00312906799990742	1	63	NA	233.841650511	0	0.15	1.5	1	227.765818571001	227.768947639001	"12"	6059.900838679	6054.633547942	1.5	0.1
0.01	1	0.0252729150006417	1	63	NA	233.841650511	0	0.15	1.5	1	227.9995295	228.024802415001	"12"	6059.900838679	6054.633547942	1.5	0.1
0.01	1	0.0379394290002892	1	63	NA	233.841650511	0	0.15	1.5	1	228.250040125	228.287979554	"12"	6059.900838679	6054.633547942	1.5	0.1
0.01	1	0.00259830899994995	1	63	NA	233.841650511	0	0.15	1.5	1	228.516973481001	228.519571790001	"12"	6059.900838679	6054.633547942	1.5	0.1
0.01	1	0.00921879699944839	1	63	NA	233.841650511	0	0.15	1.5	1	228.750796920001	228.760015717	"12"	6059.900838679	6054.633547942	1.5	0.1
0.01	1	0.0246178739998868	1	63	NA	233.841650511	0	0.15	1.5	1	228.98453881	229.009156684	"12"	6059.900838679	6054.633547942	1.5	0.1
0.01	1	0.0450102029999471	1	63	NA	233.841650511	0	0.15	1.5	1	229.23491514	229.279925343	"12"	6059.900838679	6054.633547942	1.5	0.1
0.01	1	0.0417123699999138	1	63	NA	233.841650511	0	0.15	1.5	1	229.502090625	229.543802995	"12"	6059.900838679	6054.633547942	1.5	0.1
0.01	1	0.0155968769995525	1	63	NA	233.841650511	0	0.15	1.5	1	229.769080325001	229.784677202	"12"	6059.900838679	6054.633547942	1.5	0.1
0.01	1	0.0276914050000414	1	63	NA	233.841650511	0	0.15	1.5	1	230.019677112	230.047368517	"12"	6059.900838679	6054.633547942	1.5	0.1
0.01	1	0.194897026000035	1	63	NA	233.841650511	0	0.15	1.5	1	230.270023007	230.464920033	"12"	6059.900838679	6054.633547942	1.5	0.1
0.01	1	0.472368038999775	1	63	NA	233.841650511	0	0.15	1.5	1	230.704080745	231.176448784	"12"	6059.900838679	6054.633547942	1.5	0.1
0.01	1	1.78697197899965	1	63	NA	233.841650511	0	0.15	1.5	1	231.405287995	233.192259974	"12"	6059.900838679	6054.633547942	1.5	0.1
0.01	1	0.414659910999944	2	63	NA	233.841650511	0	0.15	1.5	1	233.42540086	233.840060771	"12"	6059.900838679	6054.633547942	1.5	0.1
0.01	1	0.504364160000478	1	54	NA	242.096823973	0	0.17	1.67	1	235.89612562	236.40048978	"13"	6059.900838679	6054.633547942	1.5	0.1
0.01	1	0.105179041999691	1	54	NA	242.096823973	0	0.17	1.67	1	236.630729920001	236.735908962	"13"	6059.900838679	6054.633547942	1.5	0.1
0.01	1	0.0680185320006785	1	54	NA	242.096823973	0	0.17	1.67	1	236.9645996	237.032618132001	"13"	6059.900838679	6054.633547942	1.5	0.1
0.01	1	0.18229413500012	1	54	NA	242.096823973	0	0.17	1.67	1	237.265208667	237.447502802001	"13"	6059.900838679	6054.633547942	1.5	0.1
0.01	1	0.092894084999898	1	54	NA	242.096823973	0	0.17	1.67	1	237.682546447	237.775440532	"13"	6059.900838679	6054.633547942	1.5	0.1
0.01	1	0.160417878999397	1	54	NA	242.096823973	0	0.17	1.67	1	237.999745040001	238.160162919	"13"	6059.900838679	6054.633547942	1.5	0.1
0.01	1	0.159357086999989	1	54	NA	242.096823973	0	0.17	1.67	1	238.38360049	238.542957577	"13"	6059.900838679	6054.633547942	1.5	0.1
0.01	1	0.0877929050002422	1	54	NA	242.096823973	0	0.17	1.67	1	238.767682812	238.855475717	"13"	6059.900838679	6054.633547942	1.5	0.1
0.01	1	0.0661819160004598	1	54	NA	242.096823973	0	0.17	1.67	1	239.08491847	239.151100386001	"13"	6059.900838679	6054.633547942	1.5	0.1
0.01	1	0.102167810000537	1	54	NA	242.096823973	0	0.17	1.67	1	239.38544835	239.48761616	"13"	6059.900838679	6054.633547942	1.5	0.1
0.01	1	0.087798919999841	1	54	NA	242.096823973	0	0.17	1.67	1	239.71920895	239.80700787	"13"	6059.900838679	6054.633547942	1.5	0.1
0.01	1	0.0350020519999816	1	54	NA	242.096823973	0	0.17	1.67	1	240.036501075	240.071503127	"13"	6059.900838679	6054.633547942	1.5	0.1
0.01	1	0.104995233999944	1	54	NA	242.096823973	0	0.17	1.67	1	240.30360746	240.408602694	"13"	6059.900838679	6054.633547942	1.5	0.1
0.01	1	0.059156276000067	1	54	NA	242.096823973	0	0.17	1.67	1	240.637478355	240.696634631	"13"	6059.900838679	6054.633547942	1.5	0.1
0.01	1	0.101873804999741	1	54	NA	242.096823973	0	0.17	1.67	1	240.921246485001	241.02312029	"13"	6059.900838679	6054.633547942	1.5	0.1
0.01	1	0.0723889000000781	1	54	NA	242.096823973	0	0.17	1.67	1	241.255208985001	241.327597885001	"13"	6059.900838679	6054.633547942	1.5	0.1
0.01	1	0.109289347999947	1	54	NA	242.096823973	0	0.17	1.67	1	241.555604762	241.66489411	"13"	6059.900838679	6054.633547942	1.5	0.1
0.01	1	0.205727141999887	2	54	NA	242.096823973	0	0.17	1.67	1	241.889517452	242.095244594	"13"	6059.900838679	6054.633547942	1.5	0.1
0.01	1	0.489288195999507	1	103	NA	251.066013592001	0	0.2	1.87	1	244.143293495001	244.632581691	"14"	6059.900838679	6054.633547942	1.5	0.1
0.01	1	0.00328654399982042	1	103	NA	251.066013592001	0	0.2	1.87	1	244.861188509	244.864475053	"14"	6059.900838679	6054.633547942	1.5	0.1
0.01	1	0.00217832399994222	1	103	NA	251.066013592001	0	0.2	1.87	1	245.095050813	245.097229137	"14"	6059.900838679	6054.633547942	1.5	0.1
0.01	1	0.00218195999968884	1	103	NA	251.066013592001	0	0.2	1.87	1	245.328647514	245.330829474	"14"	6059.900838679	6054.633547942	1.5	0.1
0.01	1	0.00218432299971028	1	103	NA	251.066013592001	0	0.2	1.87	1	245.562567666	245.564751989	"14"	6059.900838679	6054.633547942	1.5	0.1
0.01	1	0.00386822699965705	1	103	NA	251.066013592001	0	0.2	1.87	1	245.79616056	245.800028787	"14"	6059.900838679	6054.633547942	1.5	0.1
0.01	1	0.00457523500062962	1	103	NA	251.066013592001	0	0.2	1.87	1	246.029808845	246.034384080001	"14"	6059.900838679	6054.633547942	1.5	0.1
0.01	1	0.0039283690002776	1	103	NA	251.066013592001	0	0.2	1.87	1	246.263585302	246.267513671	"14"	6059.900838679	6054.633547942	1.5	0.1
0.01	1	0.00410412400015048	1	103	NA	251.066013592001	0	0.2	1.87	1	246.497328195001	246.501432319001	"14"	6059.900838679	6054.633547942	1.5	0.1
0.01	1	0.00331221999931586	1	103	NA	251.066013592001	0	0.2	1.87	1	246.731003743001	246.734315963	"14"	6059.900838679	6054.633547942	1.5	0.1
0.01	1	0.0433432610007003	1	103	NA	251.066013592001	0	0.2	1.87	1	246.96487059	247.008213851001	"14"	6059.900838679	6054.633547942	1.5	0.1
0.01	1	0.0241756699997495	1	103	NA	251.066013592001	0	0.2	1.87	1	247.231928494	247.256104164	"14"	6059.900838679	6054.633547942	1.5	0.1
0.01	1	0.0383914060003008	1	103	NA	251.066013592001	0	0.2	1.87	1	247.48239032	247.520781726001	"14"	6059.900838679	6054.633547942	1.5	0.1
0.01	1	0.0435266849999607	1	103	NA	251.066013592001	0	0.2	1.87	1	247.74944337	247.792970055	"14"	6059.900838679	6054.633547942	1.5	0.1
0.01	1	0.0701389679998101	1	103	NA	251.066013592001	0	0.2	1.87	1	248.033171592	248.10331056	"14"	6059.900838679	6054.633547942	1.5	0.1
0.01	1	0.0977788690006491	1	103	NA	251.066013592001	0	0.2	1.87	1	248.333777625	248.431556494001	"14"	6059.900838679	6054.633547942	1.5	0.1
0.01	1	0.196189557000253	1	103	NA	251.066013592001	0	0.2	1.87	1	248.667613345	248.863802902	"14"	6059.900838679	6054.633547942	1.5	0.1
0.01	1	0.25738670300052	1	103	NA	251.066013592001	0	0.2	1.87	1	249.10175187	249.359138573001	"14"	6059.900838679	6054.633547942	1.5	0.1
0.01	1	0.277688557999682	1	103	NA	251.066013592001	0	0.2	1.87	1	249.585854822	249.86354338	"14"	6059.900838679	6054.633547942	1.5	0.1
0.01	1	0.433213115999934	1	103	NA	251.066013592001	0	0.2	1.87	1	250.086711494	250.51992461	"14"	6059.900838679	6054.633547942	1.5	0.1
0.01	1	0.309923054999672	2	103	NA	251.066013592001	0	0.2	1.87	1	250.754527345	251.0644504	"14"	6059.900838679	6054.633547942	1.5	0.1
0.01	1	0.322510555999543	1	120	NA	260.786255477	0	0.23	2.1	1	253.125112837	253.447623393	"15"	6059.900838679	6054.633547942	1.5	0.1
0.01	1	0.083292012000129	1	120	NA	260.786255477	0	0.23	2.1	1	253.676143475001	253.759435487001	"15"	6059.900838679	6054.633547942	1.5	0.1
0.01	1	0.0154666420003196	1	120	NA	260.786255477	0	0.23	2.1	1	253.993200167	254.008666809001	"15"	6059.900838679	6054.633547942	1.5	0.1
0.01	1	0.0020534340001177	1	120	NA	260.786255477	0	0.23	2.1	1	254.243740347	254.245793781	"15"	6059.900838679	6054.633547942	1.5	0.1
0.01	1	0.00207660700016277	1	120	NA	260.786255477	0	0.23	2.1	1	254.477463265001	254.479539872001	"15"	6059.900838679	6054.633547942	1.5	0.1
0.01	1	0.00459404699995503	1	120	NA	260.786255477	0	0.23	2.1	1	254.711188445001	254.715782492	"15"	6059.900838679	6054.633547942	1.5	0.1
0.01	1	0.0045467270001609	1	120	NA	260.786255477	0	0.23	2.1	1	254.944897455001	254.949444182001	"15"	6059.900838679	6054.633547942	1.5	0.1
0.01	1	0.00375616899964371	1	120	NA	260.786255477	0	0.23	2.1	1	255.17859749	255.182353659	"15"	6059.900838679	6054.633547942	1.5	0.1
0.01	1	0.0037818540004082	1	120	NA	260.786255477	0	0.23	2.1	1	255.412319015	255.416100869001	"15"	6059.900838679	6054.633547942	1.5	0.1
0.01	1	0.00401554199925158	1	120	NA	260.786255477	0	0.23	2.1	1	255.646075287001	255.650090829	"15"	6059.900838679	6054.633547942	1.5	0.1
0.01	1	0.00412436199985677	1	120	NA	260.786255477	0	0.23	2.1	1	255.879801285	255.883925647	"15"	6059.900838679	6054.633547942	1.5	0.1
0.01	1	0.00366305300030945	1	120	NA	260.786255477	0	0.23	2.1	1	256.11346039	256.117123443	"15"	6059.900838679	6054.633547942	1.5	0.1
0.01	1	0.107732012999804	1	120	NA	260.786255477	0	0.23	2.1	1	256.34722855	256.454960563	"15"	6059.900838679	6054.633547942	1.5	0.1
0.01	1	0.00372076999974524	1	120	NA	260.786255477	0	0.23	2.1	1	256.681041685	256.684762455	"15"	6059.900838679	6054.633547942	1.5	0.1
0.01	1	0.00361677899945789	1	120	NA	260.786255477	0	0.23	2.1	1	256.914831620001	256.918448399	"15"	6059.900838679	6054.633547942	1.5	0.1
0.01	1	0.0195602169997073	1	120	NA	260.786255477	0	0.23	2.1	1	257.148500742001	257.168060959	"15"	6059.900838679	6054.633547942	1.5	0.1
0.01	1	0.0253814679999778	1	120	NA	260.786255477	0	0.23	2.1	1	257.398971925	257.424353393	"15"	6059.900838679	6054.633547942	1.5	0.1
0.01	1	0.0714926580003521	1	120	NA	260.786255477	0	0.23	2.1	1	257.649375772	257.72086843	"15"	6059.900838679	6054.633547942	1.5	0.1
0.01	1	0.0412330509998355	1	120	NA	260.786255477	0	0.23	2.1	1	257.949921792	257.991154843	"15"	6059.900838679	6054.633547942	1.5	0.1
0.01	1	0.0943555590001779	1	120	NA	260.786255477	0	0.23	2.1	1	258.216984095	258.311339654	"15"	6059.900838679	6054.633547942	1.5	0.1
0.01	1	0.114454794999801	1	120	NA	260.786255477	0	0.23	2.1	1	258.534223925	258.64867872	"15"	6059.900838679	6054.633547942	1.5	0.1
0.01	1	0.106245128999944	1	120	NA	260.786255477	0	0.23	2.1	1	258.884864330001	258.991109459001	"15"	6059.900838679	6054.633547942	1.5	0.1
0.01	1	0.718036651000148	1	120	NA	260.786255477	0	0.23	2.1	1	259.218750685	259.936787336001	"15"	6059.900838679	6054.633547942	1.5	0.1
0.01	1	0.61438221499975	2	120	NA	260.786255477	0	0.23	2.1	1	260.170298935001	260.78468115	"15"	6059.900838679	6054.633547942	1.5	0.1
0.01	1	0.00464822199955961	1	109	NA	269.306306553	0	0.19	2.29	1	262.824796540001	262.829444762	"16"	6059.900838679	6054.633547942	1.5	0.1
0.01	1	0.00221144100032689	1	109	NA	269.306306553	0	0.19	2.29	1	263.058447123	263.060658564001	"16"	6059.900838679	6054.633547942	1.5	0.1
0.01	1	0.00207072800003516	1	109	NA	269.306306553	0	0.19	2.29	1	263.292197141001	263.294267869001	"16"	6059.900838679	6054.633547942	1.5	0.1
0.01	1	0.0337878410000485	1	109	NA	269.306306553	0	0.19	2.29	1	263.525990625	263.559778466	"16"	6059.900838679	6054.633547942	1.5	0.1
0.01	1	0.0307028980005271	1	109	NA	269.306306553	0	0.19	2.29	1	263.793006107	263.823709005001	"16"	6059.900838679	6054.633547942	1.5	0.1
0.01	1	0.00220145799994498	1	109	NA	269.306306553	0	0.19	2.29	1	264.060160316	264.062361774	"16"	6059.900838679	6054.633547942	1.5	0.1
0.01	1	0.0188690559998577	1	109	NA	269.306306553	0	0.19	2.29	1	264.293907107	264.312776163	"16"	6059.900838679	6054.633547942	1.5	0.1
0.01	1	0.0225317940003151	1	109	NA	269.306306553	0	0.19	2.29	1	264.54441226	264.566944054	"16"	6059.900838679	6054.633547942	1.5	0.1
0.01	1	0.0531101679998756	1	109	NA	269.306306553	0	0.19	2.29	1	264.794773042	264.84788321	"16"	6059.900838679	6054.633547942	1.5	0.1
0.01	1	0.0263855950006473	1	109	NA	269.306306553	0	0.19	2.29	1	265.078484955	265.104870550001	"16"	6059.900838679	6054.633547942	1.5	0.1
0.01	1	0.0710539890005748	1	109	NA	269.306306553	0	0.19	2.29	1	265.329064085	265.400118074001	"16"	6059.900838679	6054.633547942	1.5	0.1
0.01	1	0.0743438350000361	1	109	NA	269.306306553	0	0.19	2.29	1	265.629558680001	265.703902515001	"16"	6059.900838679	6054.633547942	1.5	0.1
0.01	1	0.0939352039995356	1	109	NA	269.306306553	0	0.19	2.29	1	265.930096787	266.024031991	"16"	6059.900838679	6054.633547942	1.5	0.1
0.01	1	0.0243148330000622	1	109	NA	269.306306553	0	0.19	2.29	1	266.26392174	266.288236573	"16"	6059.900838679	6054.633547942	1.5	0.1
0.01	1	0.108788452000226	1	109	NA	269.306306553	0	0.19	2.29	1	266.514312342	266.623100794	"16"	6059.900838679	6054.633547942	1.5	0.1
0.01	1	0.183089971999834	1	109	NA	269.306306553	0	0.19	2.29	1	266.848272347001	267.031362319	"16"	6059.900838679	6054.633547942	1.5	0.1
0.01	1	0.262642474000131	1	109	NA	269.306306553	0	0.19	2.29	1	267.265642685	267.528285159	"16"	6059.900838679	6054.633547942	1.5	0.1
0.01	1	0.232850184000199	1	109	NA	269.306306553	0	0.19	2.29	1	267.766425372	267.999275556001	"16"	6059.900838679	6054.633547942	1.5	0.1
0.01	1	0.333906136000223	1	109	NA	269.306306553	0	0.19	2.29	1	268.233905895	268.567812031	"16"	6059.900838679	6054.633547942	1.5	0.1
0.01	1	0.503234261999751	2	109	NA	269.306306553	0	0.19	2.29	1	268.80151001	269.304744272	"16"	6059.900838679	6054.633547942	1.5	0.1
0.01	1	0.252718751999964	1	71	NA	283.257962023	0	0.24	2.53	1	271.355814267	271.608533019	"17"	6059.900838679	6054.633547942	1.5	0.1
0.01	1	0.00207760899957066	1	71	NA	283.257962023	0	0.24	2.53	1	271.839864485	271.841942094	"17"	6059.900838679	6054.633547942	1.5	0.1
0.01	1	0.110839954999392	1	71	NA	283.257962023	0	0.24	2.53	1	272.073707670001	272.184547625	"17"	6059.900838679	6054.633547942	1.5	0.1
0.01	1	0.00220061900017754	1	71	NA	283.257962023	0	0.24	2.53	1	272.407590679	272.409791298001	"17"	6059.900838679	6054.633547942	1.5	0.1
0.01	1	0.0022362420004356	1	71	NA	283.257962023	0	0.24	2.53	1	272.64124221	272.643478452001	"17"	6059.900838679	6054.633547942	1.5	0.1
0.01	1	0.00206082499971671	1	71	NA	283.257962023	0	0.24	2.53	1	272.875115841	272.877176666	"17"	6059.900838679	6054.633547942	1.5	0.1
0.01	1	0.00205838600049901	1	71	NA	283.257962023	0	0.24	2.53	1	273.108764173	273.110822559001	"17"	6059.900838679	6054.633547942	1.5	0.1
0.01	1	0.00254887499977485	1	71	NA	283.257962023	0	0.24	2.53	1	273.342479565001	273.345028440001	"17"	6059.900838679	6054.633547942	1.5	0.1
0.01	1	0.00237215499964805	1	71	NA	283.257962023	0	0.24	2.53	1	273.576221597001	273.578593752	"17"	6059.900838679	6054.633547942	1.5	0.1
0.01	1	0.0033623199997237	1	71	NA	283.257962023	0	0.24	2.53	1	273.809909623001	273.813271943	"17"	6059.900838679	6054.633547942	1.5	0.1
0.01	1	0.011905492000551	1	71	NA	283.257962023	0	0.24	2.53	1	274.043673305	274.055578797001	"17"	6059.900838679	6054.633547942	1.5	0.1
0.01	1	0.0040417329992124	1	71	NA	283.257962023	0	0.24	2.53	1	274.293964402001	274.298006135	"17"	6059.900838679	6054.633547942	1.5	0.1
0.01	1	0.031818306999412	1	71	NA	283.257962023	0	0.24	2.53	1	274.527787022001	274.559605329	"17"	6059.900838679	6054.633547942	1.5	0.1
0.01	1	0.0282405769994512	1	71	NA	283.257962023	0	0.24	2.53	1	274.794998922001	274.823239499	"17"	6059.900838679	6054.633547942	1.5	0.1
0.01	1	0.0426061269999991	1	71	NA	283.257962023	0	0.24	2.53	1	275.045350127	275.087956254	"17"	6059.900838679	6054.633547942	1.5	0.1
0.01	1	0.111957576999885	1	71	NA	283.257962023	0	0.24	2.53	1	275.312415505	275.424373082	"17"	6059.900838679	6054.633547942	1.5	0.1
0.01	1	0.136643820000245	1	71	NA	283.257962023	0	0.24	2.53	1	275.64639437	275.78303819	"17"	6059.900838679	6054.633547942	1.5	0.1
0.01	1	0.433303653000621	1	71	NA	283.257962023	0	0.24	2.53	1	276.013600927	276.446904580001	"17"	6059.900838679	6054.633547942	1.5	0.1
0.01	1	0.527474822999466	1	71	NA	283.257962023	0	0.24	2.53	1	276.681442427001	277.20891725	"17"	6059.900838679	6054.633547942	1.5	0.1
0.01	1	0.47045850700033	1	71	NA	283.257962023	0	0.24	2.53	1	277.432723775	277.903182282001	"17"	6059.900838679	6054.633547942	1.5	0.1
0.01	1	1.04288995600018	1	71	NA	283.257962023	0	0.24	2.53	1	278.13391804	279.176807996	"17"	6059.900838679	6054.633547942	1.5	0.1
0.01	1	0.741000141999393	1	71	NA	283.257962023	0	0.24	2.53	1	279.402746645001	280.143746787	"17"	6059.900838679	6054.633547942	1.5	0.1
0.01	1	0.75702573000035	1	71	NA	283.257962023	0	0.24	2.53	1	280.370982192	281.128007922001	"17"	6059.900838679	6054.633547942	1.5	0.1
0.01	1	1.05150194099951	1	71	NA	283.257962023	0	0.24	2.53	1	281.355949655001	282.407451596	"17"	6059.900838679	6054.633547942	1.5	0.1
0.01	1	0.61492138199992	2	71	NA	283.257962023	0	0.24	2.53	1	282.641446792	283.256368174	"17"	6059.900838679	6054.633547942	1.5	0.1
0.01	1	0.560345718999997	1	96	NA	302.018422303	0	0.31	2.84	1	285.312589857001	285.872935576001	"18"	6059.900838679	6054.633547942	1.5	0.1
0.01	1	0.00202212799922563	1	96	NA	302.018422303	0	0.31	2.84	1	286.114022213001	286.116044341	"18"	6059.900838679	6054.633547942	1.5	0.1
0.01	1	0.00204546500026481	1	96	NA	302.018422303	0	0.31	2.84	1	286.347672709	286.349718174	"18"	6059.900838679	6054.633547942	1.5	0.1
0.01	1	0.00314276000062819	1	96	NA	302.018422303	0	0.31	2.84	1	286.581365297	286.584508057001	"18"	6059.900838679	6054.633547942	1.5	0.1
0.01	1	0.00206171600075322	1	96	NA	302.018422303	0	0.31	2.84	1	286.815196443	286.817258159001	"18"	6059.900838679	6054.633547942	1.5	0.1
0.01	1	0.00383367699942028	1	96	NA	302.018422303	0	0.31	2.84	1	287.048849342001	287.052683019	"18"	6059.900838679	6054.633547942	1.5	0.1
0.01	1	0.0767867860004117	1	96	NA	302.018422303	0	0.31	2.84	1	287.282545387	287.359332173	"18"	6059.900838679	6054.633547942	1.5	0.1
0.01	1	0.00200262399994244	1	96	NA	302.018422303	0	0.31	2.84	1	287.58312233	287.585124954	"18"	6059.900838679	6054.633547942	1.5	0.1
0.01	1	0.00370038500022929	1	96	NA	302.018422303	0	0.31	2.84	1	287.81679042	287.820490805	"18"	6059.900838679	6054.633547942	1.5	0.1
0.01	1	0.00207259000035265	1	96	NA	302.018422303	0	0.31	2.84	1	288.05056192	288.052634510001	"18"	6059.900838679	6054.633547942	1.5	0.1
0.01	1	0.00308975999996619	1	96	NA	302.018422303	0	0.31	2.84	1	288.284352235	288.287441995	"18"	6059.900838679	6054.633547942	1.5	0.1
0.01	1	0.00472569100020337	1	96	NA	302.018422303	0	0.31	2.84	1	288.518054861001	288.522780552001	"18"	6059.900838679	6054.633547942	1.5	0.1
0.01	1	0.00989989999925456	1	96	NA	302.018422303	0	0.31	2.84	1	288.751737027001	288.761636927	"18"	6059.900838679	6054.633547942	1.5	0.1
0.01	1	0.0375087210004494	1	96	NA	302.018422303	0	0.31	2.84	1	289.00218563	289.039694351	"18"	6059.900838679	6054.633547942	1.5	0.1
0.01	1	0.0980906499999037	1	96	NA	302.018422303	0	0.31	2.84	1	289.269294590001	289.367385240001	"18"	6059.900838679	6054.633547942	1.5	0.1
0.01	1	0.133612279999397	1	96	NA	302.018422303	0	0.31	2.84	1	289.603247970001	289.73686025	"18"	6059.900838679	6054.633547942	1.5	0.1
0.01	1	0.189282126999387	1	96	NA	302.018422303	0	0.31	2.84	1	289.970441150001	290.159723277	"18"	6059.900838679	6054.633547942	1.5	0.1
0.01	1	0.251312679999501	1	96	NA	302.018422303	0	0.31	2.84	1	290.387866525	290.639179205	"18"	6059.900838679	6054.633547942	1.5	0.1
0.01	1	0.376360244999887	1	96	NA	302.018422303	0	0.31	2.84	1	290.871932210001	291.248292455	"18"	6059.900838679	6054.633547942	1.5	0.1
0.01	1	0.303516442999353	1	96	NA	302.018422303	0	0.31	2.84	1	291.472923312001	291.776439755	"18"	6059.900838679	6054.633547942	1.5	0.1
0.01	1	0.433032228000229	1	96	NA	302.018422303	0	0.31	2.84	1	292.007197605	292.440229833001	"18"	6059.900838679	6054.633547942	1.5	0.1
0.01	1	0.356582092000281	1	96	NA	302.018422303	0	0.31	2.84	1	292.674965925	293.031548017	"18"	6059.900838679	6054.633547942	1.5	0.1
0.01	1	0.388002336999307	1	96	NA	302.018422303	0	0.31	2.84	1	293.259429950001	293.647432287	"18"	6059.900838679	6054.633547942	1.5	0.1
0.01	1	0.419652593000137	1	96	NA	302.018422303	0	0.31	2.84	1	293.876955957	294.29660855	"18"	6059.900838679	6054.633547942	1.5	0.1
0.01	1	0.399835555999744	1	96	NA	302.018422303	0	0.31	2.84	1	294.528076575	294.927912131	"18"	6059.900838679	6054.633547942	1.5	0.1
0.01	1	0.70237385099972	1	96	NA	302.018422303	0	0.31	2.84	1	295.162513472001	295.864887323	"18"	6059.900838679	6054.633547942	1.5	0.1
0.01	1	0.446210441999938	1	96	NA	302.018422303	0	0.31	2.84	1	296.097507495	296.543717937	"18"	6059.900838679	6054.633547942	1.5	0.1
0.01	1	0.443370396999853	1	96	NA	302.018422303	0	0.31	2.84	1	296.765262242	297.208632639	"18"	6059.900838679	6054.633547942	1.5	0.1
0.01	1	1.14333308699952	1	96	NA	302.018422303	0	0.31	2.84	1	297.433094767001	298.576427854	"18"	6059.900838679	6054.633547942	1.5	0.1
0.01	1	0.982404194999617	1	96	NA	302.018422303	0	0.31	2.84	1	298.802016035001	299.78442023	"18"	6059.900838679	6054.633547942	1.5	0.1
0.01	1	1.03504205899935	1	96	NA	302.018422303	0	0.31	2.84	1	300.020638550001	301.055680609	"18"	6059.900838679	6054.633547942	1.5	0.1
0.01	1	0.727354085000115	2	96	NA	302.018422303	0	0.31	2.84	1	301.289494527	302.016848612	"18"	6059.900838679	6054.633547942	1.5	0.1
0.01	1	0.331407988000137	1	91	NA	318.945726633	0	0.35	3.19	1	304.06079074	304.392198728	"19"	6059.900838679	6054.633547942	1.5	0.1
0.01	1	0.106569719999243	1	91	NA	318.945726633	0	0.35	3.19	1	304.628389140001	304.73495886	"19"	6059.900838679	6054.633547942	1.5	0.1
0.01	1	0.021337152000342	1	91	NA	318.945726633	0	0.35	3.19	1	304.962282745	304.983619897001	"19"	6059.900838679	6054.633547942	1.5	0.1
0.01	1	0.00202705299943773	1	91	NA	318.945726633	0	0.35	3.19	1	305.212769401001	305.214796454	"19"	6059.900838679	6054.633547942	1.5	0.1
0.01	1	0.130090858000585	1	91	NA	318.945726633	0	0.35	3.19	1	305.44640719	305.576498048001	"19"	6059.900838679	6054.633547942	1.5	0.1
0.01	1	0.00296674399942276	1	91	NA	318.945726633	0	0.35	3.19	1	305.813695583	305.816662327	"19"	6059.900838679	6054.633547942	1.5	0.1
0.01	1	0.0021790279997731	1	91	NA	318.945726633	0	0.35	3.19	1	306.047592395001	306.049771423	"19"	6059.900838679	6054.633547942	1.5	0.1
0.01	1	0.103596841000581	1	91	NA	318.945726633	0	0.35	3.19	1	306.28125697	306.384853811001	"19"	6059.900838679	6054.633547942	1.5	0.1
0.01	1	0.00205936700058373	1	91	NA	318.945726633	0	0.35	3.19	1	306.615204244	306.617263611	"19"	6059.900838679	6054.633547942	1.5	0.1
0.01	1	0.0477245259999108	1	91	NA	318.945726633	0	0.35	3.19	1	306.848817210001	306.896541736	"19"	6059.900838679	6054.633547942	1.5	0.1
0.01	1	0.00455033999969601	1	91	NA	318.945726633	0	0.35	3.19	1	307.132664125001	307.137214465	"19"	6059.900838679	6054.633547942	1.5	0.1
0.01	1	0.066393011999935	1	91	NA	318.945726633	0	0.35	3.19	1	307.36633744	307.432730452	"19"	6059.900838679	6054.633547942	1.5	0.1
0.01	1	0.00401161799982219	1	91	NA	318.945726633	0	0.35	3.19	1	307.666888055001	307.670899673	"19"	6059.900838679	6054.633547942	1.5	0.1
0.01	1	0.0682021450002139	1	91	NA	318.945726633	0	0.35	3.19	1	307.90069733	307.968899475	"19"	6059.900838679	6054.633547942	1.5	0.1
0.01	1	0.0951498969998283	1	91	NA	318.945726633	0	0.35	3.19	1	308.201072477001	308.296222374001	"19"	6059.900838679	6054.633547942	1.5	0.1
0.01	1	0.0900301860001491	1	91	NA	318.945726633	0	0.35	3.19	1	308.51827233	308.608302516001	"19"	6059.900838679	6054.633547942	1.5	0.1
0.01	1	0.0040176930006055	1	91	NA	318.945726633	0	0.35	3.19	1	308.83560673	308.839624423001	"19"	6059.900838679	6054.633547942	1.5	0.1
0.01	1	0.219662352999876	1	91	NA	318.945726633	0	0.35	3.19	1	309.069218132	309.288880485	"19"	6059.900838679	6054.633547942	1.5	0.1
0.01	1	0.0952456169998186	1	91	NA	318.945726633	0	0.35	3.19	1	309.51997884	309.615224457	"19"	6059.900838679	6054.633547942	1.5	0.1
0.01	1	0.0902350490005119	1	91	NA	318.945726633	0	0.35	3.19	1	309.837141754	309.927376803001	"19"	6059.900838679	6054.633547942	1.5	0.1
0.01	1	0.124587410000458	1	91	NA	318.945726633	0	0.35	3.19	1	310.154321295	310.278908705001	"19"	6059.900838679	6054.633547942	1.5	0.1
0.01	1	0.102915995999865	1	91	NA	318.945726633	0	0.35	3.19	1	310.505154747	310.608070743	"19"	6059.900838679	6054.633547942	1.5	0.1
0.01	1	0.129630894999536	1	91	NA	318.945726633	0	0.35	3.19	1	310.838860180001	310.968491075	"19"	6059.900838679	6054.633547942	1.5	0.1
0.01	1	0.154607968999699	1	91	NA	318.945726633	0	0.35	3.19	1	311.206152515	311.360760484	"19"	6059.900838679	6054.633547942	1.5	0.1
0.01	1	0.424922750000405	1	91	NA	318.945726633	0	0.35	3.19	1	311.590154055	312.015076805001	"19"	6059.900838679	6054.633547942	1.5	0.1
0.01	1	0.495037997000509	1	91	NA	318.945726633	0	0.35	3.19	1	312.241299847	312.736337844	"19"	6059.900838679	6054.633547942	1.5	0.1
0.01	1	0.360954587999913	1	91	NA	318.945726633	0	0.35	3.19	1	312.959175297	313.320129885	"19"	6059.900838679	6054.633547942	1.5	0.1
0.01	1	0.265391031000036	1	91	NA	318.945726633	0	0.35	3.19	1	313.543383532	313.808774563	"19"	6059.900838679	6054.633547942	1.5	0.1
0.01	1	0.228512669999873	1	91	NA	318.945726633	0	0.35	3.19	1	314.044202970001	314.272715640001	"19"	6059.900838679	6054.633547942	1.5	0.1
0.01	1	0.201276065999991	1	91	NA	318.945726633	0	0.35	3.19	1	314.495143887	314.696419953	"19"	6059.900838679	6054.633547942	1.5	0.1
0.01	1	0.359172943999511	1	91	NA	318.945726633	0	0.35	3.19	1	314.929073167001	315.288246111	"19"	6059.900838679	6054.633547942	1.5	0.1
0.01	1	0.422854100000222	1	91	NA	318.945726633	0	0.35	3.19	1	315.51344617	315.93630027	"19"	6059.900838679	6054.633547942	1.5	0.1
0.01	1	0.332339067999783	1	91	NA	318.945726633	0	0.35	3.19	1	316.164550582001	316.49688965	"19"	6059.900838679	6054.633547942	1.5	0.1
0.01	1	0.299901767999472	1	91	NA	318.945726633	0	0.35	3.19	1	316.732113620001	317.032015388	"19"	6059.900838679	6054.633547942	1.5	0.1
0.01	1	0.589221500000349	1	91	NA	318.945726633	0	0.35	3.19	1	317.26631782	317.85553932	"19"	6059.900838679	6054.633547942	1.5	0.1
0.01	1	0.859692977000122	2	91	NA	318.945726633	0	0.35	3.19	1	318.084419147001	318.944112124001	"19"	6059.900838679	6054.633547942	1.5	0.1
0.01	1	0.35504870800014	1	5	322.411421322	NA	1	0	3.19	1	320.989330453001	321.344379161001	"20"	6059.900838679	6054.633547942	1.5	0.1
0.01	1	0.0190800640002635	1	5	322.411421322	NA	1	0	3.19	1	321.573582262	321.592662326	"20"	6059.900838679	6054.633547942	1.5	0.1
0.01	1	0.00432952299979661	1	5	322.411421322	NA	1	0	3.19	1	321.824018437001	321.82834796	"20"	6059.900838679	6054.633547942	1.5	0.1
0.01	1	0.00400446500043472	1	5	322.411421322	NA	1	0	3.19	1	322.05780158	322.061806045001	"20"	6059.900838679	6054.633547942	1.5	0.1
0.01	1	0.00385863300016354	1	5	322.411421322	NA	1	0	3.19	1	322.291458632	322.295317265	"20"	6059.900838679	6054.633547942	1.5	0.1
0.01	1	0.561952533999829	1	123	NA	340.049780471	0	0.28	3.47	1	324.461794485001	325.023747019	"21"	6059.900838679	6054.633547942	1.5	0.1
0.01	1	0.0494654530002663	1	123	NA	340.049780471	0	0.28	3.47	1	325.263097655	325.312563108	"21"	6059.900838679	6054.633547942	1.5	0.1
0.01	1	0.0132113700001355	1	123	NA	340.049780471	0	0.28	3.47	1	325.546999432	325.560210802	"21"	6059.900838679	6054.633547942	1.5	0.1
0.01	1	0.0264159580001433	1	123	NA	340.049780471	0	0.28	3.47	1	325.797434685001	325.823850643001	"21"	6059.900838679	6054.633547942	1.5	0.1
0.01	1	0.0565442769993751	1	123	NA	340.049780471	0	0.28	3.47	1	326.047879342001	326.104423619	"21"	6059.900838679	6054.633547942	1.5	0.1
0.01	1	0.0525013200003741	1	123	NA	340.049780471	0	0.28	3.47	1	326.331585887	326.384087207	"21"	6059.900838679	6054.633547942	1.5	0.1
0.01	1	0.0963158130007287	1	123	NA	340.049780471	0	0.28	3.47	1	326.615464775	326.711780588001	"21"	6059.900838679	6054.633547942	1.5	0.1
0.01	1	0.0827518790001704	1	123	NA	340.049780471	0	0.28	3.47	1	326.949391215	327.032143094	"21"	6059.900838679	6054.633547942	1.5	0.1
0.01	1	0.126349000999653	1	123	NA	340.049780471	0	0.28	3.47	1	327.266565482	327.392914483	"21"	6059.900838679	6054.633547942	1.5	0.1
0.01	1	0.134073039999748	1	123	NA	340.049780471	0	0.28	3.47	1	327.617143225	327.751216265	"21"	6059.900838679	6054.633547942	1.5	0.1
0.01	1	0.135152832000131	1	123	NA	340.049780471	0	0.28	3.47	1	327.984408025	328.119560857001	"21"	6059.900838679	6054.633547942	1.5	0.1
0.01	1	0.128230315999645	1	123	NA	340.049780471	0	0.28	3.47	1	328.351696600001	328.479926916	"21"	6059.900838679	6054.633547942	1.5	0.1
0.01	1	0.130327447000127	1	123	NA	340.049780471	0	0.28	3.47	1	328.702276347	328.832603794001	"21"	6059.900838679	6054.633547942	1.5	0.1
0.01	1	0.146088600999974	1	123	NA	340.049780471	0	0.28	3.47	1	329.069590062	329.215678663	"21"	6059.900838679	6054.633547942	1.5	0.1
0.01	1	0.138128524000422	1	123	NA	340.049780471	0	0.28	3.47	1	329.453578425	329.591706949001	"21"	6059.900838679	6054.633547942	1.5	0.1
0.01	1	0.21222504600064	1	123	NA	340.049780471	0	0.28	3.47	1	329.820809707	330.033034753001	"21"	6059.900838679	6054.633547942	1.5	0.1
0.01	1	0.240520457999992	1	123	NA	340.049780471	0	0.28	3.47	1	330.271598555	330.512119013	"21"	6059.900838679	6054.633547942	1.5	0.1
0.01	1	0.213045923000209	1	123	NA	340.049780471	0	0.28	3.47	1	330.73910303	330.952148953001	"21"	6059.900838679	6054.633547942	1.5	0.1
0.01	1	0.225290977999975	1	123	NA	340.049780471	0	0.28	3.47	1	331.189790942	331.41508192	"21"	6059.900838679	6054.633547942	1.5	0.1
0.01	1	0.680103396999584	1	123	NA	340.049780471	0	0.28	3.47	1	331.640480714001	332.320584111	"21"	6059.900838679	6054.633547942	1.5	0.1
0.01	1	0.33737623199977	1	123	NA	340.049780471	0	0.28	3.47	1	332.558715385	332.896091617	"21"	6059.900838679	6054.633547942	1.5	0.1
0.01	1	0.201522679999471	1	123	NA	340.049780471	0	0.28	3.47	1	333.126469942001	333.327992622	"21"	6059.900838679	6054.633547942	1.5	0.1
0.01	1	0.382890705999671	1	123	NA	340.049780471	0	0.28	3.47	1	333.560426683001	333.943317389	"21"	6059.900838679	6054.633547942	1.5	0.1
0.01	1	0.670683419999477	1	123	NA	340.049780471	0	0.28	3.47	1	334.178096842001	334.848780262	"21"	6059.900838679	6054.633547942	1.5	0.1
0.01	1	0.721234852000634	1	123	NA	340.049780471	0	0.28	3.47	1	335.07970493	335.800939782001	"21"	6059.900838679	6054.633547942	1.5	0.1
0.01	1	1.24951801499992	1	123	NA	340.049780471	0	0.28	3.47	1	336.031309645	337.28082766	"21"	6059.900838679	6054.633547942	1.5	0.1
0.01	1	0.73870700200041	1	123	NA	340.049780471	0	0.28	3.47	1	337.51711437	338.255821372	"21"	6059.900838679	6054.633547942	1.5	0.1
0.01	1	0.738507056999879	1	123	NA	340.049780471	0	0.28	3.47	1	338.485430727001	339.223937784001	"21"	6059.900838679	6054.633547942	1.5	0.1
0.01	1	0.594495348000237	2	123	NA	340.049780471	0	0.28	3.47	1	339.453740215	340.048235563	"21"	6059.900838679	6054.633547942	1.5	0.1
0.01	1	0.268275518999872	1	81	NA	357.728853143	0	0.32	3.79	1	342.091434811	342.35971033	"22"	6059.900838679	6054.633547942	1.5	0.1
0.01	1	0.0325571739995212	1	81	NA	357.728853143	0	0.32	3.79	1	342.592287545001	342.624844719	"22"	6059.900838679	6054.633547942	1.5	0.1
0.01	1	0.00375340499977028	1	81	NA	357.728853143	0	0.32	3.79	1	342.859508542	342.863261947	"22"	6059.900838679	6054.633547942	1.5	0.1
0.01	1	0.00449819000004936	1	81	NA	357.728853143	0	0.32	3.79	1	343.0932983	343.09779649	"22"	6059.900838679	6054.633547942	1.5	0.1
0.01	1	0.00374521300000197	1	81	NA	357.728853143	0	0.32	3.79	1	343.32688176	343.330626973	"22"	6059.900838679	6054.633547942	1.5	0.1
0.01	1	0.00429342300049029	1	81	NA	357.728853143	0	0.32	3.79	1	343.560561667	343.56485509	"22"	6059.900838679	6054.633547942	1.5	0.1
0.01	1	0.00387339999997494	1	81	NA	357.728853143	0	0.32	3.79	1	343.794406905	343.798280305	"22"	6059.900838679	6054.633547942	1.5	0.1
0.01	1	0.00205722099963168	1	81	NA	357.728853143	0	0.32	3.79	1	344.027983239001	344.03004046	"22"	6059.900838679	6054.633547942	1.5	0.1
0.01	1	0.0340107570000328	1	81	NA	357.728853143	0	0.32	3.79	1	344.26172168	344.295732437	"22"	6059.900838679	6054.633547942	1.5	0.1
0.01	1	0.118344099999376	1	81	NA	357.728853143	0	0.32	3.79	1	344.528858887001	344.647202987	"22"	6059.900838679	6054.633547942	1.5	0.1
0.01	1	0.0732265779997761	1	81	NA	357.728853143	0	0.32	3.79	1	344.879464395	344.952690973	"22"	6059.900838679	6054.633547942	1.5	0.1
0.01	1	0.0838236230001712	1	81	NA	357.728853143	0	0.32	3.79	1	345.17998889	345.263812513001	"22"	6059.900838679	6054.633547942	1.5	0.1
0.01	1	0.133939542999542	1	81	NA	357.728853143	0	0.32	3.79	1	345.497225525	345.631165068	"22"	6059.900838679	6054.633547942	1.5	0.1
0.01	1	0.175480028000493	1	81	NA	357.728853143	0	0.32	3.79	1	345.864491692	346.039971720001	"22"	6059.900838679	6054.633547942	1.5	0.1
0.01	1	0.150137551000626	1	81	NA	357.728853143	0	0.32	3.79	1	346.265165242	346.415302793001	"22"	6059.900838679	6054.633547942	1.5	0.1
0.01	1	0.135354560999986	1	81	NA	357.728853143	0	0.32	3.79	1	346.649195575001	346.784550136001	"22"	6059.900838679	6054.633547942	1.5	0.1
0.01	1	0.158712018000188	1	81	NA	357.728853143	0	0.32	3.79	1	347.016562270001	347.175274288001	"22"	6059.900838679	6054.633547942	1.5	0.1
0.01	1	0.18409873300061	1	81	NA	357.728853143	0	0.32	3.79	1	347.40042815	347.584526883001	"22"	6059.900838679	6054.633547942	1.5	0.1
0.01	1	0.734187725000083	1	81	NA	357.728853143	0	0.32	3.79	1	347.817757705	348.55194543	"22"	6059.900838679	6054.633547942	1.5	0.1
0.01	1	0.24573142600002	1	81	NA	357.728853143	0	0.32	3.79	1	348.786137007	349.031868433	"22"	6059.900838679	6054.633547942	1.5	0.1
0.01	1	0.202365721000206	1	81	NA	357.728853143	0	0.32	3.79	1	349.270264122	349.472629843001	"22"	6059.900838679	6054.633547942	1.5	0.1
0.01	1	0.199098733000028	1	81	NA	357.728853143	0	0.32	3.79	1	349.704299712001	349.903398445001	"22"	6059.900838679	6054.633547942	1.5	0.1
0.01	1	0.414325998000095	1	81	NA	357.728853143	0	0.32	3.79	1	350.138390435	350.552716433001	"22"	6059.900838679	6054.633547942	1.5	0.1
0.01	1	0.38660279800024	1	81	NA	357.728853143	0	0.32	3.79	1	350.78941214	351.176014938001	"22"	6059.900838679	6054.633547942	1.5	0.1
0.01	1	0.385804242000631	1	81	NA	357.728853143	0	0.32	3.79	1	351.40712377	351.792928012001	"22"	6059.900838679	6054.633547942	1.5	0.1
0.01	1	0.470589544999712	1	81	NA	357.728853143	0	0.32	3.79	1	352.024947095	352.49553664	"22"	6059.900838679	6054.633547942	1.5	0.1
0.01	1	0.386360708000211	1	81	NA	357.728853143	0	0.32	3.79	1	352.725978085	353.112338793	"22"	6059.900838679	6054.633547942	1.5	0.1
0.01	1	0.487592478999431	1	81	NA	357.728853143	0	0.32	3.79	1	353.343819975001	353.831412454	"22"	6059.900838679	6054.633547942	1.5	0.1
0.01	1	0.466984653000509	1	81	NA	357.728853143	0	0.32	3.79	1	354.061574397	354.528559050001	"22"	6059.900838679	6054.633547942	1.5	0.1
0.01	1	0.653202659999806	1	81	NA	357.728853143	0	0.32	3.79	1	354.762784452	355.415987112	"22"	6059.900838679	6054.633547942	1.5	0.1
0.01	1	0.833081380000294	1	81	NA	357.728853143	0	0.32	3.79	1	355.647550065	356.480631445001	"22"	6059.900838679	6054.633547942	1.5	0.1
0.01	1	0.490883455000585	1	81	NA	357.728853143	0	0.32	3.79	1	356.716091227	357.206974682001	"22"	6059.900838679	6054.633547942	1.5	0.1
0.01	1	0.293396140999903	2	81	NA	357.728853143	0	0.32	3.79	1	357.433913007	357.727309148	"22"	6059.900838679	6054.633547942	1.5	0.1
0.01	1	0.308023663999847	1	117	NA	377.897555813001	0	0.4	4.19	1	359.771264427	360.079288091	"23"	6059.900838679	6054.633547942	1.5	0.1
0.01	1	0.0231703890003701	1	117	NA	377.897555813001	0	0.4	4.19	1	360.30546194	360.328632329	"23"	6059.900838679	6054.633547942	1.5	0.1
0.01	1	0.00198819199977152	1	117	NA	377.897555813001	0	0.4	4.19	1	360.555839481	360.557827673	"23"	6059.900838679	6054.633547942	1.5	0.1
0.01	1	0.00219490700055758	1	117	NA	377.897555813001	0	0.4	4.19	1	360.789592012	360.791786919001	"23"	6059.900838679	6054.633547942	1.5	0.1
0.01	1	0.00211791200035805	1	117	NA	377.897555813001	0	0.4	4.19	1	361.023382638	361.02550055	"23"	6059.900838679	6054.633547942	1.5	0.1
0.01	1	0.135195337999903	1	117	NA	377.897555813001	0	0.4	4.19	1	361.256970662001	361.392166000001	"23"	6059.900838679	6054.633547942	1.5	0.1
0.01	1	0.119231462999778	1	117	NA	377.897555813001	0	0.4	4.19	1	361.624414737001	361.743646200001	"23"	6059.900838679	6054.633547942	1.5	0.1
0.01	1	0.272173409000061	1	117	NA	377.897555813001	0	0.4	4.19	1	361.974856067	362.247029476001	"23"	6059.900838679	6054.633547942	1.5	0.1
0.01	1	0.0674762110002121	1	117	NA	377.897555813001	0	0.4	4.19	1	362.475728	362.543204211001	"23"	6059.900838679	6054.633547942	1.5	0.1
0.01	1	0.0957425669994336	1	117	NA	377.897555813001	0	0.4	4.19	1	362.776339155001	362.872081722	"23"	6059.900838679	6054.633547942	1.5	0.1
0.01	1	0.0666843560002235	1	117	NA	377.897555813001	0	0.4	4.19	1	363.093433227	363.160117583	"23"	6059.900838679	6054.633547942	1.5	0.1
0.01	1	0.0776002359998529	1	117	NA	377.897555813001	0	0.4	4.19	1	363.393945307001	363.471545543001	"23"	6059.900838679	6054.633547942	1.5	0.1
0.01	1	0.0478713419997803	1	117	NA	377.897555813001	0	0.4	4.19	1	363.71127356	363.759144902	"23"	6059.900838679	6054.633547942	1.5	0.1
0.01	1	0.0694439330000023	1	117	NA	377.897555813001	0	0.4	4.19	1	363.995034795001	364.064478728001	"23"	6059.900838679	6054.633547942	1.5	0.1
0.01	1	0.0886188280001079	1	117	NA	377.897555813001	0	0.4	4.19	1	364.295461667	364.384080495	"23"	6059.900838679	6054.633547942	1.5	0.1
0.01	1	0.122164225999768	1	117	NA	377.897555813001	0	0.4	4.19	1	364.612756014	364.73492024	"23"	6059.900838679	6054.633547942	1.5	0.1
0.01	1	0.109032957999261	1	117	NA	377.897555813001	0	0.4	4.19	1	364.963336512001	365.07236947	"23"	6059.900838679	6054.633547942	1.5	0.1
0.01	1	0.0699168080000163	1	117	NA	377.897555813001	0	0.4	4.19	1	365.297182255001	365.367099063001	"23"	6059.900838679	6054.633547942	1.5	0.1
0.01	1	0.105342412000027	1	117	NA	377.897555813001	0	0.4	4.19	1	365.597762905	365.703105317	"23"	6059.900838679	6054.633547942	1.5	0.1
0.01	1	0.100826091000272	1	117	NA	377.897555813001	0	0.4	4.19	1	365.93158363	366.032409721	"23"	6059.900838679	6054.633547942	1.5	0.1
0.01	1	0.0869441029999507	1	117	NA	377.897555813001	0	0.4	4.19	1	366.265469885	366.352413988	"23"	6059.900838679	6054.633547942	1.5	0.1
0.01	1	0.104651091000051	1	117	NA	377.897555813001	0	0.4	4.19	1	366.58278005	366.687431141	"23"	6059.900838679	6054.633547942	1.5	0.1
0.01	1	0.0905149609998261	1	117	NA	377.897555813001	0	0.4	4.19	1	366.916625155	367.007140116	"23"	6059.900838679	6054.633547942	1.5	0.1
0.01	1	0.142355893000058	1	117	NA	377.897555813001	0	0.4	4.19	1	367.233823647	367.376179540001	"23"	6059.900838679	6054.633547942	1.5	0.1
0.01	1	0.22202592999929	1	117	NA	377.897555813001	0	0.4	4.19	1	367.601047630001	367.82307356	"23"	6059.900838679	6054.633547942	1.5	0.1
0.01	1	0.189044485000522	1	117	NA	377.897555813001	0	0.4	4.19	1	368.051734982	368.240779467001	"23"	6059.900838679	6054.633547942	1.5	0.1
0.01	1	0.274282348999805	1	117	NA	377.897555813001	0	0.4	4.19	1	368.469248625001	368.743530974	"23"	6059.900838679	6054.633547942	1.5	0.1
0.01	1	0.278700865000246	1	117	NA	377.897555813001	0	0.4	4.19	1	368.970008592	369.248709457001	"23"	6059.900838679	6054.633547942	1.5	0.1
0.01	1	0.337155418999828	1	117	NA	377.897555813001	0	0.4	4.19	1	369.487579065	369.824734484	"23"	6059.900838679	6054.633547942	1.5	0.1
0.01	1	0.321243991000301	1	117	NA	377.897555813001	0	0.4	4.19	1	370.05523127	370.376475261	"23"	6059.900838679	6054.633547942	1.5	0.1
0.01	1	0.345698706999428	1	117	NA	377.897555813001	0	0.4	4.19	1	370.606061025001	370.951759732	"23"	6059.900838679	6054.633547942	1.5	0.1
0.01	1	0.290661516	1	117	NA	377.897555813001	0	0.4	4.19	1	371.173700555	371.464362071	"23"	6059.900838679	6054.633547942	1.5	0.1
0.01	1	0.317285563999576	1	117	NA	377.897555813001	0	0.4	4.19	1	371.691222097001	372.008507661	"23"	6059.900838679	6054.633547942	1.5	0.1
0.01	1	0.317647025000042	1	117	NA	377.897555813001	0	0.4	4.19	1	372.242287725	372.55993475	"23"	6059.900838679	6054.633547942	1.5	0.1
0.01	1	0.317869377999159	1	117	NA	377.897555813001	0	0.4	4.19	1	372.793101124001	373.110970502	"23"	6059.900838679	6054.633547942	1.5	0.1
0.01	1	0.480490881999685	1	117	NA	377.897555813001	0	0.4	4.19	1	373.344120462	373.824611344	"23"	6059.900838679	6054.633547942	1.5	0.1
0.01	1	1.16095157499967	1	117	NA	377.897555813001	0	0.4	4.19	1	374.061959905001	375.22291148	"23"	6059.900838679	6054.633547942	1.5	0.1
0.01	1	0.552815195999756	1	117	NA	377.897555813001	0	0.4	4.19	1	375.447569087	376.000384283	"23"	6059.900838679	6054.633547942	1.5	0.1
0.01	1	0.383236589999797	1	117	NA	377.897555813001	0	0.4	4.19	1	376.232295632	376.615532222	"23"	6059.900838679	6054.633547942	1.5	0.1
0.01	1	0.469377289000477	1	117	NA	377.897555813001	0	0.4	4.19	1	376.849974085	377.319351374001	"23"	6059.900838679	6054.633547942	1.5	0.1
0.01	1	0.344730881000032	2	117	NA	377.897555813001	0	0.4	4.19	1	377.551203815	377.895934696	"23"	6059.900838679	6054.633547942	1.5	0.1
0.01	1	0.397316257999591	1	84	NA	402.394349082	0	0.44	4.63	1	379.938451800001	380.335768058	"24"	6059.900838679	6054.633547942	1.5	0.1
0.01	1	0.154927685000075	1	84	NA	402.394349082	0	0.44	4.63	1	380.572803781	380.727731466	"24"	6059.900838679	6054.633547942	1.5	0.1
0.01	1	0.131579449999663	1	84	NA	402.394349082	0	0.44	4.63	1	380.956853442	381.088432892	"24"	6059.900838679	6054.633547942	1.5	0.1
0.01	1	0.124015215000327	1	84	NA	402.394349082	0	0.44	4.63	1	381.324112755	381.44812797	"24"	6059.900838679	6054.633547942	1.5	0.1
0.01	1	0.181261155999891	1	84	NA	402.394349082	0	0.44	4.63	1	381.674801970001	381.856063126001	"24"	6059.900838679	6054.633547942	1.5	0.1
0.01	1	0.163538849999895	1	84	NA	402.394349082	0	0.44	4.63	1	382.092068937	382.255607787	"24"	6059.900838679	6054.633547942	1.5	0.1
0.01	1	0.171601961000306	1	84	NA	402.394349082	0	0.44	4.63	1	382.492767152	382.664369113	"24"	6059.900838679	6054.633547942	1.5	0.1
0.01	1	0.185404462999941	1	84	NA	402.394349082	0	0.44	4.63	1	382.893568	383.078972463	"24"	6059.900838679	6054.633547942	1.5	0.1
0.01	1	0.201624883000477	1	84	NA	402.394349082	0	0.44	4.63	1	383.31086711	383.512491993	"24"	6059.900838679	6054.633547942	1.5	0.1
0.01	1	0.150831081999968	1	84	NA	402.394349082	0	0.44	4.63	1	383.744858692	383.895689774	"24"	6059.900838679	6054.633547942	1.5	0.1
0.01	1	0.175927557999785	1	84	NA	402.394349082	0	0.44	4.63	1	384.128792635001	384.304720193	"24"	6059.900838679	6054.633547942	1.5	0.1
0.01	1	0.222788954999487	1	84	NA	402.394349082	0	0.44	4.63	1	384.529569887	384.752358842	"24"	6059.900838679	6054.633547942	1.5	0.1
0.01	1	0.235884961999545	1	84	NA	402.394349082	0	0.44	4.63	1	384.980193220001	385.216078182	"24"	6059.900838679	6054.633547942	1.5	0.1
0.01	1	0.224643231999835	1	84	NA	402.394349082	0	0.44	4.63	1	385.4478293	385.672472532	"24"	6059.900838679	6054.633547942	1.5	0.1
0.01	1	0.244410657000117	1	84	NA	402.394349082	0	0.44	4.63	1	385.89854333	386.142953987001	"24"	6059.900838679	6054.633547942	1.5	0.1
0.01	1	0.282801899999868	1	84	NA	402.394349082	0	0.44	4.63	1	386.365989145001	386.648791045001	"24"	6059.900838679	6054.633547942	1.5	0.1
0.01	1	0.236324163000063	1	84	NA	402.394349082	0	0.44	4.63	1	386.883498427001	387.119822590001	"24"	6059.900838679	6054.633547942	1.5	0.1
0.01	1	0.216635542999938	1	84	NA	402.394349082	0	0.44	4.63	1	387.350932004	387.567567547	"24"	6059.900838679	6054.633547942	1.5	0.1
0.01	1	0.253343170000335	1	84	NA	402.394349082	0	0.44	4.63	1	387.8016863	388.055029470001	"24"	6059.900838679	6054.633547942	1.5	0.1
0.01	1	0.25784425799975	1	84	NA	402.394349082	0	0.44	4.63	1	388.285823082	388.54366734	"24"	6059.900838679	6054.633547942	1.5	0.1
0.01	1	0.206170804999601	1	84	NA	402.394349082	0	0.44	4.63	1	388.770058165001	388.97622897	"24"	6059.900838679	6054.633547942	1.5	0.1
0.01	1	0.219689225000366	1	84	NA	402.394349082	0	0.44	4.63	1	389.204120722	389.423809947	"24"	6059.900838679	6054.633547942	1.5	0.1
0.01	1	0.224176646999695	1	84	NA	402.394349082	0	0.44	4.63	1	389.654828590001	389.879005237	"24"	6059.900838679	6054.633547942	1.5	0.1
0.01	1	0.230328929000279	1	84	NA	402.394349082	0	0.44	4.63	1	390.105638512	390.335967441	"24"	6059.900838679	6054.633547942	1.5	0.1
0.01	1	0.227091536999978	1	84	NA	402.394349082	0	0.44	4.63	1	390.57298255	390.800074087	"24"	6059.900838679	6054.633547942	1.5	0.1
0.01	1	0.248488555999756	1	84	NA	402.394349082	0	0.44	4.63	1	391.023768427001	391.272256983	"24"	6059.900838679	6054.633547942	1.5	0.1
0.01	1	0.203599759000099	1	84	NA	402.394349082	0	0.44	4.63	1	391.507981780001	391.711581539001	"24"	6059.900838679	6054.633547942	1.5	0.1
0.01	1	0.290564861000348	1	84	NA	402.394349082	0	0.44	4.63	1	391.942185015	392.232749876001	"24"	6059.900838679	6054.633547942	1.5	0.1
0.01	1	0.364892900000086	1	84	NA	402.394349082	0	0.44	4.63	1	392.459558977001	392.824451877001	"24"	6059.900838679	6054.633547942	1.5	0.1
0.01	1	0.332086535000599	1	84	NA	402.394349082	0	0.44	4.63	1	393.060461127	393.392547662001	"24"	6059.900838679	6054.633547942	1.5	0.1
0.01	1	0.315778787999989	1	84	NA	402.394349082	0	0.44	4.63	1	393.628163005001	393.943941793001	"24"	6059.900838679	6054.633547942	1.5	0.1
