"payoff.level"	"balloon"	"rt"	"resp"	"explode.trial"	"explode.time"	"finish.time"	"exploded"	"trial.total"	"cumulative.total"	"finished"	"trial.start"	"trial.end"	"trial.num"	"secs"	"start.time"	"iti"	"isi"
0.01	1	3.30539439400036	1	64	85.2025841639997	NA	1	0	0	1	0.0222736589994383	3.3276680529998	"1"	8419.910159414	8414.305514908	1.5	0.1
0.01	1	1.60236948800048	1	64	85.2025841639997	NA	1	0	0	1	3.69516767499954	5.29753716300002	"1"	8419.910159414	8414.305514908	1.5	0.1
0.01	1	1.2369755790005	1	64	85.2025841639997	NA	1	0	0	1	5.53151207699921	6.76848765599971	"1"	8419.910159414	8414.305514908	1.5	0.1
0.01	1	1.29690689700055	1	64	85.2025841639997	NA	1	0	0	1	7.00073782899926	8.29764472599982	"1"	8419.910159414	8414.305514908	1.5	0.1
0.01	1	1.32085385400023	1	64	85.2025841639997	NA	1	0	0	1	8.51985169499949	9.84070554899972	"1"	8419.910159414	8414.305514908	1.5	0.1
0.01	1	1.9451878939999	1	64	85.2025841639997	NA	1	0	0	1	10.0724805189993	12.0176684129992	"1"	8419.910159414	8414.305514908	1.5	0.1
0.01	1	1.39049729700037	1	64	85.2025841639997	NA	1	0	0	1	12.2428693679994	13.6333666649998	"1"	8419.910159414	8414.305514908	1.5	0.1
0.01	1	1.22678643800009	1	64	85.2025841639997	NA	1	0	0	1	13.8623385669998	15.0891250049999	"1"	8419.910159414	8414.305514908	1.5	0.1
0.01	1	1.06246574600027	1	64	85.2025841639997	NA	1	0	0	1	15.3146977329998	16.377163479	"1"	8419.910159414	8414.305514908	1.5	0.1
0.01	1	1.18376154700036	1	64	85.2025841639997	NA	1	0	0	1	16.6169180219995	17.8006795689998	"1"	8419.910159414	8414.305514908	1.5	0.1
0.01	1	1.26029343499977	1	64	85.2025841639997	NA	1	0	0	1	18.0358595979997	19.2961530329994	"1"	8419.910159414	8414.305514908	1.5	0.1
0.01	1	0.871748272000332	1	64	85.2025841639997	NA	1	0	0	1	19.5218270669993	20.3935753389997	"1"	8419.910159414	8414.305514908	1.5	0.1
0.01	1	0.928555763000077	1	64	85.2025841639997	NA	1	0	0	1	20.623596167	21.55215193	"1"	8419.910159414	8414.305514908	1.5	0.1
0.01	1	0.944301335000091	1	64	85.2025841639997	NA	1	0	0	1	21.7755303109998	22.7198316459999	"1"	8419.910159414	8414.305514908	1.5	0.1
0.01	1	1.02429316799953	1	64	85.2025841639997	NA	1	0	0	1	22.944240244	23.9685334119995	"1"	8419.910159414	8414.305514908	1.5	0.1
0.01	1	1.74785226799941	1	64	85.2025841639997	NA	1	0	0	1	24.1964683189999	25.9443205869993	"1"	8419.910159414	8414.305514908	1.5	0.1
0.01	1	1.31487406399992	1	64	85.2025841639997	NA	1	0	0	1	26.1829488069998	27.4978228709997	"1"	8419.910159414	8414.305514908	1.5	0.1
0.01	1	1.08142673899965	1	64	85.2025841639997	NA	1	0	0	1	27.7356646199996	28.8170913589993	"1"	8419.910159414	8414.305514908	1.5	0.1
0.01	1	1.13755045800008	1	64	85.2025841639997	NA	1	0	0	1	29.0544949329997	30.1920453909997	"1"	8419.910159414	8414.305514908	1.5	0.1
0.01	1	1.13643137100007	1	64	85.2025841639997	NA	1	0	0	1	30.4234405999996	31.5598719709997	"1"	8419.910159414	8414.305514908	1.5	0.1
0.01	1	1.0487639439998	1	64	85.2025841639997	NA	1	0	0	1	31.7923919929999	32.8411559369997	"1"	8419.910159414	8414.305514908	1.5	0.1
0.01	1	1.00334320999991	1	64	85.2025841639997	NA	1	0	0	1	33.0779180319996	34.0812612419995	"1"	8419.910159414	8414.305514908	1.5	0.1
0.01	1	1.10262228500051	1	64	85.2025841639997	NA	1	0	0	1	34.3134024209994	35.4160247059999	"1"	8419.910159414	8414.305514908	1.5	0.1
0.01	1	0.975396691999777	1	64	85.2025841639997	NA	1	0	0	1	35.6488418569998	36.6242385489995	"1"	8419.910159414	8414.305514908	1.5	0.1
0.01	1	1.15847089500039	1	64	85.2025841639997	NA	1	0	0	1	36.8510266159992	38.0094975109996	"1"	8419.910159414	8414.305514908	1.5	0.1
0.01	1	1.08423765499992	1	64	85.2025841639997	NA	1	0	0	1	38.2365692699996	39.3208069249995	"1"	8419.910159414	8414.305514908	1.5	0.1
0.01	1	0.973695595000208	1	64	85.2025841639997	NA	1	0	0	1	39.5554117279999	40.5291073230001	"1"	8419.910159414	8414.305514908	1.5	0.1
0.01	1	1.02821738200055	1	64	85.2025841639997	NA	1	0	0	1	40.7574448259993	41.7856622079998	"1"	8419.910159414	8414.305514908	1.5	0.1
0.01	1	0.904294568999831	1	64	85.2025841639997	NA	1	0	0	1	42.0095978469999	42.9138924159997	"1"	8419.910159414	8414.305514908	1.5	0.1
0.01	1	0.911415122000108	1	64	85.2025841639997	NA	1	0	0	1	43.1450152319994	44.0564303539995	"1"	8419.910159414	8414.305514908	1.5	0.1
0.01	1	0.929311195999617	1	64	85.2025841639997	NA	1	0	0	1	44.2800604479999	45.2093716439995	"1"	8419.910159414	8414.305514908	1.5	0.1
0.01	1	1.1280917009999	1	64	85.2025841639997	NA	1	0	0	1	45.4320935989999	46.5601852999998	"1"	8419.910159414	8414.305514908	1.5	0.1
0.01	1	0.855353785999796	1	64	85.2025841639997	NA	1	0	0	1	46.7843328279996	47.6396866139994	"1"	8419.910159414	8414.305514908	1.5	0.1
0.01	1	0.938867837000544	1	64	85.2025841639997	NA	1	0	0	1	47.8695499809992	48.8084178179997	"1"	8419.910159414	8414.305514908	1.5	0.1
0.01	1	0.994359075999455	1	64	85.2025841639997	NA	1	0	0	1	49.038152909	50.0325119849995	"1"	8419.910159414	8414.305514908	1.5	0.1
0.01	1	0.959268621999399	1	64	85.2025841639997	NA	1	0	0	1	50.256874271	51.2161428929994	"1"	8419.910159414	8414.305514908	1.5	0.1
0.01	1	0.933833342000071	1	64	85.2025841639997	NA	1	0	0	1	51.442172305	52.3760056470001	"1"	8419.910159414	8414.305514908	1.5	0.1
0.01	1	0.949889301999974	1	64	85.2025841639997	NA	1	0	0	1	52.6107663169996	53.5606556189996	"1"	8419.910159414	8414.305514908	1.5	0.1
0.01	1	0.876296550000006	1	64	85.2025841639997	NA	1	0	0	1	53.7961504899995	54.6724470399995	"1"	8419.910159414	8414.305514908	1.5	0.1
0.01	1	1.07122312499996	1	64	85.2025841639997	NA	1	0	0	1	54.8979386009996	55.9691617259996	"1"	8419.910159414	8414.305514908	1.5	0.1
0.01	1	1.02450842300004	1	64	85.2025841639997	NA	1	0	0	1	56.2001219559997	57.2246303789998	"1"	8419.910159414	8414.305514908	1.5	0.1
0.01	1	0.963380824000524	1	64	85.2025841639997	NA	1	0	0	1	57.4522180689992	58.4155988929997	"1"	8419.910159414	8414.305514908	1.5	0.1
0.01	1	1.06983873199988	1	64	85.2025841639997	NA	1	0	0	1	58.6376640589997	59.7075027909996	"1"	8419.910159414	8414.305514908	1.5	0.1
0.01	1	0.908034459999726	1	64	85.2025841639997	NA	1	0	0	1	59.9398306309995	60.8478650909992	"1"	8419.910159414	8414.305514908	1.5	0.1
0.01	1	0.98088639999969	1	64	85.2025841639997	NA	1	0	0	1	61.0750824159995	62.0559688159992	"1"	8419.910159414	8414.305514908	1.5	0.1
0.01	1	0.971306751999691	1	64	85.2025841639997	NA	1	0	0	1	62.293680281	63.2649870329997	"1"	8419.910159414	8414.305514908	1.5	0.1
0.01	1	0.977928676999909	1	64	85.2025841639997	NA	1	0	0	1	63.4958233889993	64.4737520659992	"1"	8419.910159414	8414.305514908	1.5	0.1
0.01	1	1.03877851800007	1	64	85.2025841639997	NA	1	0	0	1	64.6977881929997	65.7365667109998	"1"	8419.910159414	8414.305514908	1.5	0.1
0.01	1	0.929706869999791	1	64	85.2025841639997	NA	1	0	0	1	65.9666007859996	66.8963076559994	"1"	8419.910159414	8414.305514908	1.5	0.1
0.01	1	1.01053544000024	1	64	85.2025841639997	NA	1	0	0	1	67.1352188309993	68.1457542709995	"1"	8419.910159414	8414.305514908	1.5	0.1
0.01	1	0.8617026109996	1	64	85.2025841639997	NA	1	0	0	1	68.3705628509997	69.2322654619993	"1"	8419.910159414	8414.305514908	1.5	0.1
0.01	1	1.12918215299942	1	64	85.2025841639997	NA	1	0	0	1	69.455793821	70.5849759739995	"1"	8419.910159414	8414.305514908	1.5	0.1
0.01	1	1.04108702400026	1	64	85.2025841639997	NA	1	0	0	1	70.8247797939994	71.8658668179996	"1"	8419.910159414	8414.305514908	1.5	0.1
0.01	1	1.0215545559995	1	64	85.2025841639997	NA	1	0	0	1	72.093491738	73.1150462939995	"1"	8419.910159414	8414.305514908	1.5	0.1
0.01	1	0.967178765000426	1	64	85.2025841639997	NA	1	0	0	1	73.3456018709994	74.3127806359998	"1"	8419.910159414	8414.305514908	1.5	0.1
0.01	1	0.917848908999986	1	64	85.2025841639997	NA	1	0	0	1	74.5477074769997	75.4655563859997	"1"	8419.910159414	8414.305514908	1.5	0.1
0.01	1	1.10827701000017	1	64	85.2025841639997	NA	1	0	0	1	75.6996495959993	76.8079266059995	"1"	8419.910159414	8414.305514908	1.5	0.1
0.01	1	0.982120444000429	1	64	85.2025841639997	NA	1	0	0	1	77.0351922249993	78.0173126689997	"1"	8419.910159414	8414.305514908	1.5	0.1
0.01	1	0.921857639999871	1	64	85.2025841639997	NA	1	0	0	1	78.2539383859994	79.1757960259993	"1"	8419.910159414	8414.305514908	1.5	0.1
0.01	1	0.899004246000004	1	64	85.2025841639997	NA	1	0	0	1	79.4058343829993	80.3048386289993	"1"	8419.910159414	8414.305514908	1.5	0.1
0.01	1	1.05075084600048	1	64	85.2025841639997	NA	1	0	0	1	80.5410792739995	81.5918301199999	"1"	8419.910159414	8414.305514908	1.5	0.1
0.01	1	0.895143534000454	1	64	85.2025841639997	NA	1	0	0	1	81.8266297759992	82.7217733099997	"1"	8419.910159414	8414.305514908	1.5	0.1
0.01	1	1.01555689300039	1	64	85.2025841639997	NA	1	0	0	1	82.9452113029993	83.9607681959997	"1"	8419.910159414	8414.305514908	1.5	0.1
0.01	1	0.883879252999577	1	64	85.2025841639997	NA	1	0	0	1	84.1973729929996	85.0812522459992	"1"	8419.910159414	8414.305514908	1.5	0.1
0.01	1	0.796946082999966	1	119	NA	137.546725841999	0	0.5	0.5	1	87.2524333599995	88.0493794429995	"2"	8419.910159414	8414.305514908	1.5	0.1
0.01	1	0.880773264000709	1	119	NA	137.546725841999	0	0.5	0.5	1	88.2873961789992	89.1681694429999	"2"	8419.910159414	8414.305514908	1.5	0.1
0.01	1	0.889881227999467	1	119	NA	137.546725841999	0	0.5	0.5	1	89.406039251	90.2959204789995	"2"	8419.910159414	8414.305514908	1.5	0.1
0.01	1	0.870133625000562	1	119	NA	137.546725841999	0	0.5	0.5	1	90.5245685309992	91.3947021559998	"2"	8419.910159414	8414.305514908	1.5	0.1
0.01	1	0.821755140000278	1	119	NA	137.546725841999	0	0.5	0.5	1	91.6264098659994	92.4481650059997	"2"	8419.910159414	8414.305514908	1.5	0.1
0.01	1	0.898706940000011	1	119	NA	137.546725841999	0	0.5	0.5	1	92.6781410589992	93.5768479989993	"2"	8419.910159414	8414.305514908	1.5	0.1
0.01	1	0.812525014999665	1	119	NA	137.546725841999	0	0.5	0.5	1	93.8134486139998	94.6259736289994	"2"	8419.910159414	8414.305514908	1.5	0.1
0.01	1	0.927616533000219	1	119	NA	137.546725841999	0	0.5	0.5	1	94.8651770429997	95.7927935759999	"2"	8419.910159414	8414.305514908	1.5	0.1
0.01	1	0.863212924999971	1	119	NA	137.546725841999	0	0.5	0.5	1	96.0171718349993	96.8803847599993	"2"	8419.910159414	8414.305514908	1.5	0.1
0.01	1	0.882699826000135	1	119	NA	137.546725841999	0	0.5	0.5	1	97.1024257509998	97.985125577	"2"	8419.910159414	8414.305514908	1.5	0.1
0.01	1	0.788843760000418	1	119	NA	137.546725841999	0	0.5	0.5	1	98.2208260499992	99.0096698099997	"2"	8419.910159414	8414.305514908	1.5	0.1
0.01	1	0.856386030999602	1	119	NA	137.546725841999	0	0.5	0.5	1	99.2393044119999	100.095690443	"2"	8419.910159414	8414.305514908	1.5	0.1
0.01	1	0.80514416799997	1	119	NA	137.546725841999	0	0.5	0.5	1	100.324345114999	101.129489282999	"2"	8419.910159414	8414.305514908	1.5	0.1
0.01	1	0.864286677999189	1	119	NA	137.546725841999	0	0.5	0.5	1	101.359385576	102.223672253999	"2"	8419.910159414	8414.305514908	1.5	0.1
0.01	1	0.811967872000423	1	119	NA	137.546725841999	0	0.5	0.5	1	102.461296813	103.273264685	"2"	8419.910159414	8414.305514908	1.5	0.1
0.01	1	0.761208795999664	1	119	NA	137.546725841999	0	0.5	0.5	1	103.49629665	104.257505445999	"2"	8419.910159414	8414.305514908	1.5	0.1
0.01	1	0.831293377999827	1	119	NA	137.546725841999	0	0.5	0.5	1	104.498109953	105.329403330999	"2"	8419.910159414	8414.305514908	1.5	0.1
0.01	1	0.83390837800016	1	119	NA	137.546725841999	0	0.5	0.5	1	105.566576904999	106.400485282999	"2"	8419.910159414	8414.305514908	1.5	0.1
0.01	1	0.796905014000004	1	119	NA	137.546725841999	0	0.5	0.5	1	106.634925034999	107.431830048999	"2"	8419.910159414	8414.305514908	1.5	0.1
0.01	1	0.835801213000195	1	119	NA	137.546725841999	0	0.5	0.5	1	107.670006302999	108.505807516	"2"	8419.910159414	8414.305514908	1.5	0.1
0.01	1	0.629734674999781	1	119	NA	137.546725841999	0	0.5	0.5	1	108.738494386	109.368229061	"2"	8419.910159414	8414.305514908	1.5	0.1
0.01	1	0.746671851000428	1	119	NA	137.546725841999	0	0.5	0.5	1	109.606643450999	110.353315302	"2"	8419.910159414	8414.305514908	1.5	0.1
0.01	1	0.760622592999425	1	119	NA	137.546725841999	0	0.5	0.5	1	110.591711282	111.352333874999	"2"	8419.910159414	8414.305514908	1.5	0.1
0.01	1	0.75176519300021	1	119	NA	137.546725841999	0	0.5	0.5	1	111.57667522	112.328440413	"2"	8419.910159414	8414.305514908	1.5	0.1
0.01	1	0.74240425500011	1	119	NA	137.546725841999	0	0.5	0.5	1	112.561680624	113.304084879	"2"	8419.910159414	8414.305514908	1.5	0.1
0.01	1	0.782841551000274	1	119	NA	137.546725841999	0	0.5	0.5	1	113.529942964999	114.312784516	"2"	8419.910159414	8414.305514908	1.5	0.1
0.01	1	0.804787577999377	1	119	NA	137.546725841999	0	0.5	0.5	1	114.548276171	115.353063748999	"2"	8419.910159414	8414.305514908	1.5	0.1
0.01	1	0.744561782000346	1	119	NA	137.546725841999	0	0.5	0.5	1	115.583330154	116.327891936	"2"	8419.910159414	8414.305514908	1.5	0.1
0.01	1	0.777751134000027	1	119	NA	137.546725841999	0	0.5	0.5	1	116.551801815	117.329552949	"2"	8419.910159414	8414.305514908	1.5	0.1
0.01	1	0.766833444999975	1	119	NA	137.546725841999	0	0.5	0.5	1	117.570057948999	118.336891393999	"2"	8419.910159414	8414.305514908	1.5	0.1
0.01	1	0.73281779700028	1	119	NA	137.546725841999	0	0.5	0.5	1	118.571679827	119.304497624	"2"	8419.910159414	8414.305514908	1.5	0.1
0.01	1	0.677118756999334	1	119	NA	137.546725841999	0	0.5	0.5	1	119.540053406	120.217172162999	"2"	8419.910159414	8414.305514908	1.5	0.1
0.01	1	0.639625351999712	1	119	NA	137.546725841999	0	0.5	0.5	1	120.458179701	121.097805052999	"2"	8419.910159414	8414.305514908	1.5	0.1
0.01	1	0.673444015999848	1	119	NA	137.546725841999	0	0.5	0.5	1	121.326344038	121.999788054	"2"	8419.910159414	8414.305514908	1.5	0.1
0.01	1	0.774421721999715	1	119	NA	137.546725841999	0	0.5	0.5	1	122.227873534	123.002295255999	"2"	8419.910159414	8414.305514908	1.5	0.1
0.01	1	0.723835492999569	1	119	NA	137.546725841999	0	0.5	0.5	1	123.229575204	123.953410697	"2"	8419.910159414	8414.305514908	1.5	0.1
0.01	1	0.627862338999876	1	119	NA	137.546725841999	0	0.5	0.5	1	124.181228396999	124.809090735999	"2"	8419.910159414	8414.305514908	1.5	0.1
0.01	1	0.663983372000075	1	119	NA	137.546725841999	0	0.5	0.5	1	125.049332168999	125.713315540999	"2"	8419.910159414	8414.305514908	1.5	0.1
0.01	1	0.689482758999475	1	119	NA	137.546725841999	0	0.5	0.5	1	125.950849897	126.640332655999	"2"	8419.910159414	8414.305514908	1.5	0.1
0.01	1	0.739331070999469	1	119	NA	137.546725841999	0	0.5	0.5	1	126.868946615	127.608277685999	"2"	8419.910159414	8414.305514908	1.5	0.1
0.01	1	0.595949255999585	1	119	NA	137.546725841999	0	0.5	0.5	1	127.837320275	128.433269530999	"2"	8419.910159414	8414.305514908	1.5	0.1
0.01	1	0.568144224000207	1	119	NA	137.546725841999	0	0.5	0.5	1	128.672065182	129.240209406	"2"	8419.910159414	8414.305514908	1.5	0.1
0.01	1	0.680192797999553	1	119	NA	137.546725841999	0	0.5	0.5	1	129.47339038	130.153583177999	"2"	8419.910159414	8414.305514908	1.5	0.1
0.01	1	0.73606812899925	1	119	NA	137.546725841999	0	0.5	0.5	1	130.391630647	131.127698775999	"2"	8419.910159414	8414.305514908	1.5	0.1
0.01	1	0.705938111999785	1	119	NA	137.546725841999	0	0.5	0.5	1	131.359869016	132.065807128	"2"	8419.910159414	8414.305514908	1.5	0.1
0.01	1	0.633454411999992	1	119	NA	137.546725841999	0	0.5	0.5	1	132.294876866999	132.928331278999	"2"	8419.910159414	8414.305514908	1.5	0.1
0.01	1	0.734456655000031	1	119	NA	137.546725841999	0	0.5	0.5	1	133.162990377	133.897447032	"2"	8419.910159414	8414.305514908	1.5	0.1
0.01	1	0.686417826000252	1	119	NA	137.546725841999	0	0.5	0.5	1	134.131219604999	134.817637431	"2"	8419.910159414	8414.305514908	1.5	0.1
0.01	1	0.751072181999916	1	119	NA	137.546725841999	0	0.5	0.5	1	135.049411045999	135.800483227999	"2"	8419.910159414	8414.305514908	1.5	0.1
0.01	1	0.725359187000322	1	119	NA	137.546725841999	0	0.5	0.5	1	136.034552407999	136.759911595	"2"	8419.910159414	8414.305514908	1.5	0.1
0.01	1	0.55901642400022	2	119	NA	137.546725841999	0	0.5	0.5	1	136.985984036	137.54500046	"2"	8419.910159414	8414.305514908	1.5	0.1
0.01	1	0.571264545999838	1	34	170.228446911	NA	1	0	0.5	1	139.590424849	140.161689394999	"3"	8419.910159414	8414.305514908	1.5	0.1
0.01	1	0.736718794999433	1	34	170.228446911	NA	1	0	0.5	1	140.3918544	141.128573194999	"3"	8419.910159414	8414.305514908	1.5	0.1
0.01	1	0.62363555399952	1	34	170.228446911	NA	1	0	0.5	1	141.360057569	141.983693122999	"3"	8419.910159414	8414.305514908	1.5	0.1
0.01	1	0.660933915999522	1	34	170.228446911	NA	1	0	0.5	1	142.211477797	142.872411713	"3"	8419.910159414	8414.305514908	1.5	0.1
0.01	1	0.601248795999709	1	34	170.228446911	NA	1	0	0.5	1	143.096355573	143.697604368999	"3"	8419.910159414	8414.305514908	1.5	0.1
0.01	1	0.588834420000239	1	34	170.228446911	NA	1	0	0.5	1	143.931090405999	144.519924826	"3"	8419.910159414	8414.305514908	1.5	0.1
0.01	1	0.564790370000082	1	34	170.228446911	NA	1	0	0.5	1	144.749128605999	145.313918976	"3"	8419.910159414	8414.305514908	1.5	0.1
0.01	1	0.587246608999521	1	34	170.228446911	NA	1	0	0.5	1	145.550500169	146.137746777999	"3"	8419.910159414	8414.305514908	1.5	0.1
0.01	1	0.640073307999955	1	34	170.228446911	NA	1	0	0.5	1	146.368505726	147.008579034	"3"	8419.910159414	8414.305514908	1.5	0.1
0.01	1	0.749029917999906	1	34	170.228446911	NA	1	0	0.5	1	147.236592114999	147.985622032999	"3"	8419.910159414	8414.305514908	1.5	0.1
0.01	1	0.613566469999569	1	34	170.228446911	NA	1	0	0.5	1	148.221607805	148.835174274999	"3"	8419.910159414	8414.305514908	1.5	0.1
0.01	1	0.649737840999478	1	34	170.228446911	NA	1	0	0.5	1	149.0565188	149.706256641	"3"	8419.910159414	8414.305514908	1.5	0.1
0.01	1	0.732415626000147	1	34	170.228446911	NA	1	0	0.5	1	149.941117891	150.673533517	"3"	8419.910159414	8414.305514908	1.5	0.1
0.01	1	0.621666785999878	1	34	170.228446911	NA	1	0	0.5	1	150.909435371	151.531102157	"3"	8419.910159414	8414.305514908	1.5	0.1
0.01	1	0.592672215999301	1	34	170.228446911	NA	1	0	0.5	1	151.7609862	152.353658415999	"3"	8419.910159414	8414.305514908	1.5	0.1
0.01	1	0.694427630000064	1	34	170.228446911	NA	1	0	0.5	1	152.578933477999	153.273361107999	"3"	8419.910159414	8414.305514908	1.5	0.1
0.01	1	0.702382672000567	1	34	170.228446911	NA	1	0	0.5	1	153.513790329999	154.216173002	"3"	8419.910159414	8414.305514908	1.5	0.1
0.01	1	0.631868719000522	1	34	170.228446911	NA	1	0	0.5	1	154.448715705999	155.080584425	"3"	8419.910159414	8414.305514908	1.5	0.1
0.01	1	0.788677323999764	1	34	170.228446911	NA	1	0	0.5	1	155.316886431	156.105563755	"3"	8419.910159414	8414.305514908	1.5	0.1
0.01	1	0.681441693000124	1	34	170.228446911	NA	1	0	0.5	1	156.335306341	157.016748034	"3"	8419.910159414	8414.305514908	1.5	0.1
0.01	1	0.708219262999592	1	34	170.228446911	NA	1	0	0.5	1	157.253411946	157.961631208999	"3"	8419.910159414	8414.305514908	1.5	0.1
0.01	1	0.619688007999684	1	34	170.228446911	NA	1	0	0.5	1	158.188494581	158.808182588999	"3"	8419.910159414	8414.305514908	1.5	0.1
0.01	1	0.680989262000367	1	34	170.228446911	NA	1	0	0.5	1	159.039787559999	159.720776822	"3"	8419.910159414	8414.305514908	1.5	0.1
0.01	1	0.682220936000704	1	34	170.228446911	NA	1	0	0.5	1	159.958076059999	160.640296996	"3"	8419.910159414	8414.305514908	1.5	0.1
0.01	1	0.709261332999631	1	34	170.228446911	NA	1	0	0.5	1	160.876220036	161.585481368999	"3"	8419.910159414	8414.305514908	1.5	0.1
0.01	1	0.660846435000167	1	34	170.228446911	NA	1	0	0.5	1	161.811409346	162.472255781	"3"	8419.910159414	8414.305514908	1.5	0.1
0.01	1	0.816634567000619	1	34	170.228446911	NA	1	0	0.5	1	162.695965878999	163.512600446	"3"	8419.910159414	8414.305514908	1.5	0.1
0.01	1	0.61289400699934	1	34	170.228446911	NA	1	0	0.5	1	163.7479002	164.360794206999	"3"	8419.910159414	8414.305514908	1.5	0.1
0.01	1	0.746577816000354	1	34	170.228446911	NA	1	0	0.5	1	164.58246309	165.329040906	"3"	8419.910159414	8414.305514908	1.5	0.1
0.01	1	0.801124128999618	1	34	170.228446911	NA	1	0	0.5	1	165.550813936	166.351938065	"3"	8419.910159414	8414.305514908	1.5	0.1
0.01	1	0.647648015999948	1	34	170.228446911	NA	1	0	0.5	1	166.585873065999	167.233521081999	"3"	8419.910159414	8414.305514908	1.5	0.1
0.01	1	0.78841898599967	1	34	170.228446911	NA	1	0	0.5	1	167.470724002	168.259142987999	"3"	8419.910159414	8414.305514908	1.5	0.1
0.01	1	0.679340630999832	1	34	170.228446911	NA	1	0	0.5	1	168.489001774	169.168342405	"3"	8419.910159414	8414.305514908	1.5	0.1
0.01	1	0.715608126000006	1	34	170.228446911	NA	1	0	0.5	1	169.39047072	170.106078846	"3"	8419.910159414	8414.305514908	1.5	0.1
0.01	1	0.779441957999552	1	24	193.032241311	NA	1	0	0.5	1	172.262051588	173.041493545999	"4"	8419.910159414	8414.305514908	1.5	0.1
0.01	1	0.583590017999995	1	24	193.032241311	NA	1	0	0.5	1	173.28046036	173.864050378	"4"	8419.910159414	8414.305514908	1.5	0.1
0.01	1	0.645880449999822	1	24	193.032241311	NA	1	0	0.5	1	174.098549963	174.744430412999	"4"	8419.910159414	8414.305514908	1.5	0.1
0.01	1	0.611728529999709	1	24	193.032241311	NA	1	0	0.5	1	174.966548506	175.578277035999	"4"	8419.910159414	8414.305514908	1.5	0.1
0.01	1	0.583508521999647	1	24	193.032241311	NA	1	0	0.5	1	175.801276519	176.384785040999	"4"	8419.910159414	8414.305514908	1.5	0.1
0.01	1	0.572611559000507	1	24	193.032241311	NA	1	0	0.5	1	176.619472148999	177.192083708	"4"	8419.910159414	8414.305514908	1.5	0.1
0.01	1	0.587509224000314	1	24	193.032241311	NA	1	0	0.5	1	177.420721639	178.008230863	"4"	8419.910159414	8414.305514908	1.5	0.1
0.01	1	0.545490092999898	1	24	193.032241311	NA	1	0	0.5	1	178.238721483	178.784211576	"4"	8419.910159414	8414.305514908	1.5	0.1
0.01	1	0.586587626000437	1	24	193.032241311	NA	1	0	0.5	1	179.006786622999	179.593374249	"4"	8419.910159414	8414.305514908	1.5	0.1
0.01	1	0.60883286599983	1	24	193.032241311	NA	1	0	0.5	1	179.824881695	180.433714561	"4"	8419.910159414	8414.305514908	1.5	0.1
0.01	1	0.668495564000295	1	24	193.032241311	NA	1	0	0.5	1	180.659452792999	181.327948357	"4"	8419.910159414	8414.305514908	1.5	0.1
0.01	1	0.631213296999704	1	24	193.032241311	NA	1	0	0.5	1	181.561041679	182.192254975999	"4"	8419.910159414	8414.305514908	1.5	0.1
0.01	1	0.531952160999936	1	24	193.032241311	NA	1	0	0.5	1	182.429176735	182.961128896	"4"	8419.910159414	8414.305514908	1.5	0.1
0.01	1	0.668184761000703	1	24	193.032241311	NA	1	0	0.5	1	183.197117082999	183.865301844	"4"	8419.910159414	8414.305514908	1.5	0.1
0.01	1	0.662957395999911	1	24	193.032241311	NA	1	0	0.5	1	184.098687199999	184.761644595999	"4"	8419.910159414	8414.305514908	1.5	0.1
0.01	1	0.576936908999414	1	24	193.032241311	NA	1	0	0.5	1	184.983503267	185.560440175999	"4"	8419.910159414	8414.305514908	1.5	0.1
0.01	1	0.702915673000462	1	24	193.032241311	NA	1	0	0.5	1	185.784803115999	186.487718789	"4"	8419.910159414	8414.305514908	1.5	0.1
0.01	1	0.591940424000313	1	24	193.032241311	NA	1	0	0.5	1	186.719705717999	187.311646142	"4"	8419.910159414	8414.305514908	1.5	0.1
0.01	1	0.672689115999674	1	24	193.032241311	NA	1	0	0.5	1	187.53773297	188.210422085999	"4"	8419.910159414	8414.305514908	1.5	0.1
0.01	1	0.698160498999641	1	24	193.032241311	NA	1	0	0.5	1	188.439238243	189.137398741999	"4"	8419.910159414	8414.305514908	1.5	0.1
0.01	1	0.626648477999879	1	24	193.032241311	NA	1	0	0.5	1	189.374184406	190.000832883999	"4"	8419.910159414	8414.305514908	1.5	0.1
0.01	1	0.791621495999607	1	24	193.032241311	NA	1	0	0.5	1	190.225639667	191.017261163	"4"	8419.910159414	8414.305514908	1.5	0.1
0.01	1	0.773779545999787	1	24	193.032241311	NA	1	0	0.5	1	191.244009743	192.017789289	"4"	8419.910159414	8414.305514908	1.5	0.1
0.01	1	0.666836039000373	1	24	193.032241311	NA	1	0	0.5	1	192.245734966999	192.912571006	"4"	8419.910159414	8414.305514908	1.5	0.1
0.01	1	0.444506513000306	1	22	213.416363353	NA	1	0	0.5	1	195.083693396999	195.52819991	"5"	8419.910159414	8414.305514908	1.5	0.1
0.01	1	0.60038813600022	1	22	213.416363353	NA	1	0	0.5	1	195.768187019999	196.368575156	"5"	8419.910159414	8414.305514908	1.5	0.1
0.01	1	0.54126149700005	1	22	213.416363353	NA	1	0	0.5	1	196.602941796999	197.144203293999	"5"	8419.910159414	8414.305514908	1.5	0.1
0.01	1	0.606463014999463	1	22	213.416363353	NA	1	0	0.5	1	197.370912587	197.977375601999	"5"	8419.910159414	8414.305514908	1.5	0.1
0.01	1	0.554563560000133	1	22	213.416363353	NA	1	0	0.5	1	198.205739968999	198.760303528999	"5"	8419.910159414	8414.305514908	1.5	0.1
0.01	1	0.60344591699959	1	22	213.416363353	NA	1	0	0.5	1	198.990277156	199.593723073	"5"	8419.910159414	8414.305514908	1.5	0.1
0.01	1	0.655852218999826	1	22	213.416363353	NA	1	0	0.5	1	199.825008582	200.480860801	"5"	8419.910159414	8414.305514908	1.5	0.1
0.01	1	0.627000735000365	1	22	213.416363353	NA	1	0	0.5	1	200.709814870999	201.336815606	"5"	8419.910159414	8414.305514908	1.5	0.1
0.01	1	0.518943598000078	1	22	213.416363353	NA	1	0	0.5	1	201.561234625	202.080178223	"5"	8419.910159414	8414.305514908	1.5	0.1
0.01	1	0.577197411999805	1	22	213.416363353	NA	1	0	0.5	1	202.312587939	202.889785351	"5"	8419.910159414	8414.305514908	1.5	0.1
0.01	1	0.609019005999471	1	22	213.416363353	NA	1	0	0.5	1	203.113920963	203.722939969	"5"	8419.910159414	8414.305514908	1.5	0.1
0.01	1	0.581568077999691	1	22	213.416363353	NA	1	0	0.5	1	203.948599531	204.530167608999	"5"	8419.910159414	8414.305514908	1.5	0.1
0.01	1	0.635329174000617	1	22	213.416363353	NA	1	0	0.5	1	204.766717488999	205.402046663	"5"	8419.910159414	8414.305514908	1.5	0.1
0.01	1	0.550266846999875	1	22	213.416363353	NA	1	0	0.5	1	205.634767228	206.185034075	"5"	8419.910159414	8414.305514908	1.5	0.1
0.01	1	0.67070540199984	1	22	213.416363353	NA	1	0	0.5	1	206.419478641	207.090184043	"5"	8419.910159414	8414.305514908	1.5	0.1
0.01	1	0.648760994999975	1	22	213.416363353	NA	1	0	0.5	1	207.320965342	207.969726337	"5"	8419.910159414	8414.305514908	1.5	0.1
0.01	1	0.658733946999746	1	22	213.416363353	NA	1	0	0.5	1	208.205774825	208.864508772	"5"	8419.910159414	8414.305514908	1.5	0.1
0.01	1	0.629069709999385	1	22	213.416363353	NA	1	0	0.5	1	209.090727672	209.719797381999	"5"	8419.910159414	8414.305514908	1.5	0.1
0.01	1	0.682263355000032	1	22	213.416363353	NA	1	0	0.5	1	209.958704076	210.640967431	"5"	8419.910159414	8414.305514908	1.5	0.1
0.01	1	0.787463644000127	1	22	213.416363353	NA	1	0	0.5	1	210.876948839	211.664412483	"5"	8419.910159414	8414.305514908	1.5	0.1
0.01	1	0.576793788000032	1	22	213.416363353	NA	1	0	0.5	1	211.895312043	212.472105831	"5"	8419.910159414	8414.305514908	1.5	0.1
0.01	1	0.608875414000067	1	22	213.416363353	NA	1	0	0.5	1	212.696621609	213.305497023	"5"	8419.910159414	8414.305514908	1.5	0.1
0.01	1	0.47813210700042	1	78	NA	240.179305174999	0	0.25	0.75	1	215.467975852999	215.94610796	"6"	8419.910159414	8414.305514908	1.5	0.1
0.01	1	0.432148460000462	1	78	NA	240.179305174999	0	0.25	0.75	1	216.185903176	216.618051636	"6"	8419.910159414	8414.305514908	1.5	0.1
0.01	1	0.555946184999812	1	78	NA	240.179305174999	0	0.25	0.75	1	216.853703881	217.409650066	"6"	8419.910159414	8414.305514908	1.5	0.1
0.01	1	0.546868723999978	1	78	NA	240.179305174999	0	0.25	0.75	1	217.638313818999	218.185182542999	"6"	8419.910159414	8414.305514908	1.5	0.1
0.01	1	0.539462016000471	1	78	NA	240.179305174999	0	0.25	0.75	1	218.422950552999	218.962412569	"6"	8419.910159414	8414.305514908	1.5	0.1
0.01	1	0.587160834000315	1	78	NA	240.179305174999	0	0.25	0.75	1	219.190955622999	219.778116457	"6"	8419.910159414	8414.305514908	1.5	0.1
0.01	1	0.584473639999487	1	78	NA	240.179305174999	0	0.25	0.75	1	220.009042996	220.593516636	"6"	8419.910159414	8414.305514908	1.5	0.1
0.01	1	0.636840586000289	1	78	NA	240.179305174999	0	0.25	0.75	1	220.827064642999	221.463905228999	"6"	8419.910159414	8414.305514908	1.5	0.1
0.01	1	0.69667323900012	1	78	NA	240.179305174999	0	0.25	0.75	1	221.695205329	222.391878568	"6"	8419.910159414	8414.305514908	1.5	0.1
0.01	1	0.604068212999664	1	78	NA	240.179305174999	0	0.25	0.75	1	222.613349016	223.217417229	"6"	8419.910159414	8414.305514908	1.5	0.1
0.01	1	0.593734786000823	1	78	NA	240.179305174999	0	0.25	0.75	1	223.448138952999	224.041873739	"6"	8419.910159414	8414.305514908	1.5	0.1
0.01	1	0.726293912999608	1	78	NA	240.179305174999	0	0.25	0.75	1	224.2660919	224.992385813	"6"	8419.910159414	8414.305514908	1.5	0.1
0.01	1	0.679425211999842	1	78	NA	240.179305174999	0	0.25	0.75	1	225.217751538999	225.897176750999	"6"	8419.910159414	8414.305514908	1.5	0.1
0.01	1	0.706071229000372	1	78	NA	240.179305174999	0	0.25	0.75	1	226.11927952	226.825350749	"6"	8419.910159414	8414.305514908	1.5	0.1
0.01	1	0.731378817999939	1	78	NA	240.179305174999	0	0.25	0.75	1	227.054169518	227.785548336	"6"	8419.910159414	8414.305514908	1.5	0.1
0.01	1	1.49768839799981	1	78	NA	240.179305174999	0	0.25	0.75	1	228.022554706999	229.520243104999	"6"	8419.910159414	8414.305514908	1.5	0.1
0.01	1	0.81900962599957	1	78	NA	240.179305174999	0	0.25	0.75	1	229.742068549	230.561078174999	"6"	8419.910159414	8414.305514908	1.5	0.1
0.01	1	0.853998149999825	1	78	NA	240.179305174999	0	0.25	0.75	1	230.793792856	231.647791005999	"6"	8419.910159414	8414.305514908	1.5	0.1
0.01	1	0.769736180000109	1	78	NA	240.179305174999	0	0.25	0.75	1	231.878921828	232.648658008	"6"	8419.910159414	8414.305514908	1.5	0.1
0.01	1	0.727573056000438	1	78	NA	240.179305174999	0	0.25	0.75	1	232.880613777999	233.608186834	"6"	8419.910159414	8414.305514908	1.5	0.1
0.01	1	1.23357401300018	1	78	NA	240.179305174999	0	0.25	0.75	1	233.832283596	235.065857609	"6"	8419.910159414	8414.305514908	1.5	0.1
0.01	1	0.722819387000527	1	78	NA	240.179305174999	0	0.25	0.75	1	235.301351241999	236.024170629	"6"	8419.910159414	8414.305514908	1.5	0.1
0.01	1	0.740302039000198	1	78	NA	240.179305174999	0	0.25	0.75	1	236.253007085999	236.993309125	"6"	8419.910159414	8414.305514908	1.5	0.1
0.01	1	0.548092727000039	1	78	NA	240.179305174999	0	0.25	0.75	1	237.221299983	237.76939271	"6"	8419.910159414	8414.305514908	1.5	0.1
0.01	1	0.755735468000239	1	78	NA	240.179305174999	0	0.25	0.75	1	238.006026855	238.761762323	"6"	8419.910159414	8414.305514908	1.5	0.1
0.01	1	1.18676757899993	2	78	NA	240.179305174999	0	0.25	0.75	1	238.990958593999	240.177726172999	"6"	8419.910159414	8414.305514908	1.5	0.1
0.01	1	0.356394054000702	1	61	NA	291.673724659	0	0.51	1.26	1	242.212934204999	242.569328259	"7"	8419.910159414	8414.305514908	1.5	0.1
0.01	1	0.507201250000435	1	61	NA	291.673724659	0	0.51	1.26	1	242.797293205999	243.304494456	"7"	8419.910159414	8414.305514908	1.5	0.1
0.01	1	0.653072295999664	1	61	NA	291.673724659	0	0.51	1.26	1	243.531839224	244.184911519999	"7"	8419.910159414	8414.305514908	1.5	0.1
0.01	1	0.592350218999854	1	61	NA	291.673724659	0	0.51	1.26	1	244.41674147	245.009091688999	"7"	8419.910159414	8414.305514908	1.5	0.1
0.01	1	0.685574591999284	1	61	NA	291.673724659	0	0.51	1.26	1	245.234725491	245.920300082999	"7"	8419.910159414	8414.305514908	1.5	0.1
0.01	1	0.775718912000229	1	61	NA	291.673724659	0	0.51	1.26	1	246.152989675999	246.928708588	"7"	8419.910159414	8414.305514908	1.5	0.1
0.01	1	0.877168615999835	1	61	NA	291.673724659	0	0.51	1.26	1	247.15465072	248.031819336	"7"	8419.910159414	8414.305514908	1.5	0.1
0.01	1	0.887536911000097	1	61	NA	291.673724659	0	0.51	1.26	1	248.25647635	249.144013261	"7"	8419.910159414	8414.305514908	1.5	0.1
0.01	1	0.744571602999713	1	61	NA	291.673724659	0	0.51	1.26	1	249.375071359	250.119642961999	"7"	8419.910159414	8414.305514908	1.5	0.1
0.01	1	0.86528985699988	1	61	NA	291.673724659	0	0.51	1.26	1	250.343354871	251.208644728	"7"	8419.910159414	8414.305514908	1.5	0.1
0.01	1	0.636302955999781	1	61	NA	291.673724659	0	0.51	1.26	1	251.445112631	252.081415586999	"7"	8419.910159414	8414.305514908	1.5	0.1
0.01	1	0.886449791000814	1	61	NA	291.673724659	0	0.51	1.26	1	252.313312607999	253.199762399	"7"	8419.910159414	8414.305514908	1.5	0.1
0.01	1	0.728682801999639	1	61	NA	291.673724659	0	0.51	1.26	1	253.431844657	254.160527458999	"7"	8419.910159414	8414.305514908	1.5	0.1
0.01	1	0.721816006999688	1	61	NA	291.673724659	0	0.51	1.26	1	254.383489215	255.105305222	"7"	8419.910159414	8414.305514908	1.5	0.1
0.01	1	0.649018135000006	1	61	NA	291.673724659	0	0.51	1.26	1	255.335137888	255.984156023	"7"	8419.910159414	8414.305514908	1.5	0.1
0.01	1	0.726044418000129	1	61	NA	291.673724659	0	0.51	1.26	1	256.219942096	256.945986514	"7"	8419.910159414	8414.305514908	1.5	0.1
0.01	1	0.69271668500005	1	61	NA	291.673724659	0	0.51	1.26	1	257.171529153	257.864245838	"7"	8419.910159414	8414.305514908	1.5	0.1
0.01	1	0.702943926999978	1	61	NA	291.673724659	0	0.51	1.26	1	258.089712188999	258.792656115999	"7"	8419.910159414	8414.305514908	1.5	0.1
0.01	1	0.623454063000281	1	61	NA	291.673724659	0	0.51	1.26	1	259.024583533	259.648037596	"7"	8419.910159414	8414.305514908	1.5	0.1
0.01	1	0.683703331999823	1	61	NA	291.673724659	0	0.51	1.26	1	259.876017651	260.559720982999	"7"	8419.910159414	8414.305514908	1.5	0.1
0.01	1	0.63105075600015	1	61	NA	291.673724659	0	0.51	1.26	1	260.794181986	261.425232742	"7"	8419.910159414	8414.305514908	1.5	0.1
0.01	1	0.673602300000312	1	61	NA	291.673724659	0	0.51	1.26	1	261.662316026	262.335918326	"7"	8419.910159414	8414.305514908	1.5	0.1
0.01	1	0.661319021000054	1	61	NA	291.673724659	0	0.51	1.26	1	262.563907301	263.225226322	"7"	8419.910159414	8414.305514908	1.5	0.1
0.01	1	0.615462133000619	1	61	NA	291.673724659	0	0.51	1.26	1	263.465363359999	264.080825493	"7"	8419.910159414	8414.305514908	1.5	0.1
0.01	1	0.620153144000142	1	61	NA	291.673724659	0	0.51	1.26	1	264.316765101	264.936918245	"7"	8419.910159414	8414.305514908	1.5	0.1
0.01	1	0.599732227999993	1	61	NA	291.673724659	0	0.51	1.26	1	265.168303545	265.768035773	"7"	8419.910159414	8414.305514908	1.5	0.1
0.01	1	0.72664837100001	1	61	NA	291.673724659	0	0.51	1.26	1	266.002978642	266.729627013	"7"	8419.910159414	8414.305514908	1.5	0.1
0.01	1	0.629630665999684	1	61	NA	291.673724659	0	0.51	1.26	1	266.954595667	267.584226333	"7"	8419.910159414	8414.305514908	1.5	0.1
0.01	1	0.626806604000194	1	61	NA	291.673724659	0	0.51	1.26	1	267.822640431	268.449447035	"7"	8419.910159414	8414.305514908	1.5	0.1
0.01	1	0.663086130000011	1	61	NA	291.673724659	0	0.51	1.26	1	268.674335772999	269.337421902999	"7"	8419.910159414	8414.305514908	1.5	0.1
0.01	1	0.609853328999634	1	61	NA	291.673724659	0	0.51	1.26	1	269.575673607	270.185526935999	"7"	8419.910159414	8414.305514908	1.5	0.1
0.01	1	0.614672654999595	1	61	NA	291.673724659	0	0.51	1.26	1	270.410426396	271.025099050999	"7"	8419.910159414	8414.305514908	1.5	0.1
0.01	1	0.659430013000019	1	61	NA	291.673724659	0	0.51	1.26	1	271.261856292999	271.921286305999	"7"	8419.910159414	8414.305514908	1.5	0.1
0.01	1	1.6852688580002	1	61	NA	291.673724659	0	0.51	1.26	1	272.146675341	273.831944199	"7"	8419.910159414	8414.305514908	1.5	0.1
0.01	1	0.582410347999939	1	61	NA	291.673724659	0	0.51	1.26	1	274.066611165	274.649021513	"7"	8419.910159414	8414.305514908	1.5	0.1
0.01	1	0.651657911000257	1	61	NA	291.673724659	0	0.51	1.26	1	274.884541015	275.536198926	"7"	8419.910159414	8414.305514908	1.5	0.1
0.01	1	0.598825471999589	1	61	NA	291.673724659	0	0.51	1.26	1	275.769370061	276.368195532999	"7"	8419.910159414	8414.305514908	1.5	0.1
0.01	1	0.644793188999756	1	61	NA	291.673724659	0	0.51	1.26	1	276.604156294	277.248949483	"7"	8419.910159414	8414.305514908	1.5	0.1
0.01	1	0.642077379000511	1	61	NA	291.673724659	0	0.51	1.26	1	277.48894462	278.131021999	"7"	8419.910159414	8414.305514908	1.5	0.1
0.01	1	0.00258710399975826	1	61	NA	291.673724659	0	0.51	1.26	1	278.357077803	278.359664907	"7"	8419.910159414	8414.305514908	1.5	0.1
0.01	1	1.04264036400036	1	61	NA	291.673724659	0	0.51	1.26	1	278.590776804	279.633417168	"7"	8419.910159414	8414.305514908	1.5	0.1
0.01	1	1.22986289100027	1	61	NA	291.673724659	0	0.51	1.26	1	279.859561748	281.089424639	"7"	8419.910159414	8414.305514908	1.5	0.1
0.01	1	0.960487403000116	1	61	NA	291.673724659	0	0.51	1.26	1	281.328698677	282.28918608	"7"	8419.910159414	8414.305514908	1.5	0.1
0.01	1	0.846508071999779	1	61	NA	291.673724659	0	0.51	1.26	1	282.514083563	283.360591635	"7"	8419.910159414	8414.305514908	1.5	0.1
0.01	1	0.922761263000211	1	61	NA	291.673724659	0	0.51	1.26	1	283.582554918999	284.505316182	"7"	8419.910159414	8414.305514908	1.5	0.1
0.01	1	0.96205459399971	1	61	NA	291.673724659	0	0.51	1.26	1	284.734487768	285.696542361999	"7"	8419.910159414	8414.305514908	1.5	0.1
0.01	1	0.983959787999993	1	61	NA	291.673724659	0	0.51	1.26	1	285.93653532	286.920495108	"7"	8419.910159414	8414.305514908	1.5	0.1
0.01	1	0.789978534000511	1	61	NA	291.673724659	0	0.51	1.26	1	287.155123478999	287.945102013	"7"	8419.910159414	8414.305514908	1.5	0.1
0.01	1	0.851166356999784	1	61	NA	291.673724659	0	0.51	1.26	1	288.173535485	289.024701842	"7"	8419.910159414	8414.305514908	1.5	0.1
0.01	1	0.661539183999594	1	61	NA	291.673724659	0	0.51	1.26	1	289.25875249	289.920291674	"7"	8419.910159414	8414.305514908	1.5	0.1
0.01	1	0.867321095999614	1	61	NA	291.673724659	0	0.51	1.26	1	290.143569113	291.010890209	"7"	8419.910159414	8414.305514908	1.5	0.1
0.01	1	0.426773950000097	2	61	NA	291.673724659	0	0.51	1.26	1	291.245367639	291.672141589	"7"	8419.910159414	8414.305514908	1.5	0.1
0.01	1	0.541630877999523	1	39	NA	321.923304772999	0	0.3	1.56	1	293.716229631	294.257860508999	"8"	8419.910159414	8414.305514908	1.5	0.1
0.01	1	0.661468340999818	1	39	NA	321.923304772999	0	0.3	1.56	1	294.484208573	295.145676914	"8"	8419.910159414	8414.305514908	1.5	0.1
0.01	1	0.631610779999392	1	39	NA	321.923304772999	0	0.3	1.56	1	295.385722002	296.017332781999	"8"	8419.910159414	8414.305514908	1.5	0.1
0.01	1	0.843569528000444	1	39	NA	321.923304772999	0	0.3	1.56	1	296.253753567999	297.097323096	"8"	8419.910159414	8414.305514908	1.5	0.1
0.01	1	0.797606376999283	1	39	NA	321.923304772999	0	0.3	1.56	1	297.322260297	298.119866673999	"8"	8419.910159414	8414.305514908	1.5	0.1
0.01	1	0.68231244799972	1	39	NA	321.923304772999	0	0.3	1.56	1	298.357336048	299.039648495999	"8"	8419.910159414	8414.305514908	1.5	0.1
0.01	1	0.685592984999857	1	39	NA	321.923304772999	0	0.3	1.56	1	299.275584348999	299.961177333999	"8"	8419.910159414	8414.305514908	1.5	0.1
0.01	1	0.646687258999918	1	39	NA	321.923304772999	0	0.3	1.56	1	300.193763593	300.840450852	"8"	8419.910159414	8414.305514908	1.5	0.1
0.01	1	0.650785853000343	1	39	NA	321.923304772999	0	0.3	1.56	1	301.078612206999	301.72939806	"8"	8419.910159414	8414.305514908	1.5	0.1
0.01	1	0.676263465000375	1	39	NA	321.923304772999	0	0.3	1.56	1	301.963481964	302.639745429	"8"	8419.910159414	8414.305514908	1.5	0.1
0.01	1	0.584798191000118	1	39	NA	321.923304772999	0	0.3	1.56	1	302.864900836	303.449699027	"8"	8419.910159414	8414.305514908	1.5	0.1
0.01	1	0.661672206000731	1	39	NA	321.923304772999	0	0.3	1.56	1	303.682901509999	304.344573716	"8"	8419.910159414	8414.305514908	1.5	0.1
0.01	1	0.624498940000194	1	39	NA	321.923304772999	0	0.3	1.56	1	304.567861261999	305.192360202	"8"	8419.910159414	8414.305514908	1.5	0.1
0.01	1	0.596979795000152	1	39	NA	321.923304772999	0	0.3	1.56	1	305.419266911	306.016246706	"8"	8419.910159414	8414.305514908	1.5	0.1
0.01	1	0.603113076999762	1	39	NA	321.923304772999	0	0.3	1.56	1	306.253964185	306.857077262	"8"	8419.910159414	8414.305514908	1.5	0.1
0.01	1	0.632605634999891	1	39	NA	321.923304772999	0	0.3	1.56	1	307.08872457	307.721330205	"8"	8419.910159414	8414.305514908	1.5	0.1
0.01	1	0.596908965000694	1	39	NA	321.923304772999	0	0.3	1.56	1	307.956896260999	308.553805226	"8"	8419.910159414	8414.305514908	1.5	0.1
0.01	1	0.713844741000685	1	39	NA	321.923304772999	0	0.3	1.56	1	308.791590999999	309.505435741	"8"	8419.910159414	8414.305514908	1.5	0.1
0.01	1	0.713808146999327	1	39	NA	321.923304772999	0	0.3	1.56	1	309.743226912	310.457035058999	"8"	8419.910159414	8414.305514908	1.5	0.1
0.01	1	0.610046827000588	1	39	NA	321.923304772999	0	0.3	1.56	1	310.694755267999	311.304802095	"8"	8419.910159414	8414.305514908	1.5	0.1
0.01	1	0.59166113900028	1	39	NA	321.923304772999	0	0.3	1.56	1	311.529582255	312.121243394	"8"	8419.910159414	8414.305514908	1.5	0.1
0.01	1	0.629426110999702	1	39	NA	321.923304772999	0	0.3	1.56	1	312.347541998	312.976968108999	"8"	8419.910159414	8414.305514908	1.5	0.1
0.01	1	0.744730045000324	1	39	NA	321.923304772999	0	0.3	1.56	1	313.215615098999	313.960345144	"8"	8419.910159414	8414.305514908	1.5	0.1
0.01	1	0.705906471999697	1	39	NA	321.923304772999	0	0.3	1.56	1	314.183935133	314.889841605	"8"	8419.910159414	8414.305514908	1.5	0.1
0.01	1	0.665843677000339	1	39	NA	321.923304772999	0	0.3	1.56	1	315.118824216	315.784667893	"8"	8419.910159414	8414.305514908	1.5	0.1
0.01	1	0.643345467000472	1	39	NA	321.923304772999	0	0.3	1.56	1	316.020448380999	316.663793848	"8"	8419.910159414	8414.305514908	1.5	0.1
0.01	1	0.711524112999541	1	39	NA	321.923304772999	0	0.3	1.56	1	316.88861792	317.600142032999	"8"	8419.910159414	8414.305514908	1.5	0.1
0.01	1	0.650312958000541	1	39	NA	321.923304772999	0	0.3	1.56	1	317.823366807999	318.473679766	"8"	8419.910159414	8414.305514908	1.5	0.1
0.01	1	0.796768595000685	1	39	NA	321.923304772999	0	0.3	1.56	1	318.708299964999	319.50506856	"8"	8419.910159414	8414.305514908	1.5	0.1
0.01	1	0.722030904999883	1	39	NA	321.923304772999	0	0.3	1.56	1	319.743383231	320.465414136	"8"	8419.910159414	8414.305514908	1.5	0.1
0.01	1	1.22684109999955	2	39	NA	321.923304772999	0	0.3	1.56	1	320.694880919	321.921722018999	"8"	8419.910159414	8414.305514908	1.5	0.1
0.01	1	0.393559593999271	1	25	344.387955611	NA	1	0	1.56	1	323.967079217	324.360638810999	"9"	8419.910159414	8414.305514908	1.5	0.1
0.01	1	0.50313045799976	1	25	344.387955611	NA	1	0	1.56	1	324.601488706	325.104619164	"9"	8419.910159414	8414.305514908	1.5	0.1
0.01	1	0.51267382199967	1	25	344.387955611	NA	1	0	1.56	1	325.336078597	325.848752419	"9"	8419.910159414	8414.305514908	1.5	0.1
0.01	1	0.595101529000203	1	25	344.387955611	NA	1	0	1.56	1	326.070619550999	326.665721079999	"9"	8419.910159414	8414.305514908	1.5	0.1
0.01	1	0.584043128999838	1	25	344.387955611	NA	1	0	1.56	1	326.888717776	327.472760905	"9"	8419.910159414	8414.305514908	1.5	0.1
0.01	1	0.607192229000248	1	25	344.387955611	NA	1	0	1.56	1	327.706688265	328.313880494	"9"	8419.910159414	8414.305514908	1.5	0.1
0.01	1	0.538980149000054	1	25	344.387955611	NA	1	0	1.56	1	328.541389446999	329.080369595999	"9"	8419.910159414	8414.305514908	1.5	0.1
0.01	1	0.627238545999717	1	25	344.387955611	NA	1	0	1.56	1	329.309313488	329.936552034	"9"	8419.910159414	8414.305514908	1.5	0.1
0.01	1	0.751578649000294	1	25	344.387955611	NA	1	0	1.56	1	330.160885163999	330.912463813	"9"	8419.910159414	8414.305514908	1.5	0.1
0.01	1	0.616075844999614	1	25	344.387955611	NA	1	0	1.56	1	331.145814793	331.761890637999	"9"	8419.910159414	8414.305514908	1.5	0.1
0.01	1	0.620484414999737	1	25	344.387955611	NA	1	0	1.56	1	331.997227213	332.617711628	"9"	8419.910159414	8414.305514908	1.5	0.1
0.01	1	0.576749262000703	1	25	344.387955611	NA	1	0	1.56	1	332.848727285999	333.425476548	"9"	8419.910159414	8414.305514908	1.5	0.1
0.01	1	0.678147546000218	1	25	344.387955611	NA	1	0	1.56	1	333.650097481	334.328245027	"9"	8419.910159414	8414.305514908	1.5	0.1
0.01	1	0.576147562999722	1	25	344.387955611	NA	1	0	1.56	1	334.568272464	335.144420027	"9"	8419.910159414	8414.305514908	1.5	0.1
0.01	1	0.598548348999429	1	25	344.387955611	NA	1	0	1.56	1	335.369608563	335.968156911999	"9"	8419.910159414	8414.305514908	1.5	0.1
0.01	1	0.564774962000229	1	25	344.387955611	NA	1	0	1.56	1	336.204300826999	336.769075789	"9"	8419.910159414	8414.305514908	1.5	0.1
0.01	1	0.564057304000016	1	25	344.387955611	NA	1	0	1.56	1	337.005746825999	337.569804129999	"9"	8419.910159414	8414.305514908	1.5	0.1
0.01	1	0.665149823999855	1	25	344.387955611	NA	1	0	1.56	1	337.807104216	338.47225404	"9"	8419.910159414	8414.305514908	1.5	0.1
0.01	1	0.596451198000068	1	25	344.387955611	NA	1	0	1.56	1	338.708527344999	339.304978542999	"9"	8419.910159414	8414.305514908	1.5	0.1
0.01	1	0.61039097199955	1	25	344.387955611	NA	1	0	1.56	1	339.526596678	340.136987649999	"9"	8419.910159414	8414.305514908	1.5	0.1
0.01	1	0.616299153	1	25	344.387955611	NA	1	0	1.56	1	340.361283356	340.977582509	"9"	8419.910159414	8414.305514908	1.5	0.1
0.01	1	0.62745916699987	1	25	344.387955611	NA	1	0	1.56	1	341.212851069	341.840310236	"9"	8419.910159414	8414.305514908	1.5	0.1
0.01	1	0.608871176999855	1	25	344.387955611	NA	1	0	1.56	1	342.064218955	342.673090132	"9"	8419.910159414	8414.305514908	1.5	0.1
0.01	1	0.558017823000228	1	25	344.387955611	NA	1	0	1.56	1	342.898891436	343.456909259	"9"	8419.910159414	8414.305514908	1.5	0.1
0.01	1	0.58892604599987	1	25	344.387955611	NA	1	0	1.56	1	343.683646811	344.272572856999	"9"	8419.910159414	8414.305514908	1.5	0.1
0.01	1	0.418068351999864	1	27	NA	367.290379468	0	0.25	1.81	1	346.438383895999	346.856452247999	"10"	8419.910159414	8414.305514908	1.5	0.1
0.01	1	0.606273976000011	1	27	NA	367.290379468	0	0.25	1.81	1	347.089434638	347.695708614	"10"	8419.910159414	8414.305514908	1.5	0.1
0.01	1	0.629300241000237	1	27	NA	367.290379468	0	0.25	1.81	1	347.924145575999	348.553445817	"10"	8419.910159414	8414.305514908	1.5	0.1
0.01	1	0.536683336000351	1	27	NA	367.290379468	0	0.25	1.81	1	348.775489383	349.312172719	"10"	8419.910159414	8414.305514908	1.5	0.1
0.01	1	0.520254123999621	1	27	NA	367.290379468	0	0.25	1.81	1	349.543593541	350.063847664999	"10"	8419.910159414	8414.305514908	1.5	0.1
0.01	1	0.515107934999833	1	27	NA	367.290379468	0	0.25	1.81	1	350.294806510999	350.809914445999	"10"	8419.910159414	8414.305514908	1.5	0.1
0.01	1	0.530872462999469	1	27	NA	367.290379468	0	0.25	1.81	1	351.045981329	351.576853791999	"10"	8419.910159414	8414.305514908	1.5	0.1
0.01	1	0.570753849000539	1	27	NA	367.290379468	0	0.25	1.81	1	351.814017389999	352.384771239	"10"	8419.910159414	8414.305514908	1.5	0.1
0.01	1	0.513291279999976	1	27	NA	367.290379468	0	0.25	1.81	1	352.615275235999	353.128566515999	"10"	8419.910159414	8414.305514908	1.5	0.1
0.01	1	0.562106360000143	1	27	NA	367.290379468	0	0.25	1.81	1	353.366578689	353.928685049	"10"	8419.910159414	8414.305514908	1.5	0.1
0.01	1	0.529755083000055	1	27	NA	367.290379468	0	0.25	1.81	1	354.151390726	354.681145809	"10"	8419.910159414	8414.305514908	1.5	0.1
0.01	1	0.594400021999718	1	27	NA	367.290379468	0	0.25	1.81	1	354.919266768	355.51366679	"10"	8419.910159414	8414.305514908	1.5	0.1
0.01	1	0.638415174000329	1	27	NA	367.290379468	0	0.25	1.81	1	355.737263045999	356.37567822	"10"	8419.910159414	8414.305514908	1.5	0.1
0.01	1	0.652373160000025	1	27	NA	367.290379468	0	0.25	1.81	1	356.605367528	357.257740688	"10"	8419.910159414	8414.305514908	1.5	0.1
0.01	1	0.613947489000566	1	27	NA	367.290379468	0	0.25	1.81	1	357.490200505999	358.104147995	"10"	8419.910159414	8414.305514908	1.5	0.1
0.01	1	0.555154673000288	1	27	NA	367.290379468	0	0.25	1.81	1	358.341720795999	358.896875468999	"10"	8419.910159414	8414.305514908	1.5	0.1
0.01	1	0.665741500999502	1	27	NA	367.290379468	0	0.25	1.81	1	359.126340248	359.792081748999	"10"	8419.910159414	8414.305514908	1.5	0.1
0.01	1	0.661496730000181	1	27	NA	367.290379468	0	0.25	1.81	1	360.027831531	360.689328261	"10"	8419.910159414	8414.305514908	1.5	0.1
0.01	1	0.59101061399997	1	27	NA	367.290379468	0	0.25	1.81	1	360.929383150999	361.520393764999	"10"	8419.910159414	8414.305514908	1.5	0.1
0.01	1	0.605646967000212	1	27	NA	367.290379468	0	0.25	1.81	1	361.747394700999	362.353041668	"10"	8419.910159414	8414.305514908	1.5	0.1
0.01	1	0.571395967999706	1	27	NA	367.290379468	0	0.25	1.81	1	362.582104511	363.153500478999	"10"	8419.910159414	8414.305514908	1.5	0.1
0.01	1	0.665438381999593	1	27	NA	367.290379468	0	0.25	1.81	1	363.383522831	364.048961213	"10"	8419.910159414	8414.305514908	1.5	0.1
0.01	1	0.628783358999499	1	27	NA	367.290379468	0	0.25	1.81	1	364.284994611	364.91377797	"10"	8419.910159414	8414.305514908	1.5	0.1
0.01	1	0.632360022999819	1	27	NA	367.290379468	0	0.25	1.81	1	365.136383028	365.768743051	"10"	8419.910159414	8414.305514908	1.5	0.1
0.01	1	0.64483533099974	1	27	NA	367.290379468	0	0.25	1.81	1	366.004513911	366.649349242	"10"	8419.910159414	8414.305514908	1.5	0.1
0.01	1	0.416098392000094	2	27	NA	367.290379468	0	0.25	1.81	1	366.872675551	367.288773943	"10"	8419.910159414	8414.305514908	1.5	0.1
0.01	1	0.480822698000338	1	113	NA	426.946282595	0	0.6	2.41	1	369.343496740999	369.824319439	"11"	8419.910159414	8414.305514908	1.5	0.1
0.01	1	0.612111927999649	1	113	NA	426.946282595	0	0.6	2.41	1	370.061304886	370.673416813999	"11"	8419.910159414	8414.305514908	1.5	0.1
0.01	1	0.704779978999795	1	113	NA	426.946282595	0	0.6	2.41	1	370.896130757	371.600910736	"11"	8419.910159414	8414.305514908	1.5	0.1
0.01	1	0.441705258999718	1	113	NA	426.946282595	0	0.6	2.41	1	371.830989700999	372.272694959999	"11"	8419.910159414	8414.305514908	1.5	0.1
0.01	1	0.542907987000035	1	113	NA	426.946282595	0	0.6	2.41	1	372.498802321	373.041710308	"11"	8419.910159414	8414.305514908	1.5	0.1
0.01	1	0.629730130999633	1	113	NA	426.946282595	0	0.6	2.41	1	373.266795	373.896525130999	"11"	8419.910159414	8414.305514908	1.5	0.1
0.01	1	0.673523712000133	1	113	NA	426.946282595	0	0.6	2.41	1	374.134850570999	374.808374282999	"11"	8419.910159414	8414.305514908	1.5	0.1
0.01	1	0.572488214999794	1	113	NA	426.946282595	0	0.6	2.41	1	375.036465861	375.608954075999	"11"	8419.910159414	8414.305514908	1.5	0.1
0.01	1	0.586918283000159	1	113	NA	426.946282595	0	0.6	2.41	1	375.837769385999	376.424687668999	"11"	8419.910159414	8414.305514908	1.5	0.1
0.01	1	0.578068083999824	1	113	NA	426.946282595	0	0.6	2.41	1	376.655816946	377.233885029999	"11"	8419.910159414	8414.305514908	1.5	0.1
0.01	1	0.606452339000498	1	113	NA	426.946282595	0	0.6	2.41	1	377.473709331	378.08016167	"11"	8419.910159414	8414.305514908	1.5	0.1
0.01	1	0.62772741200024	1	113	NA	426.946282595	0	0.6	2.41	1	378.308653161	378.936380573	"11"	8419.910159414	8414.305514908	1.5	0.1
0.01	1	0.696182314999533	1	113	NA	426.946282595	0	0.6	2.41	1	379.159921533	379.856103847999	"11"	8419.910159414	8414.305514908	1.5	0.1
0.01	1	0.618826963999709	1	113	NA	426.946282595	0	0.6	2.41	1	380.078277476	380.69710444	"11"	8419.910159414	8414.305514908	1.5	0.1
0.01	1	0.662489779999305	1	113	NA	426.946282595	0	0.6	2.41	1	380.929667456	381.592157235999	"11"	8419.910159414	8414.305514908	1.5	0.1
0.01	1	0.658989765000115	1	113	NA	426.946282595	0	0.6	2.41	1	381.814472861	382.473462626	"11"	8419.910159414	8414.305514908	1.5	0.1
0.01	1	0.670183518000158	1	113	NA	426.946282595	0	0.6	2.41	1	382.699202411	383.369385929	"11"	8419.910159414	8414.305514908	1.5	0.1
0.01	1	0.631197270000484	1	113	NA	426.946282595	0	0.6	2.41	1	383.600744097999	384.231941368	"11"	8419.910159414	8414.305514908	1.5	0.1
0.01	1	0.451743458000237	1	113	NA	426.946282595	0	0.6	2.41	1	384.468967555999	384.920711014	"11"	8419.910159414	8414.305514908	1.5	0.1
0.01	1	0.694498040999861	1	113	NA	426.946282595	0	0.6	2.41	1	385.153422298	385.847920339	"11"	8419.910159414	8414.305514908	1.5	0.1
0.01	1	0.586140442999749	1	113	NA	426.946282595	0	0.6	2.41	1	386.071595848	386.657736290999	"11"	8419.910159414	8414.305514908	1.5	0.1
0.01	1	0.632125688000087	1	113	NA	426.946282595	0	0.6	2.41	1	386.889641471	387.521767159	"11"	8419.910159414	8414.305514908	1.5	0.1
0.01	1	0.618415531999744	1	113	NA	426.946282595	0	0.6	2.41	1	387.757763261	388.376178793	"11"	8419.910159414	8414.305514908	1.5	0.1
0.01	1	0.584399543000472	1	113	NA	426.946282595	0	0.6	2.41	1	388.609059695999	389.193459239	"11"	8419.910159414	8414.305514908	1.5	0.1
0.01	1	0.806407352999486	1	113	NA	426.946282595	0	0.6	2.41	1	389.427278458	390.233685810999	"11"	8419.910159414	8414.305514908	1.5	0.1
0.01	1	0.641575623999415	1	113	NA	426.946282595	0	0.6	2.41	1	390.462243276	391.103818899999	"11"	8419.910159414	8414.305514908	1.5	0.1
0.01	1	0.710336439999992	1	113	NA	426.946282595	0	0.6	2.41	1	391.330376053	392.040712493	"11"	8419.910159414	8414.305514908	1.5	0.1
0.01	1	0.735472127999856	1	113	NA	426.946282595	0	0.6	2.41	1	392.282040456999	393.017512584999	"11"	8419.910159414	8414.305514908	1.5	0.1
0.01	1	0.829910790000213	1	113	NA	426.946282595	0	0.6	2.41	1	393.250248132999	394.080158923	"11"	8419.910159414	8414.305514908	1.5	0.1
0.01	1	0.714106919999722	1	113	NA	426.946282595	0	0.6	2.41	1	394.318857763	395.032964683	"11"	8419.910159414	8414.305514908	1.5	0.1
0.01	1	2.05921376900005	1	113	NA	426.946282595	0	0.6	2.41	1	395.270488460999	397.329702229999	"11"	8419.910159414	8414.305514908	1.5	0.1
0.01	1	0.571530856000209	1	113	NA	426.946282595	0	0.6	2.41	1	397.557593240999	398.129124096999	"11"	8419.910159414	8414.305514908	1.5	0.1
0.01	1	0.625484932999825	1	113	NA	426.946282595	0	0.6	2.41	1	398.358955795999	398.984440728999	"11"	8419.910159414	8414.305514908	1.5	0.1
0.01	1	0.551462047999848	1	113	NA	426.946282595	0	0.6	2.41	1	399.210400421	399.761862468999	"11"	8419.910159414	8414.305514908	1.5	0.1
0.01	1	0.581978915000036	1	113	NA	426.946282595	0	0.6	2.41	1	399.994988398	400.576967313	"11"	8419.910159414	8414.305514908	1.5	0.1
0.01	1	0.748796538000533	1	113	NA	426.946282595	0	0.6	2.41	1	400.813068650999	401.561865189	"11"	8419.910159414	8414.305514908	1.5	0.1
0.01	1	0.60228365400053	1	113	NA	426.946282595	0	0.6	2.41	1	401.798072107999	402.400355762	"11"	8419.910159414	8414.305514908	1.5	0.1
0.01	1	0.63213503299994	1	113	NA	426.946282595	0	0.6	2.41	1	402.632670045999	403.264805078999	"11"	8419.910159414	8414.305514908	1.5	0.1
0.01	1	0.571675688000141	1	113	NA	426.946282595	0	0.6	2.41	1	403.500970937999	404.072646625999	"11"	8419.910159414	8414.305514908	1.5	0.1
0.01	1	0.601675956999316	1	113	NA	426.946282595	0	0.6	2.41	1	404.302276028	404.903951984999	"11"	8419.910159414	8414.305514908	1.5	0.1
0.01	1	0.542773060999934	1	113	NA	426.946282595	0	0.6	2.41	1	405.136917501	405.679690561999	"11"	8419.910159414	8414.305514908	1.5	0.1
0.01	1	0.551422122000076	1	113	NA	426.946282595	0	0.6	2.41	1	405.904901237999	406.456323359999	"11"	8419.910159414	8414.305514908	1.5	0.1
0.01	1	0.735711600999821	1	113	NA	426.946282595	0	0.6	2.41	1	406.689641296	407.425352896999	"11"	8419.910159414	8414.305514908	1.5	0.1
0.01	1	0.647285039999588	1	113	NA	426.946282595	0	0.6	2.41	1	407.657880051	408.305165090999	"11"	8419.910159414	8414.305514908	1.5	0.1
0.01	1	0.585700661000374	1	113	NA	426.946282595	0	0.6	2.41	1	408.542728052999	409.128428714	"11"	8419.910159414	8414.305514908	1.5	0.1
0.01	1	0.648333559000093	1	113	NA	426.946282595	0	0.6	2.41	1	409.360778486	410.009112045	"11"	8419.910159414	8414.305514908	1.5	0.1
0.01	1	0.642448984000112	1	113	NA	426.946282595	0	0.6	2.41	1	410.245686095999	410.888135079999	"11"	8419.910159414	8414.305514908	1.5	0.1
0.01	1	0.573929277999923	1	113	NA	426.946282595	0	0.6	2.41	1	411.113740035999	411.687669313999	"11"	8419.910159414	8414.305514908	1.5	0.1
0.01	1	0.621500031999858	1	113	NA	426.946282595	0	0.6	2.41	1	411.914999916	412.536499948	"11"	8419.910159414	8414.305514908	1.5	0.1
0.01	1	0.666021132000424	1	113	NA	426.946282595	0	0.6	2.41	1	412.766425616	413.432446748	"11"	8419.910159414	8414.305514908	1.5	0.1
0.01	1	4.38862707800035	1	113	NA	426.946282595	0	0.6	2.41	1	413.667988945999	418.056616024	"11"	8419.910159414	8414.305514908	1.5	0.1
0.01	1	0.419127207999736	1	113	NA	426.946282595	0	0.6	2.41	1	418.292440271	418.711567478999	"11"	8419.910159414	8414.305514908	1.5	0.1
0.01	1	0.544953033999263	1	113	NA	426.946282595	0	0.6	2.41	1	418.943482609	419.488435642999	"11"	8419.910159414	8414.305514908	1.5	0.1
0.01	1	0.552734275000148	1	113	NA	426.946282595	0	0.6	2.41	1	419.711493481	420.264227756	"11"	8419.910159414	8414.305514908	1.5	0.1
0.01	1	0.582825413000137	1	113	NA	426.946282595	0	0.6	2.41	1	420.496088665999	421.078914078999	"11"	8419.910159414	8414.305514908	1.5	0.1
0.01	1	0.56640529499964	1	113	NA	426.946282595	0	0.6	2.41	1	421.314192231	421.880597525999	"11"	8419.910159414	8414.305514908	1.5	0.1
0.01	1	0.572107555000002	1	113	NA	426.946282595	0	0.6	2.41	1	422.115485416	422.687592971	"11"	8419.910159414	8414.305514908	1.5	0.1
0.01	1	0.650860683000246	1	113	NA	426.946282595	0	0.6	2.41	1	422.916906689999	423.567767373	"11"	8419.910159414	8414.305514908	1.5	0.1
0.01	1	0.582413631999771	1	113	NA	426.946282595	0	0.6	2.41	1	423.801645156	424.384058787999	"11"	8419.910159414	8414.305514908	1.5	0.1
0.01	1	0.555562208000083	1	113	NA	426.946282595	0	0.6	2.41	1	424.619668501	425.175230709	"11"	8419.910159414	8414.305514908	1.5	0.1
0.01	1	1.54026359399995	2	113	NA	426.946282595	0	0.6	2.41	1	425.404473631	426.944737225	"11"	8419.910159414	8414.305514908	1.5	0.1
0.01	1	0.422378835000018	1	109	NA	490.449575633999	0	0.79	3.2	1	428.993802053	429.416180888	"12"	8419.910159414	8414.305514908	1.5	0.1
0.01	1	0.443854762000228	1	109	NA	490.449575633999	0	0.79	3.2	1	429.644841361	430.088696123	"12"	8419.910159414	8414.305514908	1.5	0.1
0.01	1	0.494286727999679	1	109	NA	490.449575633999	0	0.79	3.2	1	430.329351973	430.823638700999	"12"	8419.910159414	8414.305514908	1.5	0.1
0.01	1	0.567644385999301	1	109	NA	490.449575633999	0	0.79	3.2	1	431.047212206	431.614856591999	"12"	8419.910159414	8414.305514908	1.5	0.1
0.01	1	0.518803848999596	1	109	NA	490.449575633999	0	0.79	3.2	1	431.848566451	432.367370299999	"12"	8419.910159414	8414.305514908	1.5	0.1
0.01	1	0.536304395000116	1	109	NA	490.449575633999	0	0.79	3.2	1	432.599897061	433.136201456	"12"	8419.910159414	8414.305514908	1.5	0.1
0.01	1	0.51244662299996	1	109	NA	490.449575633999	0	0.79	3.2	1	433.367752415999	433.880199038999	"12"	8419.910159414	8414.305514908	1.5	0.1
0.01	1	0.482414989999597	1	109	NA	490.449575633999	0	0.79	3.2	1	434.102397686	434.584812675999	"12"	8419.910159414	8414.305514908	1.5	0.1
0.01	1	0.492030446999706	1	109	NA	490.449575633999	0	0.79	3.2	1	434.820241851	435.312272298	"12"	8419.910159414	8414.305514908	1.5	0.1
0.01	1	0.462718879000022	1	109	NA	490.449575633999	0	0.79	3.2	1	435.538159498	436.000878377	"12"	8419.910159414	8414.305514908	1.5	0.1
0.01	1	0.497564036999393	1	109	NA	490.449575633999	0	0.79	3.2	1	436.239183791	436.736747827999	"12"	8419.910159414	8414.305514908	1.5	0.1
0.01	1	0.00408340300054988	1	109	NA	490.449575633999	0	0.79	3.2	1	436.973890867999	436.977974271	"12"	8419.910159414	8414.305514908	1.5	0.1
0.01	1	0.36013046700009	1	109	NA	490.449575633999	0	0.79	3.2	1	437.207577726	437.567708193	"12"	8419.910159414	8414.305514908	1.5	0.1
0.01	1	0.753195700000106	1	109	NA	490.449575633999	0	0.79	3.2	1	437.791764287999	438.544959987999	"12"	8419.910159414	8414.305514908	1.5	0.1
0.01	1	0.527891047999219	1	109	NA	490.449575633999	0	0.79	3.2	1	438.776879301	439.304770348999	"12"	8419.910159414	8414.305514908	1.5	0.1
0.01	1	0.535399897999923	1	109	NA	490.449575633999	0	0.79	3.2	1	439.544880570999	440.080280468999	"12"	8419.910159414	8414.305514908	1.5	0.1
0.01	1	0.551043434000348	1	109	NA	490.449575633999	0	0.79	3.2	1	440.312791891	440.863835325	"12"	8419.910159414	8414.305514908	1.5	0.1
0.01	1	0.614068282000517	1	109	NA	490.449575633999	0	0.79	3.2	1	441.097431665999	441.711499948	"12"	8419.910159414	8414.305514908	1.5	0.1
0.01	1	0.530627172000095	1	109	NA	490.449575633999	0	0.79	3.2	1	441.948924888	442.47955206	"12"	8419.910159414	8414.305514908	1.5	0.1
0.01	1	0.588202442999318	1	109	NA	490.449575633999	0	0.79	3.2	1	442.716731048	443.304933490999	"12"	8419.910159414	8414.305514908	1.5	0.1
0.01	1	0.553398215000016	1	109	NA	490.449575633999	0	0.79	3.2	1	443.534871946	444.088270161	"12"	8419.910159414	8414.305514908	1.5	0.1
0.01	1	0.497191873999327	1	109	NA	490.449575633999	0	0.79	3.2	1	444.319567613	444.816759486999	"12"	8419.910159414	8414.305514908	1.5	0.1
0.01	1	0.53048343699993	1	109	NA	490.449575633999	0	0.79	3.2	1	445.054020943	445.58450438	"12"	8419.910159414	8414.305514908	1.5	0.1
0.01	1	0.505821491000461	1	109	NA	490.449575633999	0	0.79	3.2	1	445.822095375999	446.327916867	"12"	8419.910159414	8414.305514908	1.5	0.1
0.01	1	0.522832857000139	1	109	NA	490.449575633999	0	0.79	3.2	1	446.556567371	447.079400228	"12"	8419.910159414	8414.305514908	1.5	0.1
0.01	1	0.00401715999942098	1	109	NA	490.449575633999	0	0.79	3.2	1	447.307774911	447.311792070999	"12"	8419.910159414	8414.305514908	1.5	0.1
0.01	1	0.339277215999573	1	109	NA	490.449575633999	0	0.79	3.2	1	447.541580679	447.880857894999	"12"	8419.910159414	8414.305514908	1.5	0.1
0.01	1	0.505874165000023	1	109	NA	490.449575633999	0	0.79	3.2	1	448.109226076	448.615100241	"12"	8419.910159414	8414.305514908	1.5	0.1
0.01	1	0.540493544999663	1	109	NA	490.449575633999	0	0.79	3.2	1	448.843782606	449.384276151	"12"	8419.910159414	8414.305514908	1.5	0.1
0.01	1	0.524065440000413	1	109	NA	490.449575633999	0	0.79	3.2	1	449.611773346	450.135838786	"12"	8419.910159414	8414.305514908	1.5	0.1
0.01	1	0.549555733000489	1	109	NA	490.449575633999	0	0.79	3.2	1	450.363079735999	450.912635469	"12"	8419.910159414	8414.305514908	1.5	0.1
0.01	1	1.09151650299918	1	109	NA	490.449575633999	0	0.79	3.2	1	451.147702616	452.239219118999	"12"	8419.910159414	8414.305514908	1.5	0.1
0.01	1	0.48495952400026	1	109	NA	490.449575633999	0	0.79	3.2	1	452.466546115999	452.95150564	"12"	8419.910159414	8414.305514908	1.5	0.1
0.01	1	0.544179096999869	1	109	NA	490.449575633999	0	0.79	3.2	1	453.184409861	453.728588958	"12"	8419.910159414	8414.305514908	1.5	0.1
0.01	1	0.567066317999888	1	109	NA	490.449575633999	0	0.79	3.2	1	453.952335938	454.519402256	"12"	8419.910159414	8414.305514908	1.5	0.1
0.01	1	0.00482269500025723	1	109	NA	490.449575633999	0	0.79	3.2	1	454.753791996	454.758614691	"12"	8419.910159414	8414.305514908	1.5	0.1
0.01	1	0.347659727000064	1	109	NA	490.449575633999	0	0.79	3.2	1	454.987360597999	455.335020324999	"12"	8419.910159414	8414.305514908	1.5	0.1
0.01	1	0.635971986000186	1	109	NA	490.449575633999	0	0.79	3.2	1	455.571722846	456.207694832	"12"	8419.910159414	8414.305514908	1.5	0.1
0.01	1	0.582921627999895	1	109	NA	490.449575633999	0	0.79	3.2	1	456.439958307999	457.022879935999	"12"	8419.910159414	8414.305514908	1.5	0.1
0.01	1	0.581089999999676	1	109	NA	490.449575633999	0	0.79	3.2	1	457.258079796	457.839169796	"12"	8419.910159414	8414.305514908	1.5	0.1
0.01	1	0.603333658999873	1	109	NA	490.449575633999	0	0.79	3.2	1	458.075953211	458.679286869999	"12"	8419.910159414	8414.305514908	1.5	0.1
0.01	1	0.514035614999557	1	109	NA	490.449575633999	0	0.79	3.2	1	458.910780476	459.424816090999	"12"	8419.910159414	8414.305514908	1.5	0.1
0.01	1	0.489050072999817	1	109	NA	490.449575633999	0	0.79	3.2	1	459.661882271	460.150932344	"12"	8419.910159414	8414.305514908	1.5	0.1
0.01	1	0.667263389000254	1	109	NA	490.449575633999	0	0.79	3.2	1	460.379845797	461.047109186	"12"	8419.910159414	8414.305514908	1.5	0.1
0.01	1	0.583081922000019	1	109	NA	490.449575633999	0	0.79	3.2	1	461.281436210999	461.864518132999	"12"	8419.910159414	8414.305514908	1.5	0.1
0.01	1	0.556506509000428	1	109	NA	490.449575633999	0	0.79	3.2	1	462.099508746	462.656015255	"12"	8419.910159414	8414.305514908	1.5	0.1
0.01	1	0.00405512200086378	1	109	NA	490.449575633999	0	0.79	3.2	1	462.884059460999	462.888114583	"12"	8419.910159414	8414.305514908	1.5	0.1
0.01	1	0.466671276000852	1	109	NA	490.449575633999	0	0.79	3.2	1	463.117782832999	463.584454109	"12"	8419.910159414	8414.305514908	1.5	0.1
0.01	1	0.637931135000144	1	109	NA	490.449575633999	0	0.79	3.2	1	463.819071151	464.457002286	"12"	8419.910159414	8414.305514908	1.5	0.1
0.01	1	0.528554489999806	1	109	NA	490.449575633999	0	0.79	3.2	1	464.687081055999	465.215635545999	"12"	8419.910159414	8414.305514908	1.5	0.1
0.01	1	0.682616455000243	1	109	NA	490.449575633999	0	0.79	3.2	1	465.438375876	466.120992331	"12"	8419.910159414	8414.305514908	1.5	0.1
0.01	1	0.643380612000328	1	109	NA	490.449575633999	0	0.79	3.2	1	466.356618266	466.999998878	"12"	8419.910159414	8414.305514908	1.5	0.1
0.01	1	0.608177441999942	1	109	NA	490.449575633999	0	0.79	3.2	1	467.224712720999	467.832890162999	"12"	8419.910159414	8414.305514908	1.5	0.1
0.01	1	0.693288850000499	1	109	NA	490.449575633999	0	0.79	3.2	1	468.059392335999	468.752681186	"12"	8419.910159414	8414.305514908	1.5	0.1
0.01	1	0.591286089999812	1	109	NA	490.449575633999	0	0.79	3.2	1	468.977681746	469.568967836	"12"	8419.910159414	8414.305514908	1.5	0.1
0.01	1	0.66103925599964	1	109	NA	490.449575633999	0	0.79	3.2	1	469.795705901	470.456745156999	"12"	8419.910159414	8414.305514908	1.5	0.1
0.01	1	0.590205255000001	1	109	NA	490.449575633999	0	0.79	3.2	1	470.697247473	471.287452728	"12"	8419.910159414	8414.305514908	1.5	0.1
0.01	1	0.00474535499961348	1	109	NA	490.449575633999	0	0.79	3.2	1	471.515378476	471.520123830999	"12"	8419.910159414	8414.305514908	1.5	0.1
0.01	1	0.811622379000255	1	109	NA	490.449575633999	0	0.79	3.2	1	471.748917141	472.56053952	"12"	8419.910159414	8414.305514908	1.5	0.1
0.01	1	0.799969306000094	1	109	NA	490.449575633999	0	0.79	3.2	1	472.784178710999	473.584148016999	"12"	8419.910159414	8414.305514908	1.5	0.1
0.01	1	0.651950922999276	1	109	NA	490.449575633999	0	0.79	3.2	1	473.819162498	474.471113420999	"12"	8419.910159414	8414.305514908	1.5	0.1
0.01	1	0.60085891000017	1	109	NA	490.449575633999	0	0.79	3.2	1	474.703939206	475.304798116	"12"	8419.910159414	8414.305514908	1.5	0.1
0.01	1	0.532264100000248	1	109	NA	490.449575633999	0	0.79	3.2	1	475.538678512999	476.070942613	"12"	8419.910159414	8414.305514908	1.5	0.1
0.01	1	0.686089728999832	1	109	NA	490.449575633999	0	0.79	3.2	1	476.306610455999	476.992700184999	"12"	8419.910159414	8414.305514908	1.5	0.1
0.01	1	0.679286813000544	1	109	NA	490.449575633999	0	0.79	3.2	1	477.224877786	477.904164599	"12"	8419.910159414	8414.305514908	1.5	0.1
0.01	1	0.705098526000256	1	109	NA	490.449575633999	0	0.79	3.2	1	478.126304443	478.831402969	"12"	8419.910159414	8414.305514908	1.5	0.1
0.01	1	0.530709392999597	1	109	NA	490.449575633999	0	0.79	3.2	1	479.061140768	479.591850160999	"12"	8419.910159414	8414.305514908	1.5	0.1
0.01	1	0.698552077999921	1	109	NA	490.449575633999	0	0.79	3.2	1	479.829222130999	480.527774208999	"12"	8419.910159414	8414.305514908	1.5	0.1
0.01	1	0.587338771999384	1	109	NA	490.449575633999	0	0.79	3.2	1	480.764120776	481.351459547999	"12"	8419.910159414	8414.305514908	1.5	0.1
0.01	1	1.04227251500015	1	109	NA	490.449575633999	0	0.79	3.2	1	481.582211135999	482.624483651	"12"	8419.910159414	8414.305514908	1.5	0.1
0.01	1	0.716656332000639	1	109	NA	490.449575633999	0	0.79	3.2	1	482.851026040999	483.567682373	"12"	8419.910159414	8414.305514908	1.5	0.1
0.01	1	0.59043992900024	1	109	NA	490.449575633999	0	0.79	3.2	1	483.802521166	484.392961095	"12"	8419.910159414	8414.305514908	1.5	0.1
0.01	1	0.620384869999725	1	109	NA	490.449575633999	0	0.79	3.2	1	484.620559131	485.240944001	"12"	8419.910159414	8414.305514908	1.5	0.1
0.01	1	0.415830074999576	1	109	NA	490.449575633999	0	0.79	3.2	1	485.471954961	485.887785036	"12"	8419.910159414	8414.305514908	1.5	0.1
0.01	1	1.12450212699969	1	109	NA	490.449575633999	0	0.79	3.2	1	486.123145746	487.247647873	"12"	8419.910159414	8414.305514908	1.5	0.1
0.01	1	0.411695920999591	1	109	NA	490.449575633999	0	0.79	3.2	1	487.475344433	487.887040354	"12"	8419.910159414	8414.305514908	1.5	0.1
0.01	1	0.384403936000126	1	109	NA	490.449575633999	0	0.79	3.2	1	488.126539211	488.510943147	"12"	8419.910159414	8414.305514908	1.5	0.1
0.01	1	0.375761872000112	1	109	NA	490.449575633999	0	0.79	3.2	1	488.744234645999	489.119996517999	"12"	8419.910159414	8414.305514908	1.5	0.1
0.01	1	0.551579801000116	1	109	NA	490.449575633999	0	0.79	3.2	1	489.345179008	489.896758809	"12"	8419.910159414	8414.305514908	1.5	0.1
0.01	1	0.318148267999277	2	109	NA	490.449575633999	0	0.79	3.2	1	490.129859136	490.448007403999	"12"	8419.910159414	8414.305514908	1.5	0.1
0.01	1	0.536230675000297	1	29	514.340626746	NA	1	0	3.2	1	492.550586306999	493.086816982	"13"	8419.910159414	8414.305514908	1.5	0.1
0.01	1	0.392330585000309	1	29	514.340626746	NA	1	0	3.2	1	493.318542147999	493.710872733	"13"	8419.910159414	8414.305514908	1.5	0.1
0.01	1	0.480492949000109	1	29	514.340626746	NA	1	0	3.2	1	493.936216771	494.41670972	"13"	8419.910159414	8414.305514908	1.5	0.1
0.01	1	0.530934259999412	1	29	514.340626746	NA	1	0	3.2	1	494.654066731	495.185000990999	"13"	8419.910159414	8414.305514908	1.5	0.1
0.01	1	0.457866931000353	1	29	514.340626746	NA	1	0	3.2	1	495.422118367999	495.879985299	"13"	8419.910159414	8414.305514908	1.5	0.1
0.01	1	0.541704901999765	1	29	514.340626746	NA	1	0	3.2	1	496.106543512999	496.648248414999	"13"	8419.910159414	8414.305514908	1.5	0.1
0.01	1	0.556514573000641	1	29	514.340626746	NA	1	0	3.2	1	496.874592765999	497.431107339	"13"	8419.910159414	8414.305514908	1.5	0.1
0.01	1	0.708552488999885	1	29	514.340626746	NA	1	0	3.2	1	497.659199536	498.367752024999	"13"	8419.910159414	8414.305514908	1.5	0.1
0.01	1	0.405573740000364	1	29	514.340626746	NA	1	0	3.2	1	498.594156145999	498.999729886	"13"	8419.910159414	8414.305514908	1.5	0.1
0.01	1	0.523626174999663	1	29	514.340626746	NA	1	0	3.2	1	499.228414796	499.752040971	"13"	8419.910159414	8414.305514908	1.5	0.1
0.01	1	0.523134323000704	1	29	514.340626746	NA	1	0	3.2	1	499.979858332999	500.502992656	"13"	8419.910159414	8414.305514908	1.5	0.1
0.01	1	0.501856990000306	1	29	514.340626746	NA	1	0	3.2	1	500.730968952999	501.232825943	"13"	8419.910159414	8414.305514908	1.5	0.1
0.01	1	0.503298178000477	1	29	514.340626746	NA	1	0	3.2	1	501.465599372999	501.968897551	"13"	8419.910159414	8414.305514908	1.5	0.1
0.01	1	0.527454252000098	1	29	514.340626746	NA	1	0	3.2	1	502.200213886999	502.727668138999	"13"	8419.910159414	8414.305514908	1.5	0.1
0.01	1	0.552033078000022	1	29	514.340626746	NA	1	0	3.2	1	502.951377908	503.503410986	"13"	8419.910159414	8414.305514908	1.5	0.1
0.01	1	0.519586444999732	1	29	514.340626746	NA	1	0	3.2	1	503.736060261	504.255646705999	"13"	8419.910159414	8414.305514908	1.5	0.1
0.01	1	0.489073048000137	1	29	514.340626746	NA	1	0	3.2	1	504.487326347999	504.976399396	"13"	8419.910159414	8414.305514908	1.5	0.1
0.01	1	0.571503250000205	1	29	514.340626746	NA	1	0	3.2	1	505.205271958999	505.776775208999	"13"	8419.910159414	8414.305514908	1.5	0.1
0.01	1	0.544321462999505	1	29	514.340626746	NA	1	0	3.2	1	506.006536276	506.550857738999	"13"	8419.910159414	8414.305514908	1.5	0.1
0.01	1	0.568583119999857	1	29	514.340626746	NA	1	0	3.2	1	506.774519826	507.343102946	"13"	8419.910159414	8414.305514908	1.5	0.1
0.01	1	0.527487815999848	1	29	514.340626746	NA	1	0	3.2	1	507.575864089	508.103351905	"13"	8419.910159414	8414.305514908	1.5	0.1
0.01	1	0.473605424000198	1	29	514.340626746	NA	1	0	3.2	1	508.327052080999	508.800657504999	"13"	8419.910159414	8414.305514908	1.5	0.1
0.01	1	0.580790498999704	1	29	514.340626746	NA	1	0	3.2	1	509.028285646	509.609076145	"13"	8419.910159414	8414.305514908	1.5	0.1
0.01	1	0.561140527000134	1	29	514.340626746	NA	1	0	3.2	1	509.846297241	510.407437768	"13"	8419.910159414	8414.305514908	1.5	0.1
0.01	1	0.568938256000365	1	29	514.340626746	NA	1	0	3.2	1	510.647658618	511.216596874	"13"	8419.910159414	8414.305514908	1.5	0.1
0.01	1	0.574869119000141	1	29	514.340626746	NA	1	0	3.2	1	511.449048588	512.023917707	"13"	8419.910159414	8414.305514908	1.5	0.1
0.01	1	0.541454748999968	1	29	514.340626746	NA	1	0	3.2	1	512.250359481	512.79181423	"13"	8419.910159414	8414.305514908	1.5	0.1
0.01	1	0.484551320999344	1	29	514.340626746	NA	1	0	3.2	1	513.018334341	513.502885661999	"13"	8419.910159414	8414.305514908	1.5	0.1
0.01	1	0.488689587000408	1	29	514.340626746	NA	1	0	3.2	1	513.736172716	514.224862303	"13"	8419.910159414	8414.305514908	1.5	0.1
0.01	1	0.320574709999164	1	69	NA	551.170574635999	0	0.5	3.7	1	516.390680681	516.711255390999	"14"	8419.910159414	8414.305514908	1.5	0.1
0.01	1	0.482869552999546	1	69	NA	551.170574635999	0	0.5	3.7	1	516.941648866	517.424518418999	"14"	8419.910159414	8414.305514908	1.5	0.1
0.01	1	0.42011764200015	1	69	NA	551.170574635999	0	0.5	3.7	1	517.659410542999	518.079528185	"14"	8419.910159414	8414.305514908	1.5	0.1
0.01	1	0.481847844000185	1	69	NA	551.170574635999	0	0.5	3.7	1	518.310556195999	518.792404039999	"14"	8419.910159414	8414.305514908	1.5	0.1
0.01	1	0.427373496000655	1	69	NA	551.170574635999	0	0.5	3.7	1	519.028423680999	519.455797177	"14"	8419.910159414	8414.305514908	1.5	0.1
0.01	1	0.439662034999856	1	69	NA	551.170574635999	0	0.5	3.7	1	519.679610241	520.119272276	"14"	8419.910159414	8414.305514908	1.5	0.1
0.01	1	0.461616477999996	1	69	NA	551.170574635999	0	0.5	3.7	1	520.347295488	520.808911966	"14"	8419.910159414	8414.305514908	1.5	0.1
0.01	1	0.431468153000424	1	69	NA	551.170574635999	0	0.5	3.7	1	521.048458912999	521.479927066	"14"	8419.910159414	8414.305514908	1.5	0.1
0.01	1	0.411047929999768	1	69	NA	551.170574635999	0	0.5	3.7	1	521.716363856	522.127411785999	"14"	8419.910159414	8414.305514908	1.5	0.1
0.01	1	0.417332832999818	1	69	NA	551.170574635999	0	0.5	3.7	1	522.350784546	522.768117379	"14"	8419.910159414	8414.305514908	1.5	0.1
0.01	1	0.493231766999997	1	69	NA	551.170574635999	0	0.5	3.7	1	523.001823717999	523.495055484999	"14"	8419.910159414	8414.305514908	1.5	0.1
0.01	1	0.49723103100041	1	69	NA	551.170574635999	0	0.5	3.7	1	523.719631718	524.216862749	"14"	8419.910159414	8414.305514908	1.5	0.1
0.01	1	0.505591961000391	1	69	NA	551.170574635999	0	0.5	3.7	1	524.454258500999	524.959850462	"14"	8419.910159414	8414.305514908	1.5	0.1
0.01	1	0.483722291000049	1	69	NA	551.170574635999	0	0.5	3.7	1	525.188796468	525.672518759	"14"	8419.910159414	8414.305514908	1.5	0.1
0.01	1	0.574045702999683	1	69	NA	551.170574635999	0	0.5	3.7	1	525.906607766	526.480653469	"14"	8419.910159414	8414.305514908	1.5	0.1
0.01	1	0.443101298000329	1	69	NA	551.170574635999	0	0.5	3.7	1	526.707970236	527.151071534	"14"	8419.910159414	8414.305514908	1.5	0.1
0.01	1	0.439975289000358	1	69	NA	551.170574635999	0	0.5	3.7	1	527.392419217999	527.832394507	"14"	8419.910159414	8414.305514908	1.5	0.1
0.01	1	0.427266681000219	1	69	NA	551.170574635999	0	0.5	3.7	1	528.060389775999	528.487656457	"14"	8419.910159414	8414.305514908	1.5	0.1
0.01	1	0.463508628999989	1	69	NA	551.170574635999	0	0.5	3.7	1	528.711422587	529.174931216	"14"	8419.910159414	8414.305514908	1.5	0.1
0.01	1	0.379534432000582	1	69	NA	551.170574635999	0	0.5	3.7	1	529.412445225999	529.791979658	"14"	8419.910159414	8414.305514908	1.5	0.1
0.01	1	0.457414366000194	1	69	NA	551.170574635999	0	0.5	3.7	1	530.013533572999	530.470947938999	"14"	8419.910159414	8414.305514908	1.5	0.1
0.01	1	0.541722631000084	1	69	NA	551.170574635999	0	0.5	3.7	1	530.698036385999	531.239759016999	"14"	8419.910159414	8414.305514908	1.5	0.1
0.01	1	0.494299805000082	1	69	NA	551.170574635999	0	0.5	3.7	1	531.466043187999	531.960342992999	"14"	8419.910159414	8414.305514908	1.5	0.1
0.01	1	0.455437265999535	1	69	NA	551.170574635999	0	0.5	3.7	1	532.200579513	532.656016778999	"14"	8419.910159414	8414.305514908	1.5	0.1
0.01	1	0.427592619000279	1	69	NA	551.170574635999	0	0.5	3.7	1	532.88510746	533.312700079	"14"	8419.910159414	8414.305514908	1.5	0.1
0.01	1	0.3608141349996	1	69	NA	551.170574635999	0	0.5	3.7	1	533.536073361	533.896887495999	"14"	8419.910159414	8414.305514908	1.5	0.1
0.01	1	0.391128898999341	1	69	NA	551.170574635999	0	0.5	3.7	1	534.120465463	534.511594361999	"14"	8419.910159414	8414.305514908	1.5	0.1
0.01	1	0.469779715999721	1	69	NA	551.170574635999	0	0.5	3.7	1	534.738135953	535.207915669	"14"	8419.910159414	8414.305514908	1.5	0.1
0.01	1	0.43943550899985	1	69	NA	551.170574635999	0	0.5	3.7	1	535.439377436	535.878812944999	"14"	8419.910159414	8414.305514908	1.5	0.1
0.01	1	0.508803710000393	1	69	NA	551.170574635999	0	0.5	3.7	1	536.107156337999	536.615960048	"14"	8419.910159414	8414.305514908	1.5	0.1
0.01	1	0.414822593000281	1	69	NA	551.170574635999	0	0.5	3.7	1	536.841676716	537.256499309	"14"	8419.910159414	8414.305514908	1.5	0.1
0.01	1	0.386727576000339	1	69	NA	551.170574635999	0	0.5	3.7	1	537.492848403	537.879575979	"14"	8419.910159414	8414.305514908	1.5	0.1
0.01	1	0.361889064000025	1	69	NA	551.170574635999	0	0.5	3.7	1	538.110504496	538.47239356	"14"	8419.910159414	8414.305514908	1.5	0.1
0.01	1	0.33644185599951	1	69	NA	551.170574635999	0	0.5	3.7	1	538.711452126	539.047893982	"14"	8419.910159414	8414.305514908	1.5	0.1
0.01	1	0.352820261000488	1	69	NA	551.170574635999	0	0.5	3.7	1	539.279106778999	539.63192704	"14"	8419.910159414	8414.305514908	1.5	0.1
0.01	1	0.39170959600051	1	69	NA	551.170574635999	0	0.5	3.7	1	539.863453952999	540.255163549	"14"	8419.910159414	8414.305514908	1.5	0.1
0.01	1	0.391695407000043	1	69	NA	551.170574635999	0	0.5	3.7	1	540.481233193	540.8729286	"14"	8419.910159414	8414.305514908	1.5	0.1
0.01	1	0.468104114999733	1	69	NA	551.170574635999	0	0.5	3.7	1	541.098841556	541.566945670999	"14"	8419.910159414	8414.305514908	1.5	0.1
0.01	1	0.38452695199976	1	69	NA	551.170574635999	0	0.5	3.7	1	541.800054941	542.184581893	"14"	8419.910159414	8414.305514908	1.5	0.1
0.01	1	0.413871964999998	1	69	NA	551.170574635999	0	0.5	3.7	1	542.417758111	542.831630076	"14"	8419.910159414	8414.305514908	1.5	0.1
0.01	1	0.387412570000379	1	69	NA	551.170574635999	0	0.5	3.7	1	543.068882570999	543.456295141	"14"	8419.910159414	8414.305514908	1.5	0.1
0.01	1	0.417310122999879	1	69	NA	551.170574635999	0	0.5	3.7	1	543.686558785999	544.103868908999	"14"	8419.910159414	8414.305514908	1.5	0.1
0.01	1	0.454854399999931	1	69	NA	551.170574635999	0	0.5	3.7	1	544.337642490999	544.792496890999	"14"	8419.910159414	8414.305514908	1.5	0.1
0.01	1	0.474439730000086	1	69	NA	551.170574635999	0	0.5	3.7	1	545.022105546	545.496545276	"14"	8419.910159414	8414.305514908	1.5	0.1
0.01	1	0.955669986999965	1	69	NA	551.170574635999	0	0.5	3.7	1	545.723299916	546.678969903	"14"	8419.910159414	8414.305514908	1.5	0.1
0.01	1	0.33814200300003	1	69	NA	551.170574635999	0	0.5	3.7	1	546.908675486	547.246817489	"14"	8419.910159414	8414.305514908	1.5	0.1
0.01	1	1.2995880110002	1	69	NA	551.170574635999	0	0.5	3.7	1	547.476306391	548.775894402	"14"	8419.910159414	8414.305514908	1.5	0.1
0.01	1	0.340124258000287	1	69	NA	551.170574635999	0	0.5	3.7	1	549.012121946	549.352246204	"14"	8419.910159414	8414.305514908	1.5	0.1
0.01	1	0.35553093100043	1	69	NA	551.170574635999	0	0.5	3.7	1	549.579851707999	549.935382639	"14"	8419.910159414	8414.305514908	1.5	0.1
0.01	1	0.411437144999582	1	69	NA	551.170574635999	0	0.5	3.7	1	550.164141186	550.575578331	"14"	8419.910159414	8414.305514908	1.5	0.1
0.01	1	0.370502019000014	2	69	NA	551.170574635999	0	0.5	3.7	1	550.798533978	551.169035997	"14"	8419.910159414	8414.305514908	1.5	0.1
0.01	1	0.69990682200023	1	56	NA	590.233529163	0	0.51	4.21	1	553.219229730999	553.919136553	"15"	8419.910159414	8414.305514908	1.5	0.1
0.01	1	0.573030085000028	1	56	NA	590.233529163	0	0.51	4.21	1	554.154114780999	554.727144865999	"15"	8419.910159414	8414.305514908	1.5	0.1
0.01	1	0.603384374999223	1	56	NA	590.233529163	0	0.51	4.21	1	554.955459328	555.558843702999	"15"	8419.910159414	8414.305514908	1.5	0.1
0.01	1	0.545660097000109	1	56	NA	590.233529163	0	0.51	4.21	1	555.790197120999	556.335857218	"15"	8419.910159414	8414.305514908	1.5	0.1
0.01	1	0.54552515100022	1	56	NA	590.233529163	0	0.51	4.21	1	556.558216177999	557.103741329	"15"	8419.910159414	8414.305514908	1.5	0.1
0.01	1	0.521504798000024	1	56	NA	590.233529163	0	0.51	4.21	1	557.342775921	557.864280719	"15"	8419.910159414	8414.305514908	1.5	0.1
0.01	1	0.52920596200056	1	56	NA	590.233529163	0	0.51	4.21	1	558.094249930999	558.623455893	"15"	8419.910159414	8414.305514908	1.5	0.1
0.01	1	0.499214308000774	1	56	NA	590.233529163	0	0.51	4.21	1	558.845419087999	559.344633396	"15"	8419.910159414	8414.305514908	1.5	0.1
0.01	1	0.477051924000079	1	56	NA	590.233529163	0	0.51	4.21	1	559.579915212999	560.056967136999	"15"	8419.910159414	8414.305514908	1.5	0.1
0.01	1	0.453319131999706	1	56	NA	590.233529163	0	0.51	4.21	1	560.297811101	560.751130232999	"15"	8419.910159414	8414.305514908	1.5	0.1
0.01	1	0.521843430999979	1	56	NA	590.233529163	0	0.51	4.21	1	560.982323425999	561.504166856999	"15"	8419.910159414	8414.305514908	1.5	0.1
0.01	1	0.45773008299966	1	56	NA	590.233529163	0	0.51	4.21	1	561.733490225	562.191220307999	"15"	8419.910159414	8414.305514908	1.5	0.1
0.01	1	0.446627558000728	1	56	NA	590.233529163	0	0.51	4.21	1	562.417998612999	562.864626171	"15"	8419.910159414	8414.305514908	1.5	0.1
0.01	1	0.466263285000423	1	56	NA	590.233529163	0	0.51	4.21	1	563.102516683	563.568779968	"15"	8419.910159414	8414.305514908	1.5	0.1
0.01	1	0.573043567999775	1	56	NA	590.233529163	0	0.51	4.21	1	563.803735421	564.376778989	"15"	8419.910159414	8414.305514908	1.5	0.1
0.01	1	0.506865488000585	1	56	NA	590.233529163	0	0.51	4.21	1	564.605023765999	565.111889254	"15"	8419.910159414	8414.305514908	1.5	0.1
0.01	1	0.483882857000026	1	56	NA	590.233529163	0	0.51	4.21	1	565.339676688	565.823559545	"15"	8419.910159414	8414.305514908	1.5	0.1
0.01	1	0.591362269999991	1	56	NA	590.233529163	0	0.51	4.21	1	566.057507490999	566.648869760999	"15"	8419.910159414	8414.305514908	1.5	0.1
0.01	1	0.515523166999628	1	56	NA	590.233529163	0	0.51	4.21	1	566.875541441	567.391064607999	"15"	8419.910159414	8414.305514908	1.5	0.1
0.01	1	0.50119429500046	1	56	NA	590.233529163	0	0.51	4.21	1	567.626814370999	568.128008666	"15"	8419.910159414	8414.305514908	1.5	0.1
0.01	1	0.509478265000325	1	56	NA	590.233529163	0	0.51	4.21	1	568.361425781	568.870904046	"15"	8419.910159414	8414.305514908	1.5	0.1
0.01	1	0.48793846100034	1	56	NA	590.233529163	0	0.51	4.21	1	569.095958405999	569.583896867	"15"	8419.910159414	8414.305514908	1.5	0.1
0.01	1	0.521424244000627	1	56	NA	590.233529163	0	0.51	4.21	1	569.813854755999	570.335279	"15"	8419.910159414	8414.305514908	1.5	0.1
0.01	1	0.522518298999785	1	56	NA	590.233529163	0	0.51	4.21	1	570.565011007	571.087529306	"15"	8419.910159414	8414.305514908	1.5	0.1
0.01	1	0.547851497999545	1	56	NA	590.233529163	0	0.51	4.21	1	571.316290791	571.864142289	"15"	8419.910159414	8414.305514908	1.5	0.1
0.01	1	0.521964816000036	1	56	NA	590.233529163	0	0.51	4.21	1	572.100986021	572.622950837	"15"	8419.910159414	8414.305514908	1.5	0.1
0.01	1	0.459544876999644	1	56	NA	590.233529163	0	0.51	4.21	1	572.852200419	573.311745296	"15"	8419.910159414	8414.305514908	1.5	0.1
0.01	1	0.464000859999942	1	56	NA	590.233529163	0	0.51	4.21	1	573.536719441	574.000720301	"15"	8419.910159414	8414.305514908	1.5	0.1
0.01	1	0.482932134000293	1	56	NA	590.233529163	0	0.51	4.21	1	574.237883153	574.720815287	"15"	8419.910159414	8414.305514908	1.5	0.1
0.01	1	0.44353639899964	1	56	NA	590.233529163	0	0.51	4.21	1	574.955776971	575.39931337	"15"	8419.910159414	8414.305514908	1.5	0.1
0.01	1	0.423748518999673	1	56	NA	590.233529163	0	0.51	4.21	1	575.623514348	576.047262867	"15"	8419.910159414	8414.305514908	1.5	0.1
0.01	1	0.460689169000034	1	56	NA	590.233529163	0	0.51	4.21	1	576.274652290999	576.735341459999	"15"	8419.910159414	8414.305514908	1.5	0.1
0.01	1	0.463633207999919	1	56	NA	590.233529163	0	0.51	4.21	1	576.95915766	577.422790868	"15"	8419.910159414	8414.305514908	1.5	0.1
0.01	1	0.434680874999685	1	56	NA	590.233529163	0	0.51	4.21	1	577.660266733	578.094947608	"15"	8419.910159414	8414.305514908	1.5	0.1
0.01	1	0.416145472000608	1	56	NA	590.233529163	0	0.51	4.21	1	578.328040560999	578.744186033	"15"	8419.910159414	8414.305514908	1.5	0.1
0.01	1	0.00414171899956273	1	56	NA	590.233529163	0	0.51	4.21	1	578.979154508	578.983296226999	"15"	8419.910159414	8414.305514908	1.5	0.1
0.01	1	0.227800419000232	1	56	NA	590.233529163	0	0.51	4.21	1	579.212870085999	579.440670505	"15"	8419.910159414	8414.305514908	1.5	0.1
0.01	1	0.00401018299999123	1	56	NA	590.233529163	0	0.51	4.21	1	579.663718368	579.667728551	"15"	8419.910159414	8414.305514908	1.5	0.1
0.01	1	0.877933025999482	1	56	NA	590.233529163	0	0.51	4.21	1	579.897444411	580.775377436999	"15"	8419.910159414	8414.305514908	1.5	0.1
0.01	1	0.479324456000541	1	56	NA	590.233529163	0	0.51	4.21	1	581.015898897999	581.495223354	"15"	8419.910159414	8414.305514908	1.5	0.1
0.01	1	0.442354618000536	1	56	NA	590.233529163	0	0.51	4.21	1	581.733774040999	582.176128659	"15"	8419.910159414	8414.305514908	1.5	0.1
0.01	1	0.558574978999786	1	56	NA	590.233529163	0	0.51	4.21	1	582.401541311	582.96011629	"15"	8419.910159414	8414.305514908	1.5	0.1
0.01	1	0.540856780000468	1	56	NA	590.233529163	0	0.51	4.21	1	583.186197890999	583.727054671	"15"	8419.910159414	8414.305514908	1.5	0.1
0.01	1	0.485239911999997	1	56	NA	590.233529163	0	0.51	4.21	1	583.954214881	584.439454793	"15"	8419.910159414	8414.305514908	1.5	0.1
0.01	1	0.464017039999817	1	56	NA	590.233529163	0	0.51	4.21	1	584.672078481	585.136095520999	"15"	8419.910159414	8414.305514908	1.5	0.1
0.01	1	0.578996705999998	1	56	NA	590.233529163	0	0.51	4.21	1	585.356593277	585.935589983	"15"	8419.910159414	8414.305514908	1.5	0.1
0.01	1	0.610749921999741	1	56	NA	590.233529163	0	0.51	4.21	1	586.157850156	586.768600078	"15"	8419.910159414	8414.305514908	1.5	0.1
0.01	1	0.495189758999913	1	56	NA	590.233529163	0	0.51	4.21	1	586.992688366	587.487878125	"15"	8419.910159414	8414.305514908	1.5	0.1
0.01	1	0.480687766999836	1	56	NA	590.233529163	0	0.51	4.21	1	587.727225015999	588.207912782999	"15"	8419.910159414	8414.305514908	1.5	0.1
0.01	1	0.491950299000564	1	56	NA	590.233529163	0	0.51	4.21	1	588.445087335999	588.937037635	"15"	8419.910159414	8414.305514908	1.5	0.1
0.01	1	0.533617610999499	1	56	NA	590.233529163	0	0.51	4.21	1	589.162876648	589.696494258999	"15"	8419.910159414	8414.305514908	1.5	0.1
0.01	1	0.300990840999475	2	56	NA	590.233529163	0	0.51	4.21	1	589.930962216	590.231953056999	"15"	8419.910159414	8414.305514908	1.5	0.1
0.01	1	0.370827464000286	1	80	NA	639.064864227999	0	0.66	4.87	1	592.285017040999	592.655844505	"16"	8419.910159414	8414.305514908	1.5	0.1
0.01	1	0.385086915000102	1	80	NA	639.064864227999	0	0.66	4.87	1	592.885941375999	593.271028290999	"16"	8419.910159414	8414.305514908	1.5	0.1
0.01	1	0.45558064099987	1	80	NA	639.064864227999	0	0.66	4.87	1	593.503687236	593.959267877	"16"	8419.910159414	8414.305514908	1.5	0.1
0.01	1	0.436392863999572	1	80	NA	639.064864227999	0	0.66	4.87	1	594.188044386	594.62443725	"16"	8419.910159414	8414.305514908	1.5	0.1
0.01	1	0.448069480000413	1	80	NA	639.064864227999	0	0.66	4.87	1	594.855878210999	595.303947691	"16"	8419.910159414	8414.305514908	1.5	0.1
0.01	1	0.474425890999555	1	80	NA	639.064864227999	0	0.66	4.87	1	595.540329226	596.014755116999	"16"	8419.910159414	8414.305514908	1.5	0.1
0.01	1	0.430464023999775	1	80	NA	639.064864227999	0	0.66	4.87	1	596.241618581	596.672082605	"16"	8419.910159414	8414.305514908	1.5	0.1
0.01	1	0.403594797000551	1	80	NA	639.064864227999	0	0.66	4.87	1	596.909251485999	597.312846283	"16"	8419.910159414	8414.305514908	1.5	0.1
0.01	1	0.415060860000267	1	80	NA	639.064864227999	0	0.66	4.87	1	597.543757891	597.958818751	"16"	8419.910159414	8414.305514908	1.5	0.1
0.01	1	0.436425670000062	1	80	NA	639.064864227999	0	0.66	4.87	1	598.194811355999	598.631237025999	"16"	8419.910159414	8414.305514908	1.5	0.1
0.01	1	0.449537504000546	1	80	NA	639.064864227999	0	0.66	4.87	1	598.862503032999	599.312040537	"16"	8419.910159414	8414.305514908	1.5	0.1
0.01	1	0.468037767000169	1	80	NA	639.064864227999	0	0.66	4.87	1	599.547030725999	600.015068492999	"16"	8419.910159414	8414.305514908	1.5	0.1
0.01	1	0.423625946000357	1	80	NA	639.064864227999	0	0.66	4.87	1	600.248359435999	600.671985382	"16"	8419.910159414	8414.305514908	1.5	0.1
0.01	1	0.452510729999631	1	80	NA	639.064864227999	0	0.66	4.87	1	600.899438933	601.351949663	"16"	8419.910159414	8414.305514908	1.5	0.1
0.01	1	0.536702938000417	1	80	NA	639.064864227999	0	0.66	4.87	1	601.583896308	602.120599246	"16"	8419.910159414	8414.305514908	1.5	0.1
0.01	1	0.463347727999462	1	80	NA	639.064864227999	0	0.66	4.87	1	602.351812758	602.815160486	"16"	8419.910159414	8414.305514908	1.5	0.1
0.01	1	0.435683831999995	1	80	NA	639.064864227999	0	0.66	4.87	1	603.052942095999	603.488625927999	"16"	8419.910159414	8414.305514908	1.5	0.1
0.01	1	0.407286587999806	1	80	NA	639.064864227999	0	0.66	4.87	1	603.720732670999	604.128019258999	"16"	8419.910159414	8414.305514908	1.5	0.1
0.01	1	0.476789187000577	1	80	NA	639.064864227999	0	0.66	4.87	1	604.355169562999	604.83195875	"16"	8419.910159414	8414.305514908	1.5	0.1
0.01	1	0.432453321999674	1	80	NA	639.064864227999	0	0.66	4.87	1	605.056336868	605.488790189999	"16"	8419.910159414	8414.305514908	1.5	0.1
0.01	1	0.452552003000164	1	80	NA	639.064864227999	0	0.66	4.87	1	605.724213033	606.176765036	"16"	8419.910159414	8414.305514908	1.5	0.1
0.01	1	0.454537245000211	1	80	NA	639.064864227999	0	0.66	4.87	1	606.408705626	606.863242871	"16"	8419.910159414	8414.305514908	1.5	0.1
0.01	1	0.418190470999434	1	80	NA	639.064864227999	0	0.66	4.87	1	607.093107066	607.511297536999	"16"	8419.910159414	8414.305514908	1.5	0.1
0.01	1	0.511020481000742	1	80	NA	639.064864227999	0	0.66	4.87	1	607.744201625999	608.255222107	"16"	8419.910159414	8414.305514908	1.5	0.1
0.01	1	0.44872888700047	1	80	NA	639.064864227999	0	0.66	4.87	1	608.478717452999	608.92744634	"16"	8419.910159414	8414.305514908	1.5	0.1
0.01	1	0.436897403999865	1	80	NA	639.064864227999	0	0.66	4.87	1	609.163159506	609.60005691	"16"	8419.910159414	8414.305514908	1.5	0.1
0.01	1	0.408235048999813	1	80	NA	639.064864227999	0	0.66	4.87	1	609.831053385999	610.239288434999	"16"	8419.910159414	8414.305514908	1.5	0.1
0.01	1	0.535374240999772	1	80	NA	639.064864227999	0	0.66	4.87	1	610.465445668	611.000819909	"16"	8419.910159414	8414.305514908	1.5	0.1
0.01	1	0.43085751200033	1	80	NA	639.064864227999	0	0.66	4.87	1	611.233423608	611.66428112	"16"	8419.910159414	8414.305514908	1.5	0.1
0.01	1	0.506206289999682	1	80	NA	639.064864227999	0	0.66	4.87	1	611.901158230999	612.407364520999	"16"	8419.910159414	8414.305514908	1.5	0.1
0.01	1	0.547118977000537	1	80	NA	639.064864227999	0	0.66	4.87	1	612.635795155999	613.182914133	"16"	8419.910159414	8414.305514908	1.5	0.1
0.01	1	0.444104798999433	1	80	NA	639.064864227999	0	0.66	4.87	1	613.420461297	613.864566095999	"16"	8419.910159414	8414.305514908	1.5	0.1
0.01	1	0.470593960999395	1	80	NA	639.064864227999	0	0.66	4.87	1	614.088229616	614.558823576999	"16"	8419.910159414	8414.305514908	1.5	0.1
0.01	1	0.434532347000641	1	80	NA	639.064864227999	0	0.66	4.87	1	614.789417780999	615.223950128	"16"	8419.910159414	8414.305514908	1.5	0.1
0.01	1	0.437829845000124	1	80	NA	639.064864227999	0	0.66	4.87	1	615.457378370999	615.895208215999	"16"	8419.910159414	8414.305514908	1.5	0.1
0.01	1	0.497955681999883	1	80	NA	639.064864227999	0	0.66	4.87	1	616.125028234	616.622983916	"16"	8419.910159414	8414.305514908	1.5	0.1
0.01	1	0.468919791000189	1	80	NA	639.064864227999	0	0.66	4.87	1	616.859478126	617.328397917	"16"	8419.910159414	8414.305514908	1.5	0.1
0.01	1	0.438174800000525	1	80	NA	639.064864227999	0	0.66	4.87	1	617.560698453	617.998873253	"16"	8419.910159414	8414.305514908	1.5	0.1
0.01	1	0.435455208000349	1	80	NA	639.064864227999	0	0.66	4.87	1	618.228536412999	618.663991621	"16"	8419.910159414	8414.305514908	1.5	0.1
0.01	1	0.566706106000311	1	80	NA	639.064864227999	0	0.66	4.87	1	618.896331655999	619.463037762	"16"	8419.910159414	8414.305514908	1.5	0.1
0.01	1	0.406398915999489	1	80	NA	639.064864227999	0	0.66	4.87	1	619.697662261	620.104061176999	"16"	8419.910159414	8414.305514908	1.5	0.1
0.01	1	0.467982600000141	1	80	NA	639.064864227999	0	0.66	4.87	1	620.332012960999	620.799995560999	"16"	8419.910159414	8414.305514908	1.5	0.1
0.01	1	0.471528109000246	1	80	NA	639.064864227999	0	0.66	4.87	1	621.033169857999	621.504697967	"16"	8419.910159414	8414.305514908	1.5	0.1
0.01	1	0.522068665000006	1	80	NA	639.064864227999	0	0.66	4.87	1	621.734506076	622.256574741	"16"	8419.910159414	8414.305514908	1.5	0.1
0.01	1	0.441773280000234	1	80	NA	639.064864227999	0	0.66	4.87	1	622.485616771	622.927390051	"16"	8419.910159414	8414.305514908	1.5	0.1
0.01	1	0.511499098999593	1	80	NA	639.064864227999	0	0.66	4.87	1	623.153432818	623.664931916999	"16"	8419.910159414	8414.305514908	1.5	0.1
0.01	1	0.4475084350006	1	80	NA	639.064864227999	0	0.66	4.87	1	623.904714980999	624.352223416	"16"	8419.910159414	8414.305514908	1.5	0.1
0.01	1	0.483513322000363	1	80	NA	639.064864227999	0	0.66	4.87	1	624.589128627999	625.07264195	"16"	8419.910159414	8414.305514908	1.5	0.1
0.01	1	0.467780228000265	1	80	NA	639.064864227999	0	0.66	4.87	1	625.306969097999	625.774749325999	"16"	8419.910159414	8414.305514908	1.5	0.1
0.01	1	0.640130130000216	1	80	NA	639.064864227999	0	0.66	4.87	1	626.008208259	626.648338389	"16"	8419.910159414	8414.305514908	1.5	0.1
0.01	1	0.499313856000299	1	80	NA	639.064864227999	0	0.66	4.87	1	626.876283400999	627.375597257	"16"	8419.910159414	8414.305514908	1.5	0.1
0.01	1	0.525385822999851	1	80	NA	639.064864227999	0	0.66	4.87	1	627.610971423	628.136357246	"16"	8419.910159414	8414.305514908	1.5	0.1
0.01	1	0.540899575000367	1	80	NA	639.064864227999	0	0.66	4.87	1	628.362178920999	628.903078496	"16"	8419.910159414	8414.305514908	1.5	0.1
0.01	1	0.582108423000136	1	80	NA	639.064864227999	0	0.66	4.87	1	629.130206166	629.712314589	"16"	8419.910159414	8414.305514908	1.5	0.1
0.01	1	0.50887507600055	1	80	NA	639.064864227999	0	0.66	4.87	1	629.948134980999	630.457010057	"16"	8419.910159414	8414.305514908	1.5	0.1
0.01	1	0.548784352000439	1	80	NA	639.064864227999	0	0.66	4.87	1	630.682771760999	631.231556113	"16"	8419.910159414	8414.305514908	1.5	0.1
0.01	1	0.452628181999899	1	80	NA	639.064864227999	0	0.66	4.87	1	631.467635661	631.920263843	"16"	8419.910159414	8414.305514908	1.5	0.1
0.01	1	0.465490993999992	1	80	NA	639.064864227999	0	0.66	4.87	1	632.151794853	632.617285847	"16"	8419.910159414	8414.305514908	1.5	0.1
0.01	1	0.467286374999276	1	80	NA	639.064864227999	0	0.66	4.87	1	632.853156278	633.320442652999	"16"	8419.910159414	8414.305514908	1.5	0.1
0.01	1	0.525193044999469	1	80	NA	639.064864227999	0	0.66	4.87	1	633.554289828	634.079482873	"16"	8419.910159414	8414.305514908	1.5	0.1
0.01	1	0.445771777999653	1	80	NA	639.064864227999	0	0.66	4.87	1	634.305596438	634.751368216	"16"	8419.910159414	8414.305514908	1.5	0.1
0.01	1	0.514891961999638	1	80	NA	639.064864227999	0	0.66	4.87	1	634.990019237	635.504911198999	"16"	8419.910159414	8414.305514908	1.5	0.1
0.01	1	0.531093800000235	1	80	NA	639.064864227999	0	0.66	4.87	1	635.741298045999	636.272391846	"16"	8419.910159414	8414.305514908	1.5	0.1
0.01	1	0.515281147000678	1	80	NA	639.064864227999	0	0.66	4.87	1	636.509300252999	637.0245814	"16"	8419.910159414	8414.305514908	1.5	0.1
0.01	1	0.474585504000061	1	80	NA	639.064864227999	0	0.66	4.87	1	637.260678490999	637.735263995	"16"	8419.910159414	8414.305514908	1.5	0.1
0.01	1	0.471148081000138	1	80	NA	639.064864227999	0	0.66	4.87	1	637.961607855999	638.432755936999	"16"	8419.910159414	8414.305514908	1.5	0.1
0.01	1	0.400412380000489	2	80	NA	639.064864227999	0	0.66	4.87	1	638.662843405999	639.063255786	"16"	8419.910159414	8414.305514908	1.5	0.1
0.01	1	0.498927889999322	1	30	660.736245086	NA	1	0	4.87	1	641.116998046	641.615925935999	"17"	8419.910159414	8414.305514908	1.5	0.1
0.01	1	0.373138121000011	1	30	660.736245086	NA	1	0	4.87	1	641.851579278	642.224717399	"17"	8419.910159414	8414.305514908	1.5	0.1
0.01	1	0.38762228700034	1	30	660.736245086	NA	1	0	4.87	1	642.452517186	642.840139473	"17"	8419.910159414	8414.305514908	1.5	0.1
0.01	1	0.401347574999818	1	30	660.736245086	NA	1	0	4.87	1	643.070230413	643.471577988	"17"	8419.910159414	8414.305514908	1.5	0.1
0.01	1	0.414215581999997	1	30	660.736245086	NA	1	0	4.87	1	643.704628531	644.118844113	"17"	8419.910159414	8414.305514908	1.5	0.1
0.01	1	0.419134437999674	1	30	660.736245086	NA	1	0	4.87	1	644.355775898	644.774910335999	"17"	8419.910159414	8414.305514908	1.5	0.1
0.01	1	0.416590962000555	1	30	660.736245086	NA	1	0	4.87	1	645.006832290999	645.423423253	"17"	8419.910159414	8414.305514908	1.5	0.1
0.01	1	0.382967053000357	1	30	660.736245086	NA	1	0	4.87	1	645.657940755999	646.040907809	"17"	8419.910159414	8414.305514908	1.5	0.1
0.01	1	0.429115760000059	1	30	660.736245086	NA	1	0	4.87	1	646.275666891	646.704782651	"17"	8419.910159414	8414.305514908	1.5	0.1
0.01	1	0.408519485000397	1	30	660.736245086	NA	1	0	4.87	1	646.926676261	647.335195746	"17"	8419.910159414	8414.305514908	1.5	0.1
0.01	1	0.399094715999126	1	30	660.736245086	NA	1	0	4.87	1	647.561094953	647.960189668999	"17"	8419.910159414	8414.305514908	1.5	0.1
0.01	1	0.372869886999979	1	30	660.736245086	NA	1	0	4.87	1	648.195502416	648.568372303	"17"	8419.910159414	8414.305514908	1.5	0.1
0.01	1	0.362431285999264	1	30	660.736245086	NA	1	0	4.87	1	648.796561778	649.158993063999	"17"	8419.910159414	8414.305514908	1.5	0.1
0.01	1	0.435426177000409	1	30	660.736245086	NA	1	0	4.87	1	649.380835352999	649.81626153	"17"	8419.910159414	8414.305514908	1.5	0.1
0.01	1	0.390265646999978	1	30	660.736245086	NA	1	0	4.87	1	650.048649900999	650.438915547999	"17"	8419.910159414	8414.305514908	1.5	0.1
0.01	1	0.398275925999769	1	30	660.736245086	NA	1	0	4.87	1	650.666382396	651.064658322	"17"	8419.910159414	8414.305514908	1.5	0.1
0.01	1	0.435442865000368	1	30	660.736245086	NA	1	0	4.87	1	651.300824970999	651.736267836	"17"	8419.910159414	8414.305514908	1.5	0.1
0.01	1	0.415719335000176	1	30	660.736245086	NA	1	0	4.87	1	651.968497790999	652.384217125999	"17"	8419.910159414	8414.305514908	1.5	0.1
0.01	1	0.443520216999786	1	30	660.736245086	NA	1	0	4.87	1	652.619629911	653.063150128	"17"	8419.910159414	8414.305514908	1.5	0.1
0.01	1	0.496452203999979	1	30	660.736245086	NA	1	0	4.87	1	653.287448886	653.78390109	"17"	8419.910159414	8414.305514908	1.5	0.1
0.01	1	0.441723748999721	1	30	660.736245086	NA	1	0	4.87	1	654.005262228	654.446985977	"17"	8419.910159414	8414.305514908	1.5	0.1
0.01	1	0.453737045999333	1	30	660.736245086	NA	1	0	4.87	1	654.673127647	655.126864692999	"17"	8419.910159414	8414.305514908	1.5	0.1
0.01	1	0.395453985000131	1	30	660.736245086	NA	1	0	4.87	1	655.357577356	655.753031341	"17"	8419.910159414	8414.305514908	1.5	0.1
0.01	1	0.417006890000266	1	30	660.736245086	NA	1	0	4.87	1	655.975234721	656.392241611	"17"	8419.910159414	8414.305514908	1.5	0.1
0.01	1	0.470010666000235	1	30	660.736245086	NA	1	0	4.87	1	656.626269320999	657.096279986999	"17"	8419.910159414	8414.305514908	1.5	0.1
0.01	1	0.408602450000217	1	30	660.736245086	NA	1	0	4.87	1	657.327528438	657.736130888	"17"	8419.910159414	8414.305514908	1.5	0.1
0.01	1	0.461701653000091	1	30	660.736245086	NA	1	0	4.87	1	657.961993276	658.423694929	"17"	8419.910159414	8414.305514908	1.5	0.1
0.01	1	0.393391331000203	1	30	660.736245086	NA	1	0	4.87	1	658.663089528	659.056480859	"17"	8419.910159414	8414.305514908	1.5	0.1
0.01	1	0.480014357000073	1	30	660.736245086	NA	1	0	4.87	1	659.280723288	659.760737645	"17"	8419.910159414	8414.305514908	1.5	0.1
0.01	1	0.625536630999704	1	30	660.736245086	NA	1	0	4.87	1	659.998618828	660.624155459	"17"	8419.910159414	8414.305514908	1.5	0.1
0.01	1	0.364993485000014	1	77	NA	698.664659577999	0	0.5	5.37	1	662.786661226	663.151654711	"18"	8419.910159414	8414.305514908	1.5	0.1
0.01	1	0.395280067000385	1	77	NA	698.664659577999	0	0.5	5.37	1	663.387728217999	663.783008285	"18"	8419.910159414	8414.305514908	1.5	0.1
0.01	1	0.450200238999969	1	77	NA	698.664659577999	0	0.5	5.37	1	664.005408665999	664.455608904999	"18"	8419.910159414	8414.305514908	1.5	0.1
0.01	1	0.438375708999956	1	77	NA	698.664659577999	0	0.5	5.37	1	664.689907430999	665.128283139999	"18"	8419.910159414	8414.305514908	1.5	0.1
0.01	1	0.409825031000764	1	77	NA	698.664659577999	0	0.5	5.37	1	665.357776147999	665.767601179	"18"	8419.910159414	8414.305514908	1.5	0.1
0.01	1	0.407593167000414	1	77	NA	698.664659577999	0	0.5	5.37	1	665.992075665999	666.399668833	"18"	8419.910159414	8414.305514908	1.5	0.1
0.01	1	0.414327763000074	1	77	NA	698.664659577999	0	0.5	5.37	1	666.626524345999	667.040852108999	"18"	8419.910159414	8414.305514908	1.5	0.1
0.01	1	0.402640928000437	1	77	NA	698.664659577999	0	0.5	5.37	1	667.277600775999	667.680241704	"18"	8419.910159414	8414.305514908	1.5	0.1
0.01	1	0.424610114999268	1	77	NA	698.664659577999	0	0.5	5.37	1	667.912011468	668.336621582999	"18"	8419.910159414	8414.305514908	1.5	0.1
0.01	1	0.444978454000193	1	77	NA	698.664659577999	0	0.5	5.37	1	668.563072495999	669.008050949999	"18"	8419.910159414	8414.305514908	1.5	0.1
0.01	1	0.432512358000167	1	77	NA	698.664659577999	0	0.5	5.37	1	669.230841086	669.663353444	"18"	8419.910159414	8414.305514908	1.5	0.1
0.01	1	0.42857533499955	1	77	NA	698.664659577999	0	0.5	5.37	1	669.898705861	670.327281196	"18"	8419.910159414	8414.305514908	1.5	0.1
0.01	1	0.465490910000881	1	77	NA	698.664659577999	0	0.5	5.37	1	670.566378160999	671.031869071	"18"	8419.910159414	8414.305514908	1.5	0.1
0.01	1	0.428659629999856	1	77	NA	698.664659577999	0	0.5	5.37	1	671.267621241	671.696280871	"18"	8419.910159414	8414.305514908	1.5	0.1
0.01	1	0.489274281000689	1	77	NA	698.664659577999	0	0.5	5.37	1	671.918762255999	672.408036537	"18"	8419.910159414	8414.305514908	1.5	0.1
0.01	1	0.483131829999365	1	77	NA	698.664659577999	0	0.5	5.37	1	672.636621793	673.119753622999	"18"	8419.910159414	8414.305514908	1.5	0.1
0.01	1	0.445019114999923	1	77	NA	698.664659577999	0	0.5	5.37	1	673.354511435999	673.799530550999	"18"	8419.910159414	8414.305514908	1.5	0.1
0.01	1	0.504838931999984	1	77	NA	698.664659577999	0	0.5	5.37	1	674.038928751	674.543767683	"18"	8419.910159414	8414.305514908	1.5	0.1
0.01	1	0.427146545000141	1	77	NA	698.664659577999	0	0.5	5.37	1	674.773489241	675.200635786	"18"	8419.910159414	8414.305514908	1.5	0.1
0.01	1	0.494165617000363	1	77	NA	698.664659577999	0	0.5	5.37	1	675.424585305999	675.918750923	"18"	8419.910159414	8414.305514908	1.5	0.1
0.01	1	0.498019102000399	1	77	NA	698.664659577999	0	0.5	5.37	1	676.142384985999	676.640404088	"18"	8419.910159414	8414.305514908	1.5	0.1
