"payoff.level"	"balloon"	"rt"	"resp"	"explode.trial"	"explode.time"	"finish.time"	"exploded"	"trial.total"	"cumulative.total"	"finished"	"trial.start"	"trial.end"	"trial.num"	"secs"	"start.time"	"iti"	"isi"
0.01	1	2.37527316399792	1	64	NA	20.7060431550017	0	0.11	0.11	1	0.0243809890016564	2.39965415299957	"1"	20438.882162005	20431.359483471	1.5	0.1
0.01	1	1.27822576000108	1	64	NA	20.7060431550017	0	0.11	0.11	1	2.76228183800049	4.04050759800157	"1"	20438.882162005	20431.359483471	1.5	0.1
0.01	1	1.8774967620011	1	64	NA	20.7060431550017	0	0.11	0.11	1	4.28162114199949	6.1591179040006	"1"	20438.882162005	20431.359483471	1.5	0.1
0.01	1	1.36602966600185	1	64	NA	20.7060431550017	0	0.11	0.11	1	6.38510017199951	7.75112983800136	"1"	20438.882162005	20431.359483471	1.5	0.1
0.01	1	1.90756752299785	1	64	NA	20.7060431550017	0	0.11	0.11	1	7.98778824200053	9.89535576499838	"1"	20438.882162005	20431.359483471	1.5	0.1
0.01	1	1.14826135199837	1	64	NA	20.7060431550017	0	0.11	0.11	1	10.1246410120002	11.2729023639986	"1"	20438.882162005	20431.359483471	1.5	0.1
0.01	1	1.67357534999974	1	64	NA	20.7060431550017	0	0.11	0.11	1	11.5102756699998	13.1838510199996	"1"	20438.882162005	20431.359483471	1.5	0.1
0.01	1	1.44153190999714	1	64	NA	20.7060431550017	0	0.11	0.11	1	13.4136150170016	14.8551469269987	"1"	20438.882162005	20431.359483471	1.5	0.1
0.01	1	1.14829956199901	1	64	NA	20.7060431550017	0	0.11	0.11	1	15.08304469	16.231344251999	"1"	20438.882162005	20431.359483471	1.5	0.1
0.01	1	1.11589107100008	1	64	NA	20.7060431550017	0	0.11	0.11	1	16.4687267599984	17.5846178309985	"1"	20438.882162005	20431.359483471	1.5	0.1
0.01	1	1.39542404100212	1	64	NA	20.7060431550017	0	0.11	0.11	1	17.8209609699989	19.216385011001	"1"	20438.882162005	20431.359483471	1.5	0.1
0.01	1	1.24734616500064	2	64	NA	20.7060431550017	0	0.11	0.11	1	19.457148685	20.7044948500006	"1"	20438.882162005	20431.359483471	1.5	0.1
0.01	1	0.741392847998213	1	102	NA	41.2898328219999	0	0.26	0.37	1	22.7626762750006	23.5040691229988	"2"	20438.882162005	20431.359483471	1.5	0.1
0.01	1	0.269389503002458	1	102	NA	41.2898328219999	0	0.26	0.37	1	23.7309613469988	24.0003508500013	"2"	20438.882162005	20431.359483471	1.5	0.1
0.01	1	0.281139589998929	1	102	NA	41.2898328219999	0	0.26	0.37	1	24.2317780420017	24.5129176320006	"2"	20438.882162005	20431.359483471	1.5	0.1
0.01	1	0.227222588000586	1	102	NA	41.2898328219999	0	0.26	0.37	1	24.7492543650005	24.9764769530011	"2"	20438.882162005	20431.359483471	1.5	0.1
0.01	1	0.249029001999588	1	102	NA	41.2898328219999	0	0.26	0.37	1	25.2000824899987	25.4491114919983	"2"	20438.882162005	20431.359483471	1.5	0.1
0.01	1	0.23656320200098	1	102	NA	41.2898328219999	0	0.26	0.37	1	25.684239825001	25.920803027002	"2"	20438.882162005	20431.359483471	1.5	0.1
0.01	1	0.247673702000611	1	102	NA	41.2898328219999	0	0.26	0.37	1	26.151659064999	26.3993327669996	"2"	20438.882162005	20431.359483471	1.5	0.1
0.01	1	0.229157915000542	1	102	NA	41.2898328219999	0	0.26	0.37	1	26.6358597149992	26.8650176299998	"2"	20438.882162005	20431.359483471	1.5	0.1
0.01	1	0.241403934000118	1	102	NA	41.2898328219999	0	0.26	0.37	1	27.103221325	27.3446252590002	"2"	20438.882162005	20431.359483471	1.5	0.1
0.01	1	0.277452000998892	1	102	NA	41.2898328219999	0	0.26	0.37	1	27.5707162399995	27.8481682409983	"2"	20438.882162005	20431.359483471	1.5	0.1
0.01	1	0.336796895000589	1	102	NA	41.2898328219999	0	0.26	0.37	1	28.0716673749994	28.40846427	"2"	20438.882162005	20431.359483471	1.5	0.1
0.01	1	0.425159028000053	1	102	NA	41.2898328219999	0	0.26	0.37	1	28.6391863450008	29.0643453730008	"2"	20438.882162005	20431.359483471	1.5	0.1
0.01	1	1.50932112399823	1	102	NA	41.2898328219999	0	0.26	0.37	1	29.2905071450004	30.7998282689987	"2"	20438.882162005	20431.359483471	1.5	0.1
0.01	1	0.286830531000305	1	102	NA	41.2898328219999	0	0.26	0.37	1	31.0264968820011	31.3133274130014	"2"	20438.882162005	20431.359483471	1.5	0.1
0.01	1	0.31296310900143	1	102	NA	41.2898328219999	0	0.26	0.37	1	31.5441657449992	31.8571288540006	"2"	20438.882162005	20431.359483471	1.5	0.1
0.01	1	1.34434846699878	1	102	NA	41.2898328219999	0	0.26	0.37	1	32.0950074700013	33.4393559370001	"2"	20438.882162005	20431.359483471	1.5	0.1
0.01	1	0.294990488997428	1	102	NA	41.2898328219999	0	0.26	0.37	1	33.6642846370014	33.9592751259988	"2"	20438.882162005	20431.359483471	1.5	0.1
0.01	1	0.298257107002428	1	102	NA	41.2898328219999	0	0.26	0.37	1	34.1818572849988	34.4801143920013	"2"	20438.882162005	20431.359483471	1.5	0.1
0.01	1	0.94875646500077	1	102	NA	41.2898328219999	0	0.26	0.37	1	34.7160741849984	35.6648306499992	"2"	20438.882162005	20431.359483471	1.5	0.1
0.01	1	0.257830919999833	1	102	NA	41.2898328219999	0	0.26	0.37	1	35.9015139049989	36.1593448249987	"2"	20438.882162005	20431.359483471	1.5	0.1
0.01	1	0.295206524002424	1	102	NA	41.2898328219999	0	0.26	0.37	1	36.3856766069985	36.6808831310009	"2"	20438.882162005	20431.359483471	1.5	0.1
0.01	1	0.897675722997519	1	102	NA	41.2898328219999	0	0.26	0.37	1	36.9029652210011	37.8006409439986	"2"	20438.882162005	20431.359483471	1.5	0.1
0.01	1	0.274284039001941	1	102	NA	41.2898328219999	0	0.26	0.37	1	38.038319334999	38.3126033740009	"2"	20438.882162005	20431.359483471	1.5	0.1
0.01	1	0.261358009000105	1	102	NA	41.2898328219999	0	0.26	0.37	1	38.5392163399993	38.8005743489994	"2"	20438.882162005	20431.359483471	1.5	0.1
0.01	1	0.688724258001457	1	102	NA	41.2898328219999	0	0.26	0.37	1	39.0233244970004	39.7120487550019	"2"	20438.882162005	20431.359483471	1.5	0.1
0.01	1	0.2656125350004	1	102	NA	41.2898328219999	0	0.26	0.37	1	39.9415542319985	40.2071667669989	"2"	20438.882162005	20431.359483471	1.5	0.1
0.01	1	0.845952884999861	2	102	NA	41.2898328219999	0	0.26	0.37	1	40.4423626770003	41.2883155620002	"2"	20438.882162005	20431.359483471	1.5	0.1
0.01	1	0.476667102997453	1	97	NA	61.6657136169997	0	0.39	0.76	1	43.3473783820009	43.8240454849984	"3"	20438.882162005	20431.359483471	1.5	0.1
0.01	1	0.00702714300132357	1	97	NA	61.6657136169997	0	0.39	0.76	1	44.0651840419996	44.0722111850009	"3"	20438.882162005	20431.359483471	1.5	0.1
0.01	1	0.0138368890002312	1	97	NA	61.6657136169997	0	0.39	0.76	1	44.2987963999985	44.3126332889988	"3"	20438.882162005	20431.359483471	1.5	0.1
0.01	1	0.00325580400021863	1	97	NA	61.6657136169997	0	0.39	0.76	1	44.549290723	44.5525465270002	"3"	20438.882162005	20431.359483471	1.5	0.1
0.01	1	0.00330798499999219	1	97	NA	61.6657136169997	0	0.39	0.76	1	44.7829425300006	44.7862505150006	"3"	20438.882162005	20431.359483471	1.5	0.1
0.01	1	0.00389021299997694	1	97	NA	61.6657136169997	0	0.39	0.76	1	45.0168002220016	45.0206904350016	"3"	20438.882162005	20431.359483471	1.5	0.1
0.01	1	0.00290877999941586	1	97	NA	61.6657136169997	0	0.39	0.76	1	45.2504239250011	45.2533327050005	"3"	20438.882162005	20431.359483471	1.5	0.1
0.01	1	0.00342874700072571	1	97	NA	61.6657136169997	0	0.39	0.76	1	45.4841967020002	45.4876254490009	"3"	20438.882162005	20431.359483471	1.5	0.1
0.01	1	0.019105261999357	1	97	NA	61.6657136169997	0	0.39	0.76	1	45.7177739360013	45.7368791980007	"3"	20438.882162005	20431.359483471	1.5	0.1
0.01	1	0.0150417129989364	1	97	NA	61.6657136169997	0	0.39	0.76	1	45.9683612500012	45.9834029630001	"3"	20438.882162005	20431.359483471	1.5	0.1
0.01	1	0.0203227389974927	1	97	NA	61.6657136169997	0	0.39	0.76	1	46.2188438820012	46.2391666209987	"3"	20438.882162005	20431.359483471	1.5	0.1
0.01	1	0.0276930389991321	1	97	NA	61.6657136169997	0	0.39	0.76	1	46.4692897519999	46.496982790999	"3"	20438.882162005	20431.359483471	1.5	0.1
0.01	1	0.0564987739999196	1	97	NA	61.6657136169997	0	0.39	0.76	1	46.7196325779987	46.7761313519986	"3"	20438.882162005	20431.359483471	1.5	0.1
0.01	1	0.0455008970020572	1	97	NA	61.6657136169997	0	0.39	0.76	1	47.0034258749984	47.0489267720004	"3"	20438.882162005	20431.359483471	1.5	0.1
0.01	1	0.00394482599949697	1	97	NA	61.6657136169997	0	0.39	0.76	1	47.2871596570003	47.2911044829998	"3"	20438.882162005	20431.359483471	1.5	0.1
0.01	1	0.0395953400002327	1	97	NA	61.6657136169997	0	0.39	0.76	1	47.5209539589996	47.5605492989998	"3"	20438.882162005	20431.359483471	1.5	0.1
0.01	1	0.0447487130004447	1	97	NA	61.6657136169997	0	0.39	0.76	1	47.7881586719996	47.832907385	"3"	20438.882162005	20431.359483471	1.5	0.1
0.01	1	0.0323511380011041	1	97	NA	61.6657136169997	0	0.39	0.76	1	48.0551239849992	48.0874751230003	"3"	20438.882162005	20431.359483471	1.5	0.1
0.01	1	0.0375467720004963	1	97	NA	61.6657136169997	0	0.39	0.76	1	48.3222647670009	48.3598115390014	"3"	20438.882162005	20431.359483471	1.5	0.1
0.01	1	0.0512938380015839	1	97	NA	61.6657136169997	0	0.39	0.76	1	48.5894287519986	48.6407225900002	"3"	20438.882162005	20431.359483471	1.5	0.1
0.01	1	0.0464882160013076	1	97	NA	61.6657136169997	0	0.39	0.76	1	48.8733147169987	48.919802933	"3"	20438.882162005	20431.359483471	1.5	0.1
0.01	1	0.0425399849991663	1	97	NA	61.6657136169997	0	0.39	0.76	1	49.1571992669997	49.1997392519988	"3"	20438.882162005	20431.359483471	1.5	0.1
0.01	1	0.10374776000026	1	97	NA	61.6657136169997	0	0.39	0.76	1	49.4240913520007	49.5278391120009	"3"	20438.882162005	20431.359483471	1.5	0.1
0.01	1	0.905354996000824	1	97	NA	61.6657136169997	0	0.39	0.76	1	49.7580158769997	50.6633708730005	"3"	20438.882162005	20431.359483471	1.5	0.1
0.01	1	0.650710926001921	1	97	NA	61.6657136169997	0	0.39	0.76	1	50.8932421749996	51.5439531010015	"3"	20438.882162005	20431.359483471	1.5	0.1
0.01	1	0.89455906099829	1	97	NA	61.6657136169997	0	0.39	0.76	1	51.7780746700009	52.6726337309992	"3"	20438.882162005	20431.359483471	1.5	0.1
0.01	1	0.680243103997782	1	97	NA	61.6657136169997	0	0.39	0.76	1	52.896708657001	53.5769517609988	"3"	20438.882162005	20431.359483471	1.5	0.1
0.01	1	0.272708743999829	1	97	NA	61.6657136169997	0	0.39	0.76	1	53.8148625799986	54.0875713239984	"3"	20438.882162005	20431.359483471	1.5	0.1
0.01	1	0.307926722998673	1	97	NA	61.6657136169997	0	0.39	0.76	1	54.315712347001	54.6236390699996	"3"	20438.882162005	20431.359483471	1.5	0.1
0.01	1	0.350346809002076	1	97	NA	61.6657136169997	0	0.39	0.76	1	54.8499041799987	55.2002509890008	"3"	20438.882162005	20431.359483471	1.5	0.1
0.01	1	0.325610579002387	1	97	NA	61.6657136169997	0	0.39	0.76	1	55.4342760219988	55.7598866010012	"3"	20438.882162005	20431.359483471	1.5	0.1
0.01	1	0.286884853001538	1	97	NA	61.6657136169997	0	0.39	0.76	1	55.9852487169992	56.2721335700007	"3"	20438.882162005	20431.359483471	1.5	0.1
0.01	1	0.328466598999512	1	97	NA	61.6657136169997	0	0.39	0.76	1	56.5027818250019	56.8312484240014	"3"	20438.882162005	20431.359483471	1.5	0.1
0.01	1	0.361592920999101	1	97	NA	61.6657136169997	0	0.39	0.76	1	57.053676765001	57.4152696860001	"3"	20438.882162005	20431.359483471	1.5	0.1
0.01	1	0.258668654998473	1	97	NA	61.6657136169997	0	0.39	0.76	1	57.6380394750013	57.8967081299998	"3"	20438.882162005	20431.359483471	1.5	0.1
0.01	1	0.333474058999855	1	97	NA	61.6657136169997	0	0.39	0.76	1	58.1221199169995	58.4555939759994	"3"	20438.882162005	20431.359483471	1.5	0.1
0.01	1	0.270645756001613	1	97	NA	61.6657136169997	0	0.39	0.76	1	58.6897335100002	58.9603792660018	"3"	20438.882162005	20431.359483471	1.5	0.1
0.01	1	0.329481918997772	1	97	NA	61.6657136169997	0	0.39	0.76	1	59.1906967610012	59.5201786799989	"3"	20438.882162005	20431.359483471	1.5	0.1
0.01	1	1.12193155299974	1	97	NA	61.6657136169997	0	0.39	0.76	1	59.7582321199989	60.8801636729986	"3"	20438.882162005	20431.359483471	1.5	0.1
0.01	1	0.553520282999671	2	97	NA	61.6657136169997	0	0.39	0.76	1	61.1105189689988	61.6640392519985	"3"	20438.882162005	20431.359483471	1.5	0.1
0.01	1	0.605386731996987	1	51	NA	85.6664664630007	0	0.5	1.26	1	63.7148874010018	64.3202741329987	"4"	20438.882162005	20431.359483471	1.5	0.1
0.01	1	0.354172314000607	1	51	NA	85.6664664630007	0	0.5	1.26	1	64.5496919299985	64.9038642439991	"4"	20438.882162005	20431.359483471	1.5	0.1
0.01	1	0.178026465000585	1	51	NA	85.6664664630007	0	0.5	1.26	1	65.1339107599997	65.3119372250003	"4"	20438.882162005	20431.359483471	1.5	0.1
0.01	1	0.0568112879991531	1	51	NA	85.6664664630007	0	0.5	1.26	1	65.5512816750015	65.6080929630007	"4"	20438.882162005	20431.359483471	1.5	0.1
0.01	1	0.0687019469987717	1	51	NA	85.6664664630007	0	0.5	1.26	1	65.8351465369997	65.9038484839984	"4"	20438.882162005	20431.359483471	1.5	0.1
0.01	1	0.00367710099817486	1	51	NA	85.6664664630007	0	0.5	1.26	1	66.1355353520012	66.1392124529993	"4"	20438.882162005	20431.359483471	1.5	0.1
0.01	1	0.00385873800041736	1	51	NA	85.6664664630007	0	0.5	1.26	1	66.369255005	66.3731137430004	"4"	20438.882162005	20431.359483471	1.5	0.1
0.01	1	0.00397211500239791	1	51	NA	85.6664664630007	0	0.5	1.26	1	66.6030848599985	66.6070569750009	"4"	20438.882162005	20431.359483471	1.5	0.1
0.01	1	0.00278816699938034	1	51	NA	85.6664664630007	0	0.5	1.26	1	66.8368036550019	66.8395918220012	"4"	20438.882162005	20431.359483471	1.5	0.1
0.01	1	0.00254859999768087	1	51	NA	85.6664664630007	0	0.5	1.26	1	67.0704847310008	67.0730333309984	"4"	20438.882162005	20431.359483471	1.5	0.1
0.01	1	0.0157251769996947	1	51	NA	85.6664664630007	0	0.5	1.26	1	67.3041551919996	67.3198803689993	"4"	20438.882162005	20431.359483471	1.5	0.1
0.01	1	0.00730896900131484	1	51	NA	85.6664664630007	0	0.5	1.26	1	67.5547146099998	67.5620235790011	"4"	20438.882162005	20431.359483471	1.5	0.1
0.01	1	0.01932811900042	1	51	NA	85.6664664630007	0	0.5	1.26	1	67.7883460019984	67.8076741209989	"4"	20438.882162005	20431.359483471	1.5	0.1
0.01	1	0.00314820000130567	1	51	NA	85.6664664630007	0	0.5	1.26	1	68.038722153	68.0418703530013	"4"	20438.882162005	20431.359483471	1.5	0.1
0.01	1	0.0404351129982388	1	51	NA	85.6664664630007	0	0.5	1.26	1	68.2724942970017	68.3129294099999	"4"	20438.882162005	20431.359483471	1.5	0.1
0.01	1	0.0521208919999481	1	51	NA	85.6664664630007	0	0.5	1.26	1	68.539678475001	68.5917993670009	"4"	20438.882162005	20431.359483471	1.5	0.1
0.01	1	0.0324045199995453	1	51	NA	85.6664664630007	0	0.5	1.26	1	68.8234933550011	68.8558978750007	"4"	20438.882162005	20431.359483471	1.5	0.1
0.01	1	0.0377736789996561	1	51	NA	85.6664664630007	0	0.5	1.26	1	69.0906489720001	69.1284226509997	"4"	20438.882162005	20431.359483471	1.5	0.1
0.01	1	0.0747431900017546	1	51	NA	85.6664664630007	0	0.5	1.26	1	69.3576628369992	69.432406027001	"4"	20438.882162005	20431.359483471	1.5	0.1
0.01	1	0.0464846469985787	1	51	NA	85.6664664630007	0	0.5	1.26	1	69.6583534050005	69.7048380519991	"4"	20438.882162005	20431.359483471	1.5	0.1
0.01	1	0.0571970679993683	1	51	NA	85.6664664630007	0	0.5	1.26	1	69.9420004919994	69.9991975599987	"4"	20438.882162005	20431.359483471	1.5	0.1
0.01	1	0.0789915499990457	1	51	NA	85.6664664630007	0	0.5	1.26	1	70.2258069900017	70.3047985400008	"4"	20438.882162005	20431.359483471	1.5	0.1
0.01	1	0.058238532001269	1	51	NA	85.6664664630007	0	0.5	1.26	1	70.54297563	70.6012141620013	"4"	20438.882162005	20431.359483471	1.5	0.1
0.01	1	0.134219061001204	1	51	NA	85.6664664630007	0	0.5	1.26	1	70.8268707610005	70.9610898220017	"4"	20438.882162005	20431.359483471	1.5	0.1
0.01	1	0.206123263000336	1	51	NA	85.6664664630007	0	0.5	1.26	1	71.1941234900005	71.4002467530008	"4"	20438.882162005	20431.359483471	1.5	0.1
0.01	1	0.267253925001569	1	51	NA	85.6664664630007	0	0.5	1.26	1	71.628334555	71.8955884800016	"4"	20438.882162005	20431.359483471	1.5	0.1
0.01	1	0.46285298300063	1	51	NA	85.6664664630007	0	0.5	1.26	1	72.1290200699987	72.5918730529993	"4"	20438.882162005	20431.359483471	1.5	0.1
0.01	1	0.042369080001663	1	51	NA	85.6664664630007	0	0.5	1.26	1	72.8301393619986	72.8725084420003	"4"	20438.882162005	20431.359483471	1.5	0.1
0.01	1	0.350437580000289	1	51	NA	85.6664664630007	0	0.5	1.26	1	73.0973613649985	73.4477989449988	"4"	20438.882162005	20431.359483471	1.5	0.1
0.01	1	0.199527910001052	1	51	NA	85.6664664630007	0	0.5	1.26	1	73.6816757720007	73.8812036820018	"4"	20438.882162005	20431.359483471	1.5	0.1
0.01	1	0.212953038000705	1	51	NA	85.6664664630007	0	0.5	1.26	1	74.1157609420006	74.3287139800013	"4"	20438.882162005	20431.359483471	1.5	0.1
0.01	1	0.22600520999913	1	51	NA	85.6664664630007	0	0.5	1.26	1	74.5664172700017	74.7924224800008	"4"	20438.882162005	20431.359483471	1.5	0.1
0.01	1	0.25398425000094	1	51	NA	85.6664664630007	0	0.5	1.26	1	75.0172750450001	75.2712592950011	"4"	20438.882162005	20431.359483471	1.5	0.1
0.01	1	0.203687372999411	1	51	NA	85.6664664630007	0	0.5	1.26	1	75.5013052249997	75.7049925979991	"4"	20438.882162005	20431.359483471	1.5	0.1
0.01	1	0.240689909998764	1	51	NA	85.6664664630007	0	0.5	1.26	1	75.9354186900018	76.1761086000006	"4"	20438.882162005	20431.359483471	1.5	0.1
0.01	1	0.261498302999826	1	51	NA	85.6664664630007	0	0.5	1.26	1	76.4028408049999	76.6643391079997	"4"	20438.882162005	20431.359483471	1.5	0.1
0.01	1	0.241724824998528	1	51	NA	85.6664664630007	0	0.5	1.26	1	76.886929010001	77.1286538349996	"4"	20438.882162005	20431.359483471	1.5	0.1
0.01	1	0.228905275998841	1	51	NA	85.6664664630007	0	0.5	1.26	1	77.3544228600003	77.5833281359992	"4"	20438.882162005	20431.359483471	1.5	0.1
0.01	1	0.241550638998888	1	51	NA	85.6664664630007	0	0.5	1.26	1	77.821897965001	78.0634486039999	"4"	20438.882162005	20431.359483471	1.5	0.1
0.01	1	0.231209472000046	1	51	NA	85.6664664630007	0	0.5	1.26	1	78.2893736740007	78.5205831460007	"4"	20438.882162005	20431.359483471	1.5	0.1
0.01	1	0.355132836997655	1	51	NA	85.6664664630007	0	0.5	1.26	1	78.7569233620015	79.1120561989992	"4"	20438.882162005	20431.359483471	1.5	0.1
0.01	1	0.274081679999654	1	51	NA	85.6664664630007	0	0.5	1.26	1	79.3412428769989	79.6153245569985	"4"	20438.882162005	20431.359483471	1.5	0.1
0.01	1	0.278483671998401	1	51	NA	85.6664664630007	0	0.5	1.26	1	79.8419527400001	80.1204364119985	"4"	20438.882162005	20431.359483471	1.5	0.1
0.01	1	0.305341502000374	1	51	NA	85.6664664630007	0	0.5	1.26	1	80.3428295220001	80.6481710240005	"4"	20438.882162005	20431.359483471	1.5	0.1
0.01	1	0.32318711300104	1	51	NA	85.6664664630007	0	0.5	1.26	1	80.8770903619989	81.2002774749999	"4"	20438.882162005	20431.359483471	1.5	0.1
0.01	1	0.308753242999956	1	51	NA	85.6664664630007	0	0.5	1.26	1	81.4279760569989	81.7367292999988	"4"	20438.882162005	20431.359483471	1.5	0.1
0.01	1	0.253479527000309	1	51	NA	85.6664664630007	0	0.5	1.26	1	81.9622776969991	82.2157572239994	"4"	20438.882162005	20431.359483471	1.5	0.1
0.01	1	0.338618589001271	1	51	NA	85.6664664630007	0	0.5	1.26	1	82.4463526149993	82.7849712040006	"4"	20438.882162005	20431.359483471	1.5	0.1
0.01	1	0.482748817998072	1	51	NA	85.6664664630007	0	0.5	1.26	1	83.0140185400014	83.4967673579995	"4"	20438.882162005	20431.359483471	1.5	0.1
0.01	1	0.435525918001076	1	51	NA	85.6664664630007	0	0.5	1.26	1	83.7318405149999	84.167366433001	"4"	20438.882162005	20431.359483471	1.5	0.1
0.01	1	1.26529713900163	2	51	NA	85.6664664630007	0	0.5	1.26	1	84.3996570499985	85.6649541890001	"4"	20438.882162005	20431.359483471	1.5	0.1
0.01	1	0.647136899999168	1	116	NA	120.985405489999	0	0.69	1.95	1	87.7218934900011	88.3690303900003	"5"	20438.882162005	20431.359483471	1.5	0.1
0.01	1	0.00217051000072388	1	116	NA	120.985405489999	0	0.69	1.95	1	88.6067498029988	88.6089203129995	"5"	20438.882162005	20431.359483471	1.5	0.1
0.01	1	0.00202093999905628	1	116	NA	120.985405489999	0	0.69	1.95	1	88.840471173	88.842492112999	"5"	20438.882162005	20431.359483471	1.5	0.1
0.01	1	0.00205905999973766	1	116	NA	120.985405489999	0	0.69	1.95	1	89.0741074739999	89.0761665339996	"5"	20438.882162005	20431.359483471	1.5	0.1
0.01	1	0.0131661880004685	1	116	NA	120.985405489999	0	0.69	1.95	1	89.3079375220004	89.3211037100009	"5"	20438.882162005	20431.359483471	1.5	0.1
0.01	1	0.00308351200146717	1	116	NA	120.985405489999	0	0.69	1.95	1	89.558309570999	89.5613930830004	"5"	20438.882162005	20431.359483471	1.5	0.1
0.01	1	0.00215762500010896	1	116	NA	120.985405489999	0	0.69	1.95	1	89.7921500359989	89.794307660999	"5"	20438.882162005	20431.359483471	1.5	0.1
0.01	1	0.00334281300092698	1	116	NA	120.985405489999	0	0.69	1.95	1	90.025745682	90.0290884950009	"5"	20438.882162005	20431.359483471	1.5	0.1
0.01	1	0.0117925570011721	1	116	NA	120.985405489999	0	0.69	1.95	1	90.2595164529994	90.2713090100006	"5"	20438.882162005	20431.359483471	1.5	0.1
0.01	1	0.00298848799866391	1	116	NA	120.985405489999	0	0.69	1.95	1	90.5099464990017	90.5129349870003	"5"	20438.882162005	20431.359483471	1.5	0.1
0.01	1	0.464737599999353	1	116	NA	120.985405489999	0	0.69	1.95	1	90.7437437500012	91.2084813500005	"5"	20438.882162005	20431.359483471	1.5	0.1
0.01	1	0.00215552100053173	1	116	NA	120.985405489999	0	0.69	1.95	1	91.4447746820006	91.4469302030011	"5"	20438.882162005	20431.359483471	1.5	0.1
0.01	1	0.0258536159999494	1	116	NA	120.985405489999	0	0.69	1.95	1	91.6786010530013	91.7044546690013	"5"	20438.882162005	20431.359483471	1.5	0.1
0.01	1	0.0308482469990849	1	116	NA	120.985405489999	0	0.69	1.95	1	91.9289290400011	91.9597772870002	"5"	20438.882162005	20431.359483471	1.5	0.1
0.01	1	0.0442259629999171	1	116	NA	120.985405489999	0	0.69	1.95	1	92.1961726519985	92.2403986149984	"5"	20438.882162005	20431.359483471	1.5	0.1
0.01	1	0.0489445549974334	1	116	NA	120.985405489999	0	0.69	1.95	1	92.463240598001	92.5121851529984	"5"	20438.882162005	20431.359483471	1.5	0.1
0.01	1	0.0375467659978312	1	116	NA	120.985405489999	0	0.69	1.95	1	92.7471094700013	92.7846562359991	"5"	20438.882162005	20431.359483471	1.5	0.1
0.01	1	0.0496283140018932	1	116	NA	120.985405489999	0	0.69	1.95	1	93.0141866999984	93.0638150140003	"5"	20438.882162005	20431.359483471	1.5	0.1
0.01	1	0.0227036630021757	1	116	NA	120.985405489999	0	0.69	1.95	1	93.2978794619994	93.3205831250016	"5"	20438.882162005	20431.359483471	1.5	0.1
0.01	1	0.0352133250016777	1	116	NA	120.985405489999	0	0.69	1.95	1	93.5484421549991	93.5836554800007	"5"	20438.882162005	20431.359483471	1.5	0.1
0.01	1	0.306351134997385	1	116	NA	120.985405489999	0	0.69	1.95	1	93.8155462050017	94.1218973399991	"5"	20438.882162005	20431.359483471	1.5	0.1
0.01	1	0.0591489580001507	1	116	NA	120.985405489999	0	0.69	1.95	1	94.349688074999	94.4088370329991	"5"	20438.882162005	20431.359483471	1.5	0.1
0.01	1	0.12749496899778	1	116	NA	120.985405489999	0	0.69	1.95	1	94.6335870920011	94.7610820609989	"5"	20438.882162005	20431.359483471	1.5	0.1
0.01	1	0.599291683000047	1	116	NA	120.985405489999	0	0.69	1.95	1	95.0009054799993	95.6001971629994	"5"	20438.882162005	20431.359483471	1.5	0.1
0.01	1	0.212194447001821	1	116	NA	120.985405489999	0	0.69	1.95	1	95.8355466499997	96.0477410970016	"5"	20438.882162005	20431.359483471	1.5	0.1
0.01	1	0.163495384000271	1	116	NA	120.985405489999	0	0.69	1.95	1	96.2695798599998	96.4330752440001	"5"	20438.882162005	20431.359483471	1.5	0.1
0.01	1	0.201979752997431	1	116	NA	120.985405489999	0	0.69	1.95	1	96.6703809050014	96.8723606579988	"5"	20438.882162005	20431.359483471	1.5	0.1
0.01	1	0.12797539100211	1	116	NA	120.985405489999	0	0.69	1.95	1	97.104220412999	97.2321958040011	"5"	20438.882162005	20431.359483471	1.5	0.1
0.01	1	0.144564123002056	1	116	NA	120.985405489999	0	0.69	1.95	1	97.4550498099998	97.5996139330018	"5"	20438.882162005	20431.359483471	1.5	0.1
0.01	1	0.13875915600147	1	116	NA	120.985405489999	0	0.69	1.95	1	97.8223773749996	97.9611365310011	"5"	20438.882162005	20431.359483471	1.5	0.1
0.01	1	0.195485934997123	1	116	NA	120.985405489999	0	0.69	1.95	1	98.1895774270015	98.3850633619986	"5"	20438.882162005	20431.359483471	1.5	0.1
0.01	1	0.400723350998305	1	116	NA	120.985405489999	0	0.69	1.95	1	98.623554490001	99.0242778409993	"5"	20438.882162005	20431.359483471	1.5	0.1
0.01	1	0.245336484000291	1	116	NA	120.985405489999	0	0.69	1.95	1	99.2580532249995	99.5033897089997	"5"	20438.882162005	20431.359483471	1.5	0.1
0.01	1	0.211513657999603	1	116	NA	120.985405489999	0	0.69	1.95	1	99.7254575039988	99.9369711619984	"5"	20438.882162005	20431.359483471	1.5	0.1
0.01	1	0.22444291499778	1	116	NA	120.985405489999	0	0.69	1.95	1	100.159540592002	100.383983506999	"5"	20438.882162005	20431.359483471	1.5	0.1
0.01	1	0.261451590999059	1	116	NA	120.985405489999	0	0.69	1.95	1	100.610267995002	100.871719586001	"5"	20438.882162005	20431.359483471	1.5	0.1
0.01	1	0.184071034000226	1	116	NA	120.985405489999	0	0.69	1.95	1	101.111077152	101.295148186	"5"	20438.882162005	20431.359483471	1.5	0.1
0.01	1	0.223093277996668	1	116	NA	120.985405489999	0	0.69	1.95	1	101.528476595002	101.751569872999	"5"	20438.882162005	20431.359483471	1.5	0.1
0.01	1	0.188568574001692	1	116	NA	120.985405489999	0	0.69	1.95	1	101.979190074999	102.167758649	"5"	20438.882162005	20431.359483471	1.5	0.1
0.01	1	0.244392073000199	1	116	NA	120.985405489999	0	0.69	1.95	1	102.396605842001	102.640997915001	"5"	20438.882162005	20431.359483471	1.5	0.1
0.01	1	0.329134593001072	1	116	NA	120.985405489999	0	0.69	1.95	1	102.864071852	103.193206445001	"5"	20438.882162005	20431.359483471	1.5	0.1
0.01	1	0.208599372999743	1	116	NA	120.985405489999	0	0.69	1.95	1	103.431632439999	103.640231812999	"5"	20438.882162005	20431.359483471	1.5	0.1
0.01	1	0.183117417000176	1	116	NA	120.985405489999	0	0.69	1.95	1	103.865695	104.048812417001	"5"	20438.882162005	20431.359483471	1.5	0.1
0.01	1	0.100706844998058	1	116	NA	120.985405489999	0	0.69	1.95	1	104.283059705002	104.38376655	"5"	20438.882162005	20431.359483471	1.5	0.1
0.01	1	0.199176417001581	1	116	NA	120.985405489999	0	0.69	1.95	1	104.617023535	104.816199952002	"5"	20438.882162005	20431.359483471	1.5	0.1
0.01	1	0.228210733999731	1	116	NA	120.985405489999	0	0.69	1.95	1	105.051120897002	105.279331631002	"5"	20438.882162005	20431.359483471	1.5	0.1
0.01	1	0.281955315997038	1	116	NA	120.985405489999	0	0.69	1.95	1	105.501798141002	105.783753456999	"5"	20438.882162005	20431.359483471	1.5	0.1
0.01	1	0.213339742000244	1	116	NA	120.985405489999	0	0.69	1.95	1	106.019312795001	106.232652537001	"5"	20438.882162005	20431.359483471	1.5	0.1
0.01	1	0.194304054002714	1	116	NA	120.985405489999	0	0.69	1.95	1	106.470157684998	106.664461739001	"5"	20438.882162005	20431.359483471	1.5	0.1
0.01	1	0.281373764002637	1	116	NA	120.985405489999	0	0.69	1.95	1	106.887418099999	107.168791864002	"5"	20438.882162005	20431.359483471	1.5	0.1
0.01	1	0.243993441999919	1	116	NA	120.985405489999	0	0.69	1.95	1	107.405086993	107.649080435	"5"	20438.882162005	20431.359483471	1.5	0.1
0.01	1	0.28811081999811	1	116	NA	120.985405489999	0	0.69	1.95	1	107.872508402001	108.160619221999	"5"	20438.882162005	20431.359483471	1.5	0.1
0.01	1	0.299219161999645	1	116	NA	120.985405489999	0	0.69	1.95	1	108.389962640002	108.689181802001	"5"	20438.882162005	20431.359483471	1.5	0.1
0.01	1	0.242872186998284	1	116	NA	120.985405489999	0	0.69	1.95	1	108.924354260002	109.167226447	"5"	20438.882162005	20431.359483471	1.5	0.1
0.01	1	0.377233626000816	1	116	NA	120.985405489999	0	0.69	1.95	1	109.391673047001	109.768906673002	"5"	20438.882162005	20431.359483471	1.5	0.1
0.01	1	0.286850182001217	1	116	NA	120.985405489999	0	0.69	1.95	1	109.992723621999	110.279573804	"5"	20438.882162005	20431.359483471	1.5	0.1
0.01	1	0.258570011999836	1	116	NA	120.985405489999	0	0.69	1.95	1	110.51023869	110.768808702	"5"	20438.882162005	20431.359483471	1.5	0.1
0.01	1	0.317642512996827	1	116	NA	120.985405489999	0	0.69	1.95	1	110.994475685002	111.312118197999	"5"	20438.882162005	20431.359483471	1.5	0.1
0.01	1	0.310878620999574	1	116	NA	120.985405489999	0	0.69	1.95	1	111.545301012	111.856179633	"5"	20438.882162005	20431.359483471	1.5	0.1
0.01	1	0.239614631998847	1	116	NA	120.985405489999	0	0.69	1.95	1	112.079554725002	112.319169357001	"5"	20438.882162005	20431.359483471	1.5	0.1
0.01	1	0.324513117997412	1	116	NA	120.985405489999	0	0.69	1.95	1	112.547080765002	112.871593882999	"5"	20438.882162005	20431.359483471	1.5	0.1
0.01	1	0.406052506001288	1	116	NA	120.985405489999	0	0.69	1.95	1	113.097944469999	113.503996976	"5"	20438.882162005	20431.359483471	1.5	0.1
0.01	1	0.283748804002244	1	116	NA	120.985405489999	0	0.69	1.95	1	113.732272264999	114.016021069001	"5"	20438.882162005	20431.359483471	1.5	0.1
0.01	1	2.45428906599773	1	116	NA	120.985405489999	0	0.69	1.95	1	114.249859897001	116.704148962999	"5"	20438.882162005	20431.359483471	1.5	0.1
0.01	1	0.310698312001477	1	116	NA	120.985405489999	0	0.69	1.95	1	116.93779942	117.248497732002	"5"	20438.882162005	20431.359483471	1.5	0.1
0.01	1	0.27104952299851	1	116	NA	120.985405489999	0	0.69	1.95	1	117.4885956	117.759645122998	"5"	20438.882162005	20431.359483471	1.5	0.1
0.01	1	0.347361383999669	1	116	NA	120.985405489999	0	0.69	1.95	1	117.989546770001	118.336908154	"5"	20438.882162005	20431.359483471	1.5	0.1
0.01	1	0.411173155000142	1	116	NA	120.985405489999	0	0.69	1.95	1	118.573805397002	118.984978552002	"5"	20438.882162005	20431.359483471	1.5	0.1
0.01	1	1.07204866499887	1	116	NA	120.985405489999	0	0.69	1.95	1	119.208308705001	120.28035737	"5"	20438.882162005	20431.359483471	1.5	0.1
0.01	1	0.473456241998065	2	116	NA	120.985405489999	0	0.69	1.95	1	120.510429662001	120.983885903999	"5"	20438.882162005	20431.359483471	1.5	0.1
0.01	1	1.58498736699767	1	118	NA	171.225073095	0	1	2.95	1	123.031325544001	124.616312910999	"6"	20438.882162005	20431.359483471	1.5	0.1
0.01	1	0.0216846660005103	1	118	NA	171.225073095	0	1	2.95	1	124.851134125001	124.872818791002	"6"	20438.882162005	20431.359483471	1.5	0.1
0.01	1	0.0183061220013769	1	118	NA	171.225073095	0	1	2.95	1	125.101408344999	125.119714467	"6"	20438.882162005	20431.359483471	1.5	0.1
0.01	1	0.0159086390012817	1	118	NA	171.225073095	0	1	2.95	1	125.351962105	125.367870744001	"6"	20438.882162005	20431.359483471	1.5	0.1
0.01	1	0.00249087100019096	1	118	NA	171.225073095	0	1	2.95	1	125.602311997001	125.604802868002	"6"	20438.882162005	20431.359483471	1.5	0.1
0.01	1	0.00203271999998833	1	118	NA	171.225073095	0	1	2.95	1	125.836051513001	125.838084233001	"6"	20438.882162005	20431.359483471	1.5	0.1
0.01	1	0.0020486899993557	1	118	NA	171.225073095	0	1	2.95	1	126.069706453	126.071755142999	"6"	20438.882162005	20431.359483471	1.5	0.1
0.01	1	0.00214637199678691	1	118	NA	171.225073095	0	1	2.95	1	126.303482259002	126.305628630998	"6"	20438.882162005	20431.359483471	1.5	0.1
0.01	1	0.00199124599748757	1	118	NA	171.225073095	0	1	2.95	1	126.537204650002	126.539195895999	"6"	20438.882162005	20431.359483471	1.5	0.1
0.01	1	0.0023932620024425	1	118	NA	171.225073095	0	1	2.95	1	126.770894468998	126.773287731001	"6"	20438.882162005	20431.359483471	1.5	0.1
0.01	1	0.363852249000047	1	118	NA	171.225073095	0	1	2.95	1	127.004744725	127.368596974	"6"	20438.882162005	20431.359483471	1.5	0.1
0.01	1	0.0117615579983976	1	118	NA	171.225073095	0	1	2.95	1	127.605670697001	127.617432255	"6"	20438.882162005	20431.359483471	1.5	0.1
0.01	1	0.00324635600190959	1	118	NA	171.225073095	0	1	2.95	1	127.856062180999	127.859308537001	"6"	20438.882162005	20431.359483471	1.5	0.1
0.01	1	0.00767341900063911	1	118	NA	171.225073095	0	1	2.95	1	128.089841058001	128.097514477002	"6"	20438.882162005	20431.359483471	1.5	0.1
0.01	1	0.0436915470017993	1	118	NA	171.225073095	0	1	2.95	1	128.323547520999	128.367239068	"6"	20438.882162005	20431.359483471	1.5	0.1
0.01	1	0.04077355699701	1	118	NA	171.225073095	0	1	2.95	1	128.590637542002	128.631411098999	"6"	20438.882162005	20431.359483471	1.5	0.1
0.01	1	0.0615422329974535	1	118	NA	171.225073095	0	1	2.95	1	128.857801825001	128.919344057998	"6"	20438.882162005	20431.359483471	1.5	0.1
0.01	1	0.0338222669997776	1	118	NA	171.225073095	0	1	2.95	1	129.141584442001	129.175406709001	"6"	20438.882162005	20431.359483471	1.5	0.1
0.01	1	0.00951014599922928	1	118	NA	171.225073095	0	1	2.95	1	129.408682716999	129.418192862999	"6"	20438.882162005	20431.359483471	1.5	0.1
0.01	1	0.0302195300027961	1	118	NA	171.225073095	0	1	2.95	1	129.642442594999	129.672662125002	"6"	20438.882162005	20431.359483471	1.5	0.1
0.01	1	0.529709978000028	1	118	NA	171.225073095	0	1	2.95	1	129.909590705	130.439300683	"6"	20438.882162005	20431.359483471	1.5	0.1
0.01	1	0.00402157899952726	1	118	NA	171.225073095	0	1	2.95	1	130.677509429999	130.681531008999	"6"	20438.882162005	20431.359483471	1.5	0.1
0.01	1	0.0812902170000598	1	118	NA	171.225073095	0	1	2.95	1	130.91118381	130.992474027	"6"	20438.882162005	20431.359483471	1.5	0.1
0.01	1	0.0444215239986079	1	118	NA	171.225073095	0	1	2.95	1	131.228460505001	131.272882028999	"6"	20438.882162005	20431.359483471	1.5	0.1
0.01	1	0.104894481999509	1	118	NA	171.225073095	0	1	2.95	1	131.495534315	131.600428796999	"6"	20438.882162005	20431.359483471	1.5	0.1
0.01	1	0.11535633099993	1	118	NA	171.225073095	0	1	2.95	1	131.829448715001	131.944805046001	"6"	20438.882162005	20431.359483471	1.5	0.1
0.01	1	0.0843270300028962	1	118	NA	171.225073095	0	1	2.95	1	132.180027261998	132.264354292001	"6"	20438.882162005	20431.359483471	1.5	0.1
0.01	1	0.119924448001257	1	118	NA	171.225073095	0	1	2.95	1	132.497266364	132.617190812001	"6"	20438.882162005	20431.359483471	1.5	0.1
0.01	1	0.065041816997109	1	118	NA	171.225073095	0	1	2.95	1	132.847951585001	132.912993401998	"6"	20438.882162005	20431.359483471	1.5	0.1
0.01	1	0.108456949001265	1	118	NA	171.225073095	0	1	2.95	1	133.148283949999	133.256740899	"6"	20438.882162005	20431.359483471	1.5	0.1
0.01	1	0.0860021210028208	1	118	NA	171.225073095	0	1	2.95	1	133.482207141999	133.568209263001	"6"	20438.882162005	20431.359483471	1.5	0.1
0.01	1	0.601789366002777	1	118	NA	171.225073095	0	1	2.95	1	133.799382134999	134.401171501002	"6"	20438.882162005	20431.359483471	1.5	0.1
0.01	1	0.0946787739994761	1	118	NA	171.225073095	0	1	2.95	1	134.634291900002	134.728970674001	"6"	20438.882162005	20431.359483471	1.5	0.1
0.01	1	0.192926039002487	1	118	NA	171.225073095	0	1	2.95	1	134.951420329999	135.144346369001	"6"	20438.882162005	20431.359483471	1.5	0.1
0.01	1	0.151672249001422	1	118	NA	171.225073095	0	1	2.95	1	135.368794675	135.520466924001	"6"	20438.882162005	20431.359483471	1.5	0.1
0.01	1	0.191830266001489	1	118	NA	171.225073095	0	1	2.95	1	135.752796417	135.944626683002	"6"	20438.882162005	20431.359483471	1.5	0.1
0.01	1	0.181125335999241	1	118	NA	171.225073095	0	1	2.95	1	136.17013653	136.351261865999	"6"	20438.882162005	20431.359483471	1.5	0.1
0.01	1	0.172345905000839	1	118	NA	171.225073095	0	1	2.95	1	136.587535905001	136.759881810001	"6"	20438.882162005	20431.359483471	1.5	0.1
0.01	1	0.227470483001525	1	118	NA	171.225073095	0	1	2.95	1	136.988160724999	137.215631208001	"6"	20438.882162005	20431.359483471	1.5	0.1
0.01	1	0.224577062999742	1	118	NA	171.225073095	0	1	2.95	1	137.438911875	137.663488938	"6"	20438.882162005	20431.359483471	1.5	0.1
0.01	1	0.223017455002264	1	118	NA	171.225073095	0	1	2.95	1	137.889663476999	138.112680932001	"6"	20438.882162005	20431.359483471	1.5	0.1
0.01	1	0.523127328000555	1	118	NA	171.225073095	0	1	2.95	1	138.340483035001	138.863610363001	"6"	20438.882162005	20431.359483471	1.5	0.1
0.01	1	0.131637235001108	1	118	NA	171.225073095	0	1	2.95	1	139.091727834999	139.22336507	"6"	20438.882162005	20431.359483471	1.5	0.1
0.01	1	0.236170139000023	1	118	NA	171.225073095	0	1	2.95	1	139.458970326999	139.695140465999	"6"	20438.882162005	20431.359483471	1.5	0.1
0.01	1	0.233663033002813	1	118	NA	171.225073095	0	1	2.95	1	139.926364006998	140.160027040001	"6"	20438.882162005	20431.359483471	1.5	0.1
0.01	1	0.230293011001777	1	118	NA	171.225073095	0	1	2.95	1	140.393894552999	140.624187564001	"6"	20438.882162005	20431.359483471	1.5	0.1
0.01	1	0.179926275999605	1	118	NA	171.225073095	0	1	2.95	1	140.861377482001	141.041303758	"6"	20438.882162005	20431.359483471	1.5	0.1
0.01	1	0.16885366799761	1	118	NA	171.225073095	0	1	2.95	1	141.278731752001	141.447585419999	"6"	20438.882162005	20431.359483471	1.5	0.1
0.01	1	0.209314293002535	1	118	NA	171.225073095	0	1	2.95	1	141.679445271999	141.888759565001	"6"	20438.882162005	20431.359483471	1.5	0.1
0.01	1	0.158665864000795	1	118	NA	171.225073095	0	1	2.95	1	142.113438504999	142.272104369	"6"	20438.882162005	20431.359483471	1.5	0.1
0.01	1	0.151692724000895	1	118	NA	171.225073095	0	1	2.95	1	142.497530997	142.649223721	"6"	20438.882162005	20431.359483471	1.5	0.1
0.01	1	0.509588172000804	1	118	NA	171.225073095	0	1	2.95	1	142.88154835	143.391136522001	"6"	20438.882162005	20431.359483471	1.5	0.1
0.01	1	0.0890984280013072	1	118	NA	171.225073095	0	1	2.95	1	143.615932785	143.705031213001	"6"	20438.882162005	20431.359483471	1.5	0.1
0.01	1	0.170857470999181	1	118	NA	171.225073095	0	1	2.95	1	143.933251114002	144.104108585001	"6"	20438.882162005	20431.359483471	1.5	0.1
0.01	1	0.193497871001455	1	118	NA	171.225073095	0	1	2.95	1	144.333827315	144.527325186002	"6"	20438.882162005	20431.359483471	1.5	0.1
0.01	1	0.154122203999577	1	118	NA	171.225073095	0	1	2.95	1	144.751170244999	144.905292448999	"6"	20438.882162005	20431.359483471	1.5	0.1
0.01	1	0.177275352998549	1	118	NA	171.225073095	0	1	2.95	1	145.135156197	145.312431549999	"6"	20438.882162005	20431.359483471	1.5	0.1
0.01	1	0.224227203001647	1	118	NA	171.225073095	0	1	2.95	1	145.535846862	145.760074065001	"6"	20438.882162005	20431.359483471	1.5	0.1
0.01	1	0.350271629999042	1	118	NA	171.225073095	0	1	2.95	1	145.986639621002	146.336911251001	"6"	20438.882162005	20431.359483471	1.5	0.1
0.01	1	0.173086957998748	1	118	NA	171.225073095	0	1	2.95	1	146.570893765002	146.743980723	"6"	20438.882162005	20431.359483471	1.5	0.1
0.01	1	0.124910211998213	1	118	NA	171.225073095	0	1	2.95	1	146.971538917001	147.096449129	"6"	20438.882162005	20431.359483471	1.5	0.1
0.01	1	0.566092185999878	1	118	NA	171.225073095	0	1	2.95	1	147.322093775001	147.888185961001	"6"	20438.882162005	20431.359483471	1.5	0.1
0.01	1	0.125408366999181	1	118	NA	171.225073095	0	1	2.95	1	148.123522885002	148.248931252001	"6"	20438.882162005	20431.359483471	1.5	0.1
0.01	1	0.221207428003254	1	118	NA	171.225073095	0	1	2.95	1	148.474067391999	148.695274820002	"6"	20438.882162005	20431.359483471	1.5	0.1
0.01	1	0.243532008000329	1	118	NA	171.225073095	0	1	2.95	1	148.92491672	149.168448728	"6"	20438.882162005	20431.359483471	1.5	0.1
0.01	1	0.246770720998029	1	118	NA	171.225073095	0	1	2.95	1	149.392380015001	149.639150735999	"6"	20438.882162005	20431.359483471	1.5	0.1
0.01	1	0.179983089001325	1	118	NA	171.225073095	0	1	2.95	1	149.87653252	150.056515609002	"6"	20438.882162005	20431.359483471	1.5	0.1
0.01	1	0.306163015000493	1	118	NA	171.225073095	0	1	2.95	1	150.293825932	150.599988947	"6"	20438.882162005	20431.359483471	1.5	0.1
0.01	1	0.156834826000704	1	118	NA	171.225073095	0	1	2.95	1	150.828115071999	150.984949898	"6"	20438.882162005	20431.359483471	1.5	0.1
0.01	1	0.172689180002635	1	118	NA	171.225073095	0	1	2.95	1	151.212010284999	151.384699465001	"6"	20438.882162005	20431.359483471	1.5	0.1
0.01	1	0.115471949000494	1	118	NA	171.225073095	0	1	2.95	1	151.612713679999	151.728185628999	"6"	20438.882162005	20431.359483471	1.5	0.1
0.01	1	0.491988942001626	1	118	NA	171.225073095	0	1	2.95	1	151.963373966999	152.455362909001	"6"	20438.882162005	20431.359483471	1.5	0.1
0.01	1	0.190691645999323	1	118	NA	171.225073095	0	1	2.95	1	152.681189767001	152.871881413001	"6"	20438.882162005	20431.359483471	1.5	0.1
0.01	1	0.30183899399708	1	118	NA	171.225073095	0	1	2.95	1	153.098618790002	153.400457783999	"6"	20438.882162005	20431.359483471	1.5	0.1
0.01	1	0.551333215000341	1	118	NA	171.225073095	0	1	2.95	1	153.633009814999	154.18434303	"6"	20438.882162005	20431.359483471	1.5	0.1
0.01	1	0.422938085001078	1	118	NA	171.225073095	0	1	2.95	1	154.417422625	154.840360710001	"6"	20438.882162005	20431.359483471	1.5	0.1
0.01	1	0.396024778001447	1	118	NA	171.225073095	0	1	2.95	1	155.068512378999	155.464537157	"6"	20438.882162005	20431.359483471	1.5	0.1
0.01	1	0.369374473997595	1	118	NA	171.225073095	0	1	2.95	1	155.702948041002	156.072322515	"6"	20438.882162005	20431.359483471	1.5	0.1
0.01	1	0.375337117999152	1	118	NA	171.225073095	0	1	2.95	1	156.304021002001	156.67935812	"6"	20438.882162005	20431.359483471	1.5	0.1
0.01	1	0.374166003999562	1	118	NA	171.225073095	0	1	2.95	1	156.905003013999	157.279169017998	"6"	20438.882162005	20431.359483471	1.5	0.1
0.01	1	1.03852763100076	1	118	NA	171.225073095	0	1	2.95	1	157.505966840999	158.544494472	"6"	20438.882162005	20431.359483471	1.5	0.1
0.01	1	0.642369812998368	1	118	NA	171.225073095	0	1	2.95	1	158.774793412002	159.417163225	"6"	20438.882162005	20431.359483471	1.5	0.1
0.01	1	0.332349576001434	1	118	NA	171.225073095	0	1	2.95	1	159.642873004999	159.975222581001	"6"	20438.882162005	20431.359483471	1.5	0.1
0.01	1	0.285161572999641	1	118	NA	171.225073095	0	1	2.95	1	160.210515491999	160.495677064999	"6"	20438.882162005	20431.359483471	1.5	0.1
0.01	1	1.3912128990014	1	118	NA	171.225073095	0	1	2.95	1	160.728086409999	162.119299309001	"6"	20438.882162005	20431.359483471	1.5	0.1
0.01	1	0.220333624998602	1	118	NA	171.225073095	0	1	2.95	1	162.347601638001	162.567935263	"6"	20438.882162005	20431.359483471	1.5	0.1
0.01	1	0.209769921999396	1	118	NA	171.225073095	0	1	2.95	1	162.798287011999	163.008056933999	"6"	20438.882162005	20431.359483471	1.5	0.1
0.01	1	0.287799073998031	1	118	NA	171.225073095	0	1	2.95	1	163.232308095001	163.520107168999	"6"	20438.882162005	20431.359483471	1.5	0.1
0.01	1	0.330021778998344	1	118	NA	171.225073095	0	1	2.95	1	163.749871615	164.079893393999	"6"	20438.882162005	20431.359483471	1.5	0.1
0.01	1	0.362315047001175	1	118	NA	171.225073095	0	1	2.95	1	164.317530021999	164.679845069	"6"	20438.882162005	20431.359483471	1.5	0.1
0.01	1	0.355216103002022	1	118	NA	171.225073095	0	1	2.95	1	164.901784854999	165.257000958001	"6"	20438.882162005	20431.359483471	1.5	0.1
0.01	1	0.47416582400183	1	118	NA	171.225073095	0	1	2.95	1	165.486079419999	165.960245244001	"6"	20438.882162005	20431.359483471	1.5	0.1
0.01	1	0.180900311999721	1	118	NA	171.225073095	0	1	2.95	1	166.187220337	166.368120649	"6"	20438.882162005	20431.359483471	1.5	0.1
0.01	1	0.156203049999021	1	118	NA	171.225073095	0	1	2.95	1	166.604683375001	166.760886425	"6"	20438.882162005	20431.359483471	1.5	0.1
0.01	1	0.212006440997357	1	118	NA	171.225073095	0	1	2.95	1	166.988635630001	167.200642070999	"6"	20438.882162005	20431.359483471	1.5	0.1
0.01	1	0.289752055999998	1	118	NA	171.225073095	0	1	2.95	1	167.422658775002	167.712410831002	"6"	20438.882162005	20431.359483471	1.5	0.1
0.01	1	0.500117690000479	1	118	NA	171.225073095	0	1	2.95	1	167.940264839999	168.44038253	"6"	20438.882162005	20431.359483471	1.5	0.1
0.01	1	0.748389156000485	1	118	NA	171.225073095	0	1	2.95	1	168.674807722	169.423196878	"6"	20438.882162005	20431.359483471	1.5	0.1
0.01	1	0.308450013002584	1	118	NA	171.225073095	0	1	2.95	1	169.659791819999	169.968241833001	"6"	20438.882162005	20431.359483471	1.5	0.1
0.01	1	0.389899052002875	1	118	NA	171.225073095	0	1	2.95	1	170.193987760998	170.583886813001	"6"	20438.882162005	20431.359483471	1.5	0.1
0.01	1	0.411727779999637	2	118	NA	171.225073095	0	1	2.95	1	170.8117981	171.223525879999	"6"	20438.882162005	20431.359483471	1.5	0.1
0.01	1	0.549660328000755	1	87	194.037125505001	NA	1	0	2.95	1	173.265899945	173.815560273	"7"	20438.882162005	20431.359483471	1.5	0.1
0.01	1	0.00425750900103594	1	87	194.037125505001	NA	1	0	2.95	1	174.050494130999	174.05475164	"7"	20438.882162005	20431.359483471	1.5	0.1
0.01	1	0.00387613600105396	1	87	194.037125505001	NA	1	0	2.95	1	174.284252455	174.288128591001	"7"	20438.882162005	20431.359483471	1.5	0.1
0.01	1	0.00444798699754756	1	87	194.037125505001	NA	1	0	2.95	1	174.517913185002	174.522361171999	"7"	20438.882162005	20431.359483471	1.5	0.1
0.01	1	0.00349085999914678	1	87	194.037125505001	NA	1	0	2.95	1	174.751655345	174.755146205	"7"	20438.882162005	20431.359483471	1.5	0.1
0.01	1	0.00376917199901072	1	87	194.037125505001	NA	1	0	2.95	1	174.985319177002	174.989088349001	"7"	20438.882162005	20431.359483471	1.5	0.1
0.01	1	0.00384760100132553	1	87	194.037125505001	NA	1	0	2.95	1	175.219090589999	175.222938191	"7"	20438.882162005	20431.359483471	1.5	0.1
0.01	1	0.00443463999909	1	87	194.037125505001	NA	1	0	2.95	1	175.452777285002	175.457211925001	"7"	20438.882162005	20431.359483471	1.5	0.1
0.01	1	0.00438137799937977	1	87	194.037125505001	NA	1	0	2.95	1	175.686493267	175.690874644999	"7"	20438.882162005	20431.359483471	1.5	0.1
0.01	1	0.00373305099856225	1	87	194.037125505001	NA	1	0	2.95	1	175.920215302001	175.923948353	"7"	20438.882162005	20431.359483471	1.5	0.1
0.01	1	0.00369167800090509	1	87	194.037125505001	NA	1	0	2.95	1	176.154144014999	176.157835693	"7"	20438.882162005	20431.359483471	1.5	0.1
0.01	1	0.00377804600066156	1	87	194.037125505001	NA	1	0	2.95	1	176.387749804999	176.391527850999	"7"	20438.882162005	20431.359483471	1.5	0.1
0.01	1	0.00331754999933764	1	87	194.037125505001	NA	1	0	2.95	1	176.621562475	176.624880025	"7"	20438.882162005	20431.359483471	1.5	0.1
0.01	1	0.00453543499679654	1	87	194.037125505001	NA	1	0	2.95	1	176.855253025002	176.859788459999	"7"	20438.882162005	20431.359483471	1.5	0.1
0.01	1	0.00400357699982123	1	87	194.037125505001	NA	1	0	2.95	1	177.089000881999	177.093004458999	"7"	20438.882162005	20431.359483471	1.5	0.1
0.01	1	0.00384141700124019	1	87	194.037125505001	NA	1	0	2.95	1	177.322646291999	177.326487709001	"7"	20438.882162005	20431.359483471	1.5	0.1
0.01	1	0.00454804500259343	1	87	194.037125505001	NA	1	0	2.95	1	177.556405064999	177.560953110002	"7"	20438.882162005	20431.359483471	1.5	0.1
0.01	1	0.00389604999872972	1	87	194.037125505001	NA	1	0	2.95	1	177.790133815	177.794029864999	"7"	20438.882162005	20431.359483471	1.5	0.1
0.01	1	0.00336726599925896	1	87	194.037125505001	NA	1	0	2.95	1	178.023853267001	178.027220533	"7"	20438.882162005	20431.359483471	1.5	0.1
0.01	1	0.00385726599779446	1	87	194.037125505001	NA	1	0	2.95	1	178.257536425001	178.261393690998	"7"	20438.882162005	20431.359483471	1.5	0.1
0.01	1	0.0045146759985073	1	87	194.037125505001	NA	1	0	2.95	1	178.491388724	178.495903399998	"7"	20438.882162005	20431.359483471	1.5	0.1
0.01	1	0.0039328819984803	1	87	194.037125505001	NA	1	0	2.95	1	178.724959767002	178.728892649	"7"	20438.882162005	20431.359483471	1.5	0.1
0.01	1	0.00457700200058753	1	87	194.037125505001	NA	1	0	2.95	1	178.958828160001	178.963405162001	"7"	20438.882162005	20431.359483471	1.5	0.1
0.01	1	0.00371902500046417	1	87	194.037125505001	NA	1	0	2.95	1	179.192466772001	179.196185797002	"7"	20438.882162005	20431.359483471	1.5	0.1
0.01	1	0.00361013799920329	1	87	194.037125505001	NA	1	0	2.95	1	179.426263165002	179.429873303001	"7"	20438.882162005	20431.359483471	1.5	0.1
0.01	1	0.00456506699993042	1	87	194.037125505001	NA	1	0	2.95	1	179.659950584999	179.664515651999	"7"	20438.882162005	20431.359483471	1.5	0.1
0.01	1	0.00376631800099858	1	87	194.037125505001	NA	1	0	2.95	1	179.893577535	179.897343853001	"7"	20438.882162005	20431.359483471	1.5	0.1
0.01	1	0.00376524600142147	1	87	194.037125505001	NA	1	0	2.95	1	180.127475907	180.131241153002	"7"	20438.882162005	20431.359483471	1.5	0.1
0.01	1	0.00370828100130893	1	87	194.037125505001	NA	1	0	2.95	1	180.361059761999	180.364768043	"7"	20438.882162005	20431.359483471	1.5	0.1
0.01	1	0.00451901999986148	1	87	194.037125505001	NA	1	0	2.95	1	180.59492906	180.59944808	"7"	20438.882162005	20431.359483471	1.5	0.1
0.01	1	0.00448518199846148	1	87	194.037125505001	NA	1	0	2.95	1	180.828561080001	180.833046262	"7"	20438.882162005	20431.359483471	1.5	0.1
0.01	1	0.00390705099925981	1	87	194.037125505001	NA	1	0	2.95	1	181.06233882	181.066245870999	"7"	20438.882162005	20431.359483471	1.5	0.1
0.01	1	0.00354821600194555	1	87	194.037125505001	NA	1	0	2.95	1	181.295965764999	181.299513981001	"7"	20438.882162005	20431.359483471	1.5	0.1
0.01	1	0.00384123099865974	1	87	194.037125505001	NA	1	0	2.95	1	181.529694682002	181.533535913	"7"	20438.882162005	20431.359483471	1.5	0.1
0.01	1	0.00389972799894167	1	87	194.037125505001	NA	1	0	2.95	1	181.763435684999	181.767335412998	"7"	20438.882162005	20431.359483471	1.5	0.1
0.01	1	0.00369939799929853	1	87	194.037125505001	NA	1	0	2.95	1	181.997152057	182.000851454999	"7"	20438.882162005	20431.359483471	1.5	0.1
0.01	1	0.00370161800310598	1	87	194.037125505001	NA	1	0	2.95	1	182.230922776998	182.234624395001	"7"	20438.882162005	20431.359483471	1.5	0.1
0.01	1	0.0039723599984427	1	87	194.037125505001	NA	1	0	2.95	1	182.464628325	182.468600684999	"7"	20438.882162005	20431.359483471	1.5	0.1
0.01	1	0.00358726899867179	1	87	194.037125505001	NA	1	0	2.95	1	182.698289532	182.701876800998	"7"	20438.882162005	20431.359483471	1.5	0.1
0.01	1	0.00229301400031545	1	87	194.037125505001	NA	1	0	2.95	1	182.932063971999	182.934356985999	"7"	20438.882162005	20431.359483471	1.5	0.1
0.01	1	0.00214467900150339	1	87	194.037125505001	NA	1	0	2.95	1	183.165827957	183.167972636002	"7"	20438.882162005	20431.359483471	1.5	0.1
0.01	1	0.00365882299956866	1	87	194.037125505001	NA	1	0	2.95	1	183.399542742001	183.403201565001	"7"	20438.882162005	20431.359483471	1.5	0.1
0.01	1	0.00381811600163928	1	87	194.037125505001	NA	1	0	2.95	1	183.633169097	183.636987213002	"7"	20438.882162005	20431.359483471	1.5	0.1
0.01	1	0.00329371000043466	1	87	194.037125505001	NA	1	0	2.95	1	183.866971374999	183.870265084999	"7"	20438.882162005	20431.359483471	1.5	0.1
0.01	1	0.00373373199909111	1	87	194.037125505001	NA	1	0	2.95	1	184.100706536999	184.104440268999	"7"	20438.882162005	20431.359483471	1.5	0.1
0.01	1	0.00361619099930977	1	87	194.037125505001	NA	1	0	2.95	1	184.334477622	184.338093812999	"7"	20438.882162005	20431.359483471	1.5	0.1
0.01	1	0.0032513240003027	1	87	194.037125505001	NA	1	0	2.95	1	184.568178971	184.571430295	"7"	20438.882162005	20431.359483471	1.5	0.1
0.01	1	0.00369765600044047	1	87	194.037125505001	NA	1	0	2.95	1	184.801937004999	184.805634660999	"7"	20438.882162005	20431.359483471	1.5	0.1
0.01	1	0.00447865400201408	1	87	194.037125505001	NA	1	0	2.95	1	185.035654263	185.040132917002	"7"	20438.882162005	20431.359483471	1.5	0.1
0.01	1	0.00384840799961239	1	87	194.037125505001	NA	1	0	2.95	1	185.269306037	185.273154445	"7"	20438.882162005	20431.359483471	1.5	0.1
0.01	1	0.00383725499705179	1	87	194.037125505001	NA	1	0	2.95	1	185.503141780002	185.506979034999	"7"	20438.882162005	20431.359483471	1.5	0.1
0.01	1	0.00325442000030307	1	87	194.037125505001	NA	1	0	2.95	1	185.736820074999	185.740074494999	"7"	20438.882162005	20431.359483471	1.5	0.1
0.01	1	0.00384624000071199	1	87	194.037125505001	NA	1	0	2.95	1	185.970569055	185.974415295001	"7"	20438.882162005	20431.359483471	1.5	0.1
0.01	1	0.00358041599974968	1	87	194.037125505001	NA	1	0	2.95	1	186.204337685002	186.207918101001	"7"	20438.882162005	20431.359483471	1.5	0.1
0.01	1	0.00394197100104066	1	87	194.037125505001	NA	1	0	2.95	1	186.437950039999	186.441892011	"7"	20438.882162005	20431.359483471	1.5	0.1
0.01	1	0.00454531699870131	1	87	194.037125505001	NA	1	0	2.95	1	186.671739875001	186.676285191999	"7"	20438.882162005	20431.359483471	1.5	0.1
0.01	1	0.00451134700051625	1	87	194.037125505001	NA	1	0	2.95	1	186.905366614999	186.909877962	"7"	20438.882162005	20431.359483471	1.5	0.1
0.01	1	0.00322842599780415	1	87	194.037125505001	NA	1	0	2.95	1	187.139197271001	187.142425696999	"7"	20438.882162005	20431.359483471	1.5	0.1
0.01	1	0.00344881999990321	1	87	194.037125505001	NA	1	0	2.95	1	187.372847196999	187.376296016999	"7"	20438.882162005	20431.359483471	1.5	0.1
0.01	1	0.00363196300168056	1	87	194.037125505001	NA	1	0	2.95	1	187.606580259999	187.610212223	"7"	20438.882162005	20431.359483471	1.5	0.1
0.01	1	0.00390746699849842	1	87	194.037125505001	NA	1	0	2.95	1	187.840328128001	187.844235594999	"7"	20438.882162005	20431.359483471	1.5	0.1
0.01	1	0.00452011499874061	1	87	194.037125505001	NA	1	0	2.95	1	188.07408577	188.078605884999	"7"	20438.882162005	20431.359483471	1.5	0.1
0.01	1	0.00433594100104528	1	87	194.037125505001	NA	1	0	2.95	1	188.307759973999	188.312095915	"7"	20438.882162005	20431.359483471	1.5	0.1
0.01	1	0.00399078999907942	1	87	194.037125505001	NA	1	0	2.95	1	188.541560815	188.545551604999	"7"	20438.882162005	20431.359483471	1.5	0.1
0.01	1	0.00386944999991101	1	87	194.037125505001	NA	1	0	2.95	1	188.775320684999	188.779190134999	"7"	20438.882162005	20431.359483471	1.5	0.1
0.01	1	0.00322767200123053	1	87	194.037125505001	NA	1	0	2.95	1	189.008972916999	189.012200589001	"7"	20438.882162005	20431.359483471	1.5	0.1
0.01	1	0.00321941600122955	1	87	194.037125505001	NA	1	0	2.95	1	189.242756422998	189.245975839	"7"	20438.882162005	20431.359483471	1.5	0.1
0.01	1	0.00369860099817743	1	87	194.037125505001	NA	1	0	2.95	1	189.476453832001	189.480152433	"7"	20438.882162005	20431.359483471	1.5	0.1
0.01	1	0.0046002419985598	1	87	194.037125505001	NA	1	0	2.95	1	189.710176510001	189.714776752	"7"	20438.882162005	20431.359483471	1.5	0.1
0.01	1	0.00455364200024633	1	87	194.037125505001	NA	1	0	2.95	1	189.943872799999	189.948426441999	"7"	20438.882162005	20431.359483471	1.5	0.1
0.01	1	0.00391449900052976	1	87	194.037125505001	NA	1	0	2.95	1	190.177627612	190.181542111	"7"	20438.882162005	20431.359483471	1.5	0.1
0.01	1	0.0037411390003399	1	87	194.037125505001	NA	1	0	2.95	1	190.411296612001	190.415037751001	"7"	20438.882162005	20431.359483471	1.5	0.1
0.01	1	0.00371419899965986	1	87	194.037125505001	NA	1	0	2.95	1	190.645062672	190.648776870999	"7"	20438.882162005	20431.359483471	1.5	0.1
0.01	1	0.00383839999994962	1	87	194.037125505001	NA	1	0	2.95	1	190.878740985001	190.882579385001	"7"	20438.882162005	20431.359483471	1.5	0.1
0.01	1	0.00387441199927707	1	87	194.037125505001	NA	1	0	2.95	1	191.112467715	191.116342126999	"7"	20438.882162005	20431.359483471	1.5	0.1
0.01	1	0.00362012400000822	1	87	194.037125505001	NA	1	0	2.95	1	191.346287594999	191.349907718999	"7"	20438.882162005	20431.359483471	1.5	0.1
0.01	1	0.0038667209992127	1	87	194.037125505001	NA	1	0	2.95	1	191.579939192001	191.583805913	"7"	20438.882162005	20431.359483471	1.5	0.1
0.01	1	0.00386568099929718	1	87	194.037125505001	NA	1	0	2.95	1	191.81365615	191.817521830999	"7"	20438.882162005	20431.359483471	1.5	0.1
0.01	1	0.00383581500136643	1	87	194.037125505001	NA	1	0	2.95	1	192.047493369999	192.051329185	"7"	20438.882162005	20431.359483471	1.5	0.1
0.01	1	0.00327892800123664	1	87	194.037125505001	NA	1	0	2.95	1	192.281213815	192.284492743001	"7"	20438.882162005	20431.359483471	1.5	0.1
0.01	1	0.00353965100293863	1	87	194.037125505001	NA	1	0	2.95	1	192.514862791999	192.518402443002	"7"	20438.882162005	20431.359483471	1.5	0.1
0.01	1	0.00401692400191678	1	87	194.037125505001	NA	1	0	2.95	1	192.748535524999	192.752552449001	"7"	20438.882162005	20431.359483471	1.5	0.1
0.01	1	0.0045778550011164	1	87	194.037125505001	NA	1	0	2.95	1	192.982277855001	192.986855710002	"7"	20438.882162005	20431.359483471	1.5	0.1
0.01	1	0.00388254900099128	1	87	194.037125505001	NA	1	0	2.95	1	193.216094052001	193.219976601002	"7"	20438.882162005	20431.359483471	1.5	0.1
0.01	1	0.00426810199860483	1	87	194.037125505001	NA	1	0	2.95	1	193.449850410001	193.454118512	"7"	20438.882162005	20431.359483471	1.5	0.1
0.01	1	0.00323277599818539	1	87	194.037125505001	NA	1	0	2.95	1	193.683447635001	193.686680411	"7"	20438.882162005	20431.359483471	1.5	0.1
0.01	1	0.00391599299837253	1	87	194.037125505001	NA	1	0	2.95	1	193.917239930001	193.921155922999	"7"	20438.882162005	20431.359483471	1.5	0.1
0.01	1	1.52125396100018	1	6	198.962206442	NA	1	0	2.95	1	196.087470811999	197.608724772999	"8"	20438.882162005	20431.359483471	1.5	0.1
0.01	1	0.0406222769997839	1	6	198.962206442	NA	1	0	2.95	1	197.840449095002	197.881071372001	"8"	20438.882162005	20431.359483471	1.5	0.1
0.01	1	0.0133428350018221	1	6	198.962206442	NA	1	0	2.95	1	198.107645454998	198.12098829	"8"	20438.882162005	20431.359483471	1.5	0.1
0.01	1	0.00394639699879917	1	6	198.962206442	NA	1	0	2.95	1	198.35801136	198.361957756999	"8"	20438.882162005	20431.359483471	1.5	0.1
0.01	1	0.0250288370007183	1	6	198.962206442	NA	1	0	2.95	1	198.59175621	198.616785047001	"8"	20438.882162005	20431.359483471	1.5	0.1
0.01	1	0.00414862099933089	1	6	198.962206442	NA	1	0	2.95	1	198.842191772001	198.846340393	"8"	20438.882162005	20431.359483471	1.5	0.1
0.01	1	0.595903243000066	1	106	NA	222.186283873001	0	0.57	3.52	1	200.995844831999	201.591748074999	"9"	20438.882162005	20431.359483471	1.5	0.1
0.01	1	0.0106619549987954	1	106	NA	222.186283873001	0	0.57	3.52	1	201.830557720001	201.841219675	"9"	20438.882162005	20431.359483471	1.5	0.1
0.01	1	0.183616623999114	1	106	NA	222.186283873001	0	0.57	3.52	1	202.064357517	202.247974140999	"9"	20438.882162005	20431.359483471	1.5	0.1
0.01	1	0.00331452200043714	1	106	NA	222.186283873001	0	0.57	3.52	1	202.481604993001	202.484919515002	"9"	20438.882162005	20431.359483471	1.5	0.1
0.01	1	0.0282827949995408	1	106	NA	222.186283873001	0	0.57	3.52	1	202.71534857	202.743631365	"9"	20438.882162005	20431.359483471	1.5	0.1
0.01	1	0.0430335969977023	1	106	NA	222.186283873001	0	0.57	3.52	1	202.965857185001	203.008890781999	"9"	20438.882162005	20431.359483471	1.5	0.1
0.01	1	0.0388079240001389	1	106	NA	222.186283873001	0	0.57	3.52	1	203.23294618	203.271754104	"9"	20438.882162005	20431.359483471	1.5	0.1
0.01	1	0.00807562200134271	1	106	NA	222.186283873001	0	0.57	3.52	1	203.500048624999	203.508124247001	"9"	20438.882162005	20431.359483471	1.5	0.1
0.01	1	0.0177385630013305	1	106	NA	222.186283873001	0	0.57	3.52	1	203.733744159999	203.751482723001	"9"	20438.882162005	20431.359483471	1.5	0.1
0.01	1	0.0310673339990899	1	106	NA	222.186283873001	0	0.57	3.52	1	203.984125255	204.015192588999	"9"	20438.882162005	20431.359483471	1.5	0.1
0.01	1	0.580573774001095	1	106	NA	222.186283873001	0	0.57	3.52	1	204.251203529999	204.831777304	"9"	20438.882162005	20431.359483471	1.5	0.1
0.01	1	0.00395065300108399	1	106	NA	222.186283873001	0	0.57	3.52	1	205.069248751999	205.073199405	"9"	20438.882162005	20431.359483471	1.5	0.1
0.01	1	0.0166111450016615	1	106	NA	222.186283873001	0	0.57	3.52	1	205.303050744998	205.31966189	"9"	20438.882162005	20431.359483471	1.5	0.1
0.01	1	0.0156789859975106	1	106	NA	222.186283873001	0	0.57	3.52	1	205.553483775002	205.569162760999	"9"	20438.882162005	20431.359483471	1.5	0.1
0.01	1	0.0452756750019034	1	106	NA	222.186283873001	0	0.57	3.52	1	205.80389331	205.849168985002	"9"	20438.882162005	20431.359483471	1.5	0.1
0.01	1	0.0488098570021975	1	106	NA	222.186283873001	0	0.57	3.52	1	206.071001249999	206.119811107001	"9"	20438.882162005	20431.359483471	1.5	0.1
0.01	1	0.0130138400018041	1	106	NA	222.186283873001	0	0.57	3.52	1	206.354904451	206.367918291002	"9"	20438.882162005	20431.359483471	1.5	0.1
0.01	1	0.0195998880008119	1	106	NA	222.186283873001	0	0.57	3.52	1	206.605323169999	206.624923058	"9"	20438.882162005	20431.359483471	1.5	0.1
0.01	1	0.0410776770004304	1	106	NA	222.186283873001	0	0.57	3.52	1	206.855692505	206.896770182	"9"	20438.882162005	20431.359483471	1.5	0.1
0.01	1	0.0368344039998192	1	106	NA	222.186283873001	0	0.57	3.52	1	207.122849822001	207.159684226001	"9"	20438.882162005	20431.359483471	1.5	0.1
0.01	1	0.714493838000635	1	106	NA	222.186283873001	0	0.57	3.52	1	207.389861812	208.104355650001	"9"	20438.882162005	20431.359483471	1.5	0.1
0.01	1	0.146350069000619	1	106	NA	222.186283873001	0	0.57	3.52	1	208.341527429999	208.487877498999	"9"	20438.882162005	20431.359483471	1.5	0.1
0.01	1	0.162420113996632	1	106	NA	222.186283873001	0	0.57	3.52	1	208.725459837002	208.887879950998	"9"	20438.882162005	20431.359483471	1.5	0.1
0.01	1	0.193878694000887	1	106	NA	222.186283873001	0	0.57	3.52	1	209.12612167	209.320000364001	"9"	20438.882162005	20431.359483471	1.5	0.1
0.01	1	0.265576704001433	1	106	NA	222.186283873001	0	0.57	3.52	1	209.543487077	209.809063781002	"9"	20438.882162005	20431.359483471	1.5	0.1
0.01	1	0.180555836999702	1	106	NA	222.186283873001	0	0.57	3.52	1	210.044356130002	210.224911967001	"9"	20438.882162005	20431.359483471	1.5	0.1
0.01	1	0.130589084001258	1	106	NA	222.186283873001	0	0.57	3.52	1	210.461745457	210.592334541001	"9"	20438.882162005	20431.359483471	1.5	0.1
0.01	1	0.0987235020002117	1	106	NA	222.186283873001	0	0.57	3.52	1	210.828980890001	210.927704392001	"9"	20438.882162005	20431.359483471	1.5	0.1
0.01	1	0.180367360000673	1	106	NA	222.186283873001	0	0.57	3.52	1	211.162953952	211.343321312001	"9"	20438.882162005	20431.359483471	1.5	0.1
0.01	1	0.492072207001911	1	106	NA	222.186283873001	0	0.57	3.52	1	211.580266741999	212.072338949001	"9"	20438.882162005	20431.359483471	1.5	0.1
0.01	1	0.101421862000279	1	106	NA	222.186283873001	0	0.57	3.52	1	212.298197234999	212.399619096999	"9"	20438.882162005	20431.359483471	1.5	0.1
0.01	1	0.120241329001146	1	106	NA	222.186283873001	0	0.57	3.52	1	212.632065909998	212.752307238999	"9"	20438.882162005	20431.359483471	1.5	0.1
0.01	1	0.128829973000393	1	106	NA	222.186283873001	0	0.57	3.52	1	212.982583551999	213.111413524999	"9"	20438.882162005	20431.359483471	1.5	0.1
0.01	1	0.123336430002382	1	106	NA	222.186283873001	0	0.57	3.52	1	213.333227489999	213.456563920001	"9"	20438.882162005	20431.359483471	1.5	0.1
0.01	1	0.0995472080030595	1	106	NA	222.186283873001	0	0.57	3.52	1	213.683829934998	213.783377143001	"9"	20438.882162005	20431.359483471	1.5	0.1
0.01	1	0.111522269002307	1	106	NA	222.186283873001	0	0.57	3.52	1	214.017693869999	214.129216139001	"9"	20438.882162005	20431.359483471	1.5	0.1
0.01	1	0.168657103000442	1	106	NA	222.186283873001	0	0.57	3.52	1	214.368278032001	214.536935135002	"9"	20438.882162005	20431.359483471	1.5	0.1
0.01	1	0.119694905999495	1	106	NA	222.186283873001	0	0.57	3.52	1	214.768942027	214.888636932999	"9"	20438.882162005	20431.359483471	1.5	0.1
0.01	1	0.072085571999196	1	106	NA	222.186283873001	0	0.57	3.52	1	215.119603265	215.191688837	"9"	20438.882162005	20431.359483471	1.5	0.1
0.01	1	0.779989405000379	1	106	NA	222.186283873001	0	0.57	3.52	1	215.419994470001	216.199983875002	"9"	20438.882162005	20431.359483471	1.5	0.1
0.01	1	0.00963255700116861	1	106	NA	222.186283873001	0	0.57	3.52	1	216.438478787	216.448111344002	"9"	20438.882162005	20431.359483471	1.5	0.1
0.01	1	0.071122319001006	1	106	NA	222.186283873001	0	0.57	3.52	1	216.672141322	216.743263641001	"9"	20438.882162005	20431.359483471	1.5	0.1
0.01	1	0.0664606620011909	1	106	NA	222.186283873001	0	0.57	3.52	1	216.972657005001	217.039117667002	"9"	20438.882162005	20431.359483471	1.5	0.1
0.01	1	0.0473472880003101	1	106	NA	222.186283873001	0	0.57	3.52	1	217.273220765001	217.320568053001	"9"	20438.882162005	20431.359483471	1.5	0.1
0.01	1	0.123741324998264	1	106	NA	222.186283873001	0	0.57	3.52	1	217.556930185001	217.680671509999	"9"	20438.882162005	20431.359483471	1.5	0.1
0.01	1	0.0532018470003095	1	106	NA	222.186283873001	0	0.57	3.52	1	217.907527037001	217.960728884002	"9"	20438.882162005	20431.359483471	1.5	0.1
0.01	1	0.0567948809984955	1	106	NA	222.186283873001	0	0.57	3.52	1	218.191387840001	218.248182720999	"9"	20438.882162005	20431.359483471	1.5	0.1
0.01	1	0.125352775998181	1	106	NA	222.186283873001	0	0.57	3.52	1	218.475163055002	218.600515831	"9"	20438.882162005	20431.359483471	1.5	0.1
0.01	1	0.597400901999208	1	106	NA	222.186283873001	0	0.57	3.52	1	218.825772795	219.423173697	"9"	20438.882162005	20431.359483471	1.5	0.1
0.01	1	0.0191634180009714	1	106	NA	222.186283873001	0	0.57	3.52	1	219.660648770001	219.679812188002	"9"	20438.882162005	20431.359483471	1.5	0.1
0.01	1	0.0403953880013432	1	106	NA	222.186283873001	0	0.57	3.52	1	219.91103417	219.951429558001	"9"	20438.882162005	20431.359483471	1.5	0.1
0.01	1	0.0612131459965894	1	106	NA	222.186283873001	0	0.57	3.52	1	220.178085947002	220.239299092998	"9"	20438.882162005	20431.359483471	1.5	0.1
0.01	1	0.0570831380027812	1	106	NA	222.186283873001	0	0.57	3.52	1	220.478568884999	220.535652023002	"9"	20438.882162005	20431.359483471	1.5	0.1
0.01	1	0.0547866569977487	1	106	NA	222.186283873001	0	0.57	3.52	1	220.762390960001	220.817177616998	"9"	20438.882162005	20431.359483471	1.5	0.1
0.01	1	0.0577945570003067	1	106	NA	222.186283873001	0	0.57	3.52	1	221.046253657001	221.104048214002	"9"	20438.882162005	20431.359483471	1.5	0.1
0.01	1	0.078235216999019	1	106	NA	222.186283873001	0	0.57	3.52	1	221.329938080002	221.408173297001	"9"	20438.882162005	20431.359483471	1.5	0.1
0.01	1	0.0807725860031496	1	106	NA	222.186283873001	0	0.57	3.52	1	221.630464574999	221.711237161002	"9"	20438.882162005	20431.359483471	1.5	0.1
0.01	1	0.236896924998291	2	106	NA	222.186283873001	0	0.57	3.52	1	221.947829755001	222.18472668	"9"	20438.882162005	20431.359483471	1.5	0.1
0.01	1	0.518175137000071	1	21	230.14780862	NA	1	0	3.52	1	224.234903191998	224.753078328999	"10"	20438.882162005	20431.359483471	1.5	0.1
0.01	1	0.00688997999895946	1	21	230.14780862	NA	1	0	3.52	1	224.986093205	224.992983184999	"10"	20438.882162005	20431.359483471	1.5	0.1
0.01	1	0.0209845469980792	1	21	230.14780862	NA	1	0	3.52	1	225.219866593001	225.240851139999	"10"	20438.882162005	20431.359483471	1.5	0.1
0.01	1	0.011120421000669	1	21	230.14780862	NA	1	0	3.52	1	225.47042777	225.481548191001	"10"	20438.882162005	20431.359483471	1.5	0.1
0.01	1	0.0153432469996915	1	21	230.14780862	NA	1	0	3.52	1	225.704054500002	225.719397747001	"10"	20438.882162005	20431.359483471	1.5	0.1
0.01	1	0.00686075699923094	1	21	230.14780862	NA	1	0	3.52	1	225.95448805	225.961348806999	"10"	20438.882162005	20431.359483471	1.5	0.1
0.01	1	0.0208835990015359	1	21	230.14780862	NA	1	0	3.52	1	226.188197784999	226.209081384	"10"	20438.882162005	20431.359483471	1.5	0.1
0.01	1	0.00449302899869508	1	21	230.14780862	NA	1	0	3.52	1	226.438584903	226.443077931999	"10"	20438.882162005	20431.359483471	1.5	0.1
0.01	1	0.0157846379988769	1	21	230.14780862	NA	1	0	3.52	1	226.672302292001	226.68808693	"10"	20438.882162005	20431.359483471	1.5	0.1
0.01	1	0.0141060300011304	1	21	230.14780862	NA	1	0	3.52	1	226.922837214999	226.936943245	"10"	20438.882162005	20431.359483471	1.5	0.1
0.01	1	0.395077058001334	1	21	230.14780862	NA	1	0	3.52	1	227.173132874999	227.568209933001	"10"	20438.882162005	20431.359483471	1.5	0.1
0.01	1	0.0418363669996324	1	21	230.14780862	NA	1	0	3.52	1	227.790966777	227.832803144	"10"	20438.882162005	20431.359483471	1.5	0.1
0.01	1	0.0303073540017067	1	21	230.14780862	NA	1	0	3.52	1	228.058047769999	228.088355124	"10"	20438.882162005	20431.359483471	1.5	0.1
0.01	1	0.0109936799999559	1	21	230.14780862	NA	1	0	3.52	1	228.325044084999	228.336037764999	"10"	20438.882162005	20431.359483471	1.5	0.1
0.01	1	0.0338359080014925	1	21	230.14780862	NA	1	0	3.52	1	228.558763749999	228.592599658001	"10"	20438.882162005	20431.359483471	1.5	0.1
0.01	1	0.0151969959988492	1	21	230.14780862	NA	1	0	3.52	1	228.825951045001	228.841148041	"10"	20438.882162005	20431.359483471	1.5	0.1
0.01	1	0.0105015250010183	1	21	230.14780862	NA	1	0	3.52	1	229.076425740001	229.086927265002	"10"	20438.882162005	20431.359483471	1.5	0.1
0.01	1	0.00458748500022921	1	21	230.14780862	NA	1	0	3.52	1	229.310062600001	229.314650085002	"10"	20438.882162005	20431.359483471	1.5	0.1
0.01	1	0.0154690029994526	1	21	230.14780862	NA	1	0	3.52	1	229.543856195	229.559325197999	"10"	20438.882162005	20431.359483471	1.5	0.1
0.01	1	0.00342203399850405	1	21	230.14780862	NA	1	0	3.52	1	229.794210607	229.797632640999	"10"	20438.882162005	20431.359483471	1.5	0.1
0.01	1	0.0134280279999075	1	21	230.14780862	NA	1	0	3.52	1	230.028018875	230.041446903	"10"	20438.882162005	20431.359483471	1.5	0.1
0.01	1	0.929629164002108	1	19	238.329155384999	NA	1	0	3.52	1	232.1982627	233.127891864002	"11"	20438.882162005	20431.359483471	1.5	0.1
0.01	1	0.024445792001643	1	19	238.329155384999	NA	1	0	3.52	1	233.366962335	233.391408127001	"11"	20438.882162005	20431.359483471	1.5	0.1
0.01	1	0.0464613799995277	1	19	238.329155384999	NA	1	0	3.52	1	233.617407400001	233.66386878	"11"	20438.882162005	20431.359483471	1.5	0.1
0.01	1	0.0347993770010362	1	19	238.329155384999	NA	1	0	3.52	1	233.901172152	233.935971529001	"11"	20438.882162005	20431.359483471	1.5	0.1
0.01	1	0.0102971790001902	1	19	238.329155384999	NA	1	0	3.52	1	234.168354090001	234.178651269001	"11"	20438.882162005	20431.359483471	1.5	0.1
0.01	1	0.0151454560000275	1	19	238.329155384999	NA	1	0	3.52	1	234.40201908	234.417164536	"11"	20438.882162005	20431.359483471	1.5	0.1
0.01	1	0.0204654820008727	1	19	238.329155384999	NA	1	0	3.52	1	234.652393734999	234.672859217	"11"	20438.882162005	20431.359483471	1.5	0.1
0.01	1	0.00970776599933743	1	19	238.329155384999	NA	1	0	3.52	1	234.902858882	234.912566647999	"11"	20438.882162005	20431.359483471	1.5	0.1
0.01	1	0.0316711489977024	1	19	238.329155384999	NA	1	0	3.52	1	235.136540365002	235.168211513999	"11"	20438.882162005	20431.359483471	1.5	0.1
0.01	1	0.0209709629998542	1	19	238.329155384999	NA	1	0	3.52	1	235.403662875	235.424633838	"11"	20438.882162005	20431.359483471	1.5	0.1
0.01	1	0.0655770889970881	1	19	238.329155384999	NA	1	0	3.52	1	235.654070870001	235.719647958998	"11"	20438.882162005	20431.359483471	1.5	0.1
0.01	1	0.301110207001329	1	19	238.329155384999	NA	1	0	3.52	1	235.954637187999	236.255747395	"11"	20438.882162005	20431.359483471	1.5	0.1
0.01	1	0.00984058399990317	1	19	238.329155384999	NA	1	0	3.52	1	236.488800294999	236.498640878999	"11"	20438.882162005	20431.359483471	1.5	0.1
0.01	1	0.0128169720010192	1	19	238.329155384999	NA	1	0	3.52	1	236.722609024	236.735425996001	"11"	20438.882162005	20431.359483471	1.5	0.1
0.01	1	0.0115071799991711	1	19	238.329155384999	NA	1	0	3.52	1	236.97297196	236.984479139999	"11"	20438.882162005	20431.359483471	1.5	0.1
0.01	1	0.0487255890002416	1	19	238.329155384999	NA	1	0	3.52	1	237.206783635	237.255509224	"11"	20438.882162005	20431.359483471	1.5	0.1
0.01	1	0.0849124670021411	1	19	238.329155384999	NA	1	0	3.52	1	237.490651389999	237.575563857001	"11"	20438.882162005	20431.359483471	1.5	0.1
0.01	1	0.0477777430023707	1	19	238.329155384999	NA	1	0	3.52	1	237.807644781999	237.855422525001	"11"	20438.882162005	20431.359483471	1.5	0.1
0.01	1	0.117230594998546	1	19	238.329155384999	NA	1	0	3.52	1	238.091537977001	238.208768572	"11"	20438.882162005	20431.359483471	1.5	0.1
0.01	1	0.301982913999382	1	63	NA	257.570691145	0	0.5	4.02	1	240.378779760002	240.680762674001	"12"	20438.882162005	20431.359483471	1.5	0.1
0.01	1	0.0388994790009747	1	63	NA	257.570691145	0	0.5	4.02	1	240.912867772	240.951767251001	"12"	20438.882162005	20431.359483471	1.5	0.1
0.01	1	0.0603883100011444	1	63	NA	257.570691145	0	0.5	4.02	1	241.18009546	241.240483770001	"12"	20438.882162005	20431.359483471	1.5	0.1
0.01	1	0.0556440279979142	1	63	NA	257.570691145	0	0.5	4.02	1	241.463843902002	241.51948793	"12"	20438.882162005	20431.359483471	1.5	0.1
0.01	1	0.0451192280015675	1	63	NA	257.570691145	0	0.5	4.02	1	241.747730322	241.792849550002	"12"	20438.882162005	20431.359483471	1.5	0.1
0.01	1	0.0333911429988802	1	63	NA	257.570691145	0	0.5	4.02	1	242.031428745002	242.064819888001	"12"	20438.882162005	20431.359483471	1.5	0.1
0.01	1	0.0211627520002367	1	63	NA	257.570691145	0	0.5	4.02	1	242.2987273	242.319890052	"12"	20438.882162005	20431.359483471	1.5	0.1
0.01	1	0.0278458569991926	1	63	NA	257.570691145	0	0.5	4.02	1	242.549048659999	242.576894516998	"12"	20438.882162005	20431.359483471	1.5	0.1
0.01	1	0.03359403200011	1	63	NA	257.570691145	0	0.5	4.02	1	242.799368856999	242.832962888999	"12"	20438.882162005	20431.359483471	1.5	0.1
0.01	1	0.0617203330002667	1	63	NA	257.570691145	0	0.5	4.02	1	243.066494016999	243.128214349999	"12"	20438.882162005	20431.359483471	1.5	0.1
0.01	1	0.353579806000198	1	63	NA	257.570691145	0	0.5	4.02	1	243.350358355001	243.703938161001	"12"	20438.882162005	20431.359483471	1.5	0.1
0.01	1	0.0104120830001193	1	63	NA	257.570691145	0	0.5	4.02	1	243.934704469	243.945116552	"12"	20438.882162005	20431.359483471	1.5	0.1
0.01	1	0.0388662350014783	1	63	NA	257.570691145	0	0.5	4.02	1	244.168442779999	244.207309015001	"12"	20438.882162005	20431.359483471	1.5	0.1
0.01	1	0.0444428629998583	1	63	NA	257.570691145	0	0.5	4.02	1	244.435550409999	244.479993272998	"12"	20438.882162005	20431.359483471	1.5	0.1
0.01	1	0.0492996809989563	1	63	NA	257.570691145	0	0.5	4.02	1	244.702635540001	244.751935221	"12"	20438.882162005	20431.359483471	1.5	0.1
0.01	1	0.0225519289997465	1	63	NA	257.570691145	0	0.5	4.02	1	244.986476919999	245.009028848999	"12"	20438.882162005	20431.359483471	1.5	0.1
0.01	1	0.0432563099966501	1	63	NA	257.570691145	0	0.5	4.02	1	245.236889062002	245.280145371999	"12"	20438.882162005	20431.359483471	1.5	0.1
0.01	1	0.0413112209971587	1	63	NA	257.570691145	0	0.5	4.02	1	245.503947705001	245.545258925998	"12"	20438.882162005	20431.359483471	1.5	0.1
0.01	1	0.0601382810018549	1	63	NA	257.570691145	0	0.5	4.02	1	245.771047397	245.831185678002	"12"	20438.882162005	20431.359483471	1.5	0.1
0.01	1	0.0340421590008191	1	63	NA	257.570691145	0	0.5	4.02	1	246.054865239999	246.088907399	"12"	20438.882162005	20431.359483471	1.5	0.1
0.01	1	0.461754448999272	1	63	NA	257.570691145	0	0.5	4.02	1	246.322065942	246.783820391	"12"	20438.882162005	20431.359483471	1.5	0.1
0.01	1	0.0026560430014797	1	63	NA	257.570691145	0	0.5	4.02	1	247.023186691	247.025842734001	"12"	20438.882162005	20431.359483471	1.5	0.1
0.01	1	0.071279327999946	1	63	NA	257.570691145	0	0.5	4.02	1	247.256987745001	247.328267073	"12"	20438.882162005	20431.359483471	1.5	0.1
0.01	1	0.0578750929998932	1	63	NA	257.570691145	0	0.5	4.02	1	247.557541087001	247.61541618	"12"	20438.882162005	20431.359483471	1.5	0.1
0.01	1	0.094792444997438	1	63	NA	257.570691145	0	0.5	4.02	1	247.841289577002	247.936082021999	"12"	20438.882162005	20431.359483471	1.5	0.1
0.01	1	0.0503340100003697	1	63	NA	257.570691145	0	0.5	4.02	1	248.158406679999	248.208740689999	"12"	20438.882162005	20431.359483471	1.5	0.1
0.01	1	0.0708322400023462	1	63	NA	257.570691145	0	0.5	4.02	1	248.442264896999	248.513097137002	"12"	20438.882162005	20431.359483471	1.5	0.1
0.01	1	0.0653244979985175	1	63	NA	257.570691145	0	0.5	4.02	1	248.742834755001	248.808159253	"12"	20438.882162005	20431.359483471	1.5	0.1
0.01	1	0.0685626390004472	1	63	NA	257.570691145	0	0.5	4.02	1	249.043343220001	249.111905859001	"12"	20438.882162005	20431.359483471	1.5	0.1
0.01	1	0.0957203489997482	1	63	NA	257.570691145	0	0.5	4.02	1	249.3437863	249.439506649	"12"	20438.882162005	20431.359483471	1.5	0.1
0.01	1	0.642194635001943	1	63	NA	257.570691145	0	0.5	4.02	1	249.677700777	250.319895412002	"12"	20438.882162005	20431.359483471	1.5	0.1
0.01	1	0.053441477000888	1	63	NA	257.570691145	0	0.5	4.02	1	250.545798952	250.599240429001	"12"	20438.882162005	20431.359483471	1.5	0.1
0.01	1	0.0740324159996817	1	63	NA	257.570691145	0	0.5	4.02	1	250.829555125001	250.903587541001	"12"	20438.882162005	20431.359483471	1.5	0.1
0.01	1	0.0452231800009031	1	63	NA	257.570691145	0	0.5	4.02	1	251.130091154999	251.175314335	"12"	20438.882162005	20431.359483471	1.5	0.1
0.01	1	0.0500241640002059	1	63	NA	257.570691145	0	0.5	4.02	1	251.413871525001	251.463895689001	"12"	20438.882162005	20431.359483471	1.5	0.1
0.01	1	0.023367170997517	1	63	NA	257.570691145	0	0.5	4.02	1	251.697904575001	251.721271745999	"12"	20438.882162005	20431.359483471	1.5	0.1
0.01	1	0.0523238720015797	1	63	NA	257.570691145	0	0.5	4.02	1	251.948202924999	252.000526797001	"12"	20438.882162005	20431.359483471	1.5	0.1
0.01	1	0.0395416360006493	1	63	NA	257.570691145	0	0.5	4.02	1	252.232022971999	252.271564608	"12"	20438.882162005	20431.359483471	1.5	0.1
0.01	1	0.0453861339992727	1	63	NA	257.570691145	0	0.5	4.02	1	252.499187519999	252.544573653999	"12"	20438.882162005	20431.359483471	1.5	0.1
0.01	1	0.0414100150010199	1	63	NA	257.570691145	0	0.5	4.02	1	252.782953319998	252.824363334999	"12"	20438.882162005	20431.359483471	1.5	0.1
0.01	1	0.734348283000145	1	63	NA	257.570691145	0	0.5	4.02	1	253.050106441999	253.784454724999	"12"	20438.882162005	20431.359483471	1.5	0.1
0.01	1	0.0460466000004089	1	63	NA	257.570691145	0	0.5	4.02	1	254.018298133	254.064344733	"12"	20438.882162005	20431.359483471	1.5	0.1
0.01	1	0.0588204529994982	1	63	NA	257.570691145	0	0.5	4.02	1	254.302057262001	254.360877715	"12"	20438.882162005	20431.359483471	1.5	0.1
0.01	1	0.0713417349979864	1	63	NA	257.570691145	0	0.5	4.02	1	254.585912072002	254.657253807	"12"	20438.882162005	20431.359483471	1.5	0.1
0.01	1	0.0576247090029938	1	63	NA	257.570691145	0	0.5	4.02	1	254.886505401999	254.944130111002	"12"	20438.882162005	20431.359483471	1.5	0.1
0.01	1	0.0623600389990315	1	63	NA	257.570691145	0	0.5	4.02	1	255.170269142	255.232629180999	"12"	20438.882162005	20431.359483471	1.5	0.1
0.01	1	0.0976929399985238	1	63	NA	257.570691145	0	0.5	4.02	1	255.470777963001	255.568470902999	"12"	20438.882162005	20431.359483471	1.5	0.1
0.01	1	0.3550547440027	1	63	NA	257.570691145	0	0.5	4.02	1	255.804666282998	256.159721027001	"12"	20438.882162005	20431.359483471	1.5	0.1
0.01	1	0.226140902999759	1	63	NA	257.570691145	0	0.5	4.02	1	256.389012975	256.615153878	"12"	20438.882162005	20431.359483471	1.5	0.1
0.01	1	0.2010729370013	1	63	NA	257.570691145	0	0.5	4.02	1	256.839649075999	257.040722013	"12"	20438.882162005	20431.359483471	1.5	0.1
0.01	1	0.295321771998715	2	63	NA	257.570691145	0	0.5	4.02	1	257.273766617	257.569088388998	"12"	20438.882162005	20431.359483471	1.5	0.1
0.01	1	0.462616540000454	1	54	279.28063831	NA	1	0	4.02	1	259.594389310001	260.057005850002	"13"	20438.882162005	20431.359483471	1.5	0.1
0.01	1	0.00975051299974439	1	54	279.28063831	NA	1	0	4.02	1	260.295479979999	260.305230492999	"13"	20438.882162005	20431.359483471	1.5	0.1
0.01	1	0.00688377900223713	1	54	279.28063831	NA	1	0	4.02	1	260.529222601999	260.536106381001	"13"	20438.882162005	20431.359483471	1.5	0.1
0.01	1	0.0371237130020745	1	54	279.28063831	NA	1	0	4.02	1	260.763012916999	260.800136630001	"13"	20438.882162005	20431.359483471	1.5	0.1
0.01	1	0.0343715679991874	1	54	279.28063831	NA	1	0	4.02	1	261.030084315	261.064455882999	"13"	20438.882162005	20431.359483471	1.5	0.1
0.01	1	0.0312735590014199	1	54	279.28063831	NA	1	0	4.02	1	261.297208776999	261.328482336001	"13"	20438.882162005	20431.359483471	1.5	0.1
0.01	1	0.011451570000645	1	54	279.28063831	NA	1	0	4.02	1	261.564403507	261.575855077001	"13"	20438.882162005	20431.359483471	1.5	0.1
0.01	1	0.0262036540007102	1	54	279.28063831	NA	1	0	4.02	1	261.798080454999	261.824284109	"13"	20438.882162005	20431.359483471	1.5	0.1
0.01	1	0.0399052510001638	1	54	279.28063831	NA	1	0	4.02	1	262.048594432999	262.088499684	"13"	20438.882162005	20431.359483471	1.5	0.1
0.01	1	0.0445358239994675	1	54	279.28063831	NA	1	0	4.02	1	262.315529725001	262.360065549001	"13"	20438.882162005	20431.359483471	1.5	0.1
0.01	1	0.60163676600132	1	54	279.28063831	NA	1	0	4.02	1	262.582766197	263.184402963001	"13"	20438.882162005	20431.359483471	1.5	0.1
0.01	1	0.00681815700227162	1	54	279.28063831	NA	1	0	4.02	1	263.417447471998	263.424265629001	"13"	20438.882162005	20431.359483471	1.5	0.1
0.01	1	0.029923966001661	1	54	279.28063831	NA	1	0	4.02	1	263.651144423999	263.68106839	"13"	20438.882162005	20431.359483471	1.5	0.1
0.01	1	0.0265625360007107	1	54	279.28063831	NA	1	0	4.02	1	263.918295642001	263.944858178002	"13"	20438.882162005	20431.359483471	1.5	0.1
0.01	1	0.0465604070013796	1	54	279.28063831	NA	1	0	4.02	1	264.16871306	264.215273467002	"13"	20438.882162005	20431.359483471	1.5	0.1
0.01	1	0.0763054960007139	1	54	279.28063831	NA	1	0	4.02	1	264.452570425001	264.528875921002	"13"	20438.882162005	20431.359483471	1.5	0.1
0.01	1	0.0941823150023993	1	54	279.28063831	NA	1	0	4.02	1	264.753061399999	264.847243715001	"13"	20438.882162005	20431.359483471	1.5	0.1
0.01	1	0.0972235839981295	1	54	279.28063831	NA	1	0	4.02	1	265.070338563	265.167562146999	"13"	20438.882162005	20431.359483471	1.5	0.1
0.01	1	0.0605035500011581	1	54	279.28063831	NA	1	0	4.02	1	265.404148152	265.464651702001	"13"	20438.882162005	20431.359483471	1.5	0.1
0.01	1	0.0794328979973216	1	54	279.28063831	NA	1	0	4.02	1	265.687964460001	265.767397357999	"13"	20438.882162005	20431.359483471	1.5	0.1
0.01	1	0.594567824999103	1	54	279.28063831	NA	1	0	4.02	1	266.005101015002	266.599668840001	"13"	20438.882162005	20431.359483471	1.5	0.1
0.01	1	0.113021401000879	1	54	279.28063831	NA	1	0	4.02	1	266.839834869999	266.952856271	"13"	20438.882162005	20431.359483471	1.5	0.1
0.01	1	0.0905941960008931	1	54	279.28063831	NA	1	0	4.02	1	267.173824327001	267.264418523002	"13"	20438.882162005	20431.359483471	1.5	0.1
0.01	1	0.108229278997896	1	54	279.28063831	NA	1	0	4.02	1	267.49090303	267.599132308998	"13"	20438.882162005	20431.359483471	1.5	0.1
0.01	1	0.11077860200021	1	54	279.28063831	NA	1	0	4.02	1	267.824866941999	267.935645543999	"13"	20438.882162005	20431.359483471	1.5	0.1
0.01	1	0.114270743000816	1	54	279.28063831	NA	1	0	4.02	1	268.158902250001	268.273172993002	"13"	20438.882162005	20431.359483471	1.5	0.1
0.01	1	0.298487071999261	1	54	279.28063831	NA	1	0	4.02	1	268.509356167	268.807843238999	"13"	20438.882162005	20431.359483471	1.5	0.1
0.01	1	0.30901338199692	1	54	279.28063831	NA	1	0	4.02	1	269.043678597001	269.352691978998	"13"	20438.882162005	20431.359483471	1.5	0.1
0.01	1	0.110714710001048	1	54	279.28063831	NA	1	0	4.02	1	269.577871850001	269.688586560002	"13"	20438.882162005	20431.359483471	1.5	0.1
0.01	1	0.0800596900007804	1	54	279.28063831	NA	1	0	4.02	1	269.928535424999	270.008595114999	"13"	20438.882162005	20431.359483471	1.5	0.1
0.01	1	0.0354950690016267	1	54	279.28063831	NA	1	0	4.02	1	270.245637335	270.281132404001	"13"	20438.882162005	20431.359483471	1.5	0.1
0.01	1	0.416233717998693	1	54	279.28063831	NA	1	0	4.02	1	270.512750277001	270.928983995	"13"	20438.882162005	20431.359483471	1.5	0.1
0.01	1	0.0212010279974493	1	54	279.28063831	NA	1	0	4.02	1	271.163816462002	271.185017489999	"13"	20438.882162005	20431.359483471	1.5	0.1
0.01	1	0.0820692230008717	1	54	279.28063831	NA	1	0	4.02	1	271.414266611999	271.496335835	"13"	20438.882162005	20431.359483471	1.5	0.1
0.01	1	0.0766678260006302	1	54	279.28063831	NA	1	0	4.02	1	271.731446047001	271.808113873001	"13"	20438.882162005	20431.359483471	1.5	0.1
0.01	1	0.111337842001376	1	54	279.28063831	NA	1	0	4.02	1	272.031935940999	272.143273783	"13"	20438.882162005	20431.359483471	1.5	0.1
0.01	1	0.0657669369975338	1	54	279.28063831	NA	1	0	4.02	1	272.365830825001	272.431597761999	"13"	20438.882162005	20431.359483471	1.5	0.1
0.01	1	0.0701056919970142	1	54	279.28063831	NA	1	0	4.02	1	272.666360275001	272.736465966998	"13"	20438.882162005	20431.359483471	1.5	0.1
0.01	1	0.0969534369978646	1	54	279.28063831	NA	1	0	4.02	1	272.966924182001	273.063877618999	"13"	20438.882162005	20431.359483471	1.5	0.1
0.01	1	0.0434509049991902	1	54	279.28063831	NA	1	0	4.02	1	273.300771180002	273.344222085001	"13"	20438.882162005	20431.359483471	1.5	0.1
0.01	1	0.0557382169972698	1	54	279.28063831	NA	1	0	4.02	1	273.567790395002	273.623528611999	"13"	20438.882162005	20431.359483471	1.5	0.1
0.01	1	0.0675768020009855	1	54	279.28063831	NA	1	0	4.02	1	273.851677265	273.919254067001	"13"	20438.882162005	20431.359483471	1.5	0.1
0.01	1	0.607768629997736	1	54	279.28063831	NA	1	0	4.02	1	274.152117090001	274.759885719999	"13"	20438.882162005	20431.359483471	1.5	0.1
0.01	1	0.0540776119996735	1	54	279.28063831	NA	1	0	4.02	1	274.986921042	275.040998654	"13"	20438.882162005	20431.359483471	1.5	0.1
0.01	1	0.082374424997397	1	54	279.28063831	NA	1	0	4.02	1	275.270762798002	275.353137222999	"13"	20438.882162005	20431.359483471	1.5	0.1
0.01	1	0.0451340750005329	1	54	279.28063831	NA	1	0	4.02	1	275.587963095	275.633097170001	"13"	20438.882162005	20431.359483471	1.5	0.1
0.01	1	0.0634410450002179	1	54	279.28063831	NA	1	0	4.02	1	275.871772869999	275.935213915	"13"	20438.882162005	20431.359483471	1.5	0.1
0.01	1	0.114911090000533	1	54	279.28063831	NA	1	0	4.02	1	276.1723284	276.287239490001	"13"	20438.882162005	20431.359483471	1.5	0.1
0.01	1	0.294288904999121	1	54	279.28063831	NA	1	0	4.02	1	276.522891870001	276.817180775	"13"	20438.882162005	20431.359483471	1.5	0.1
0.01	1	0.07988043700243	1	54	279.28063831	NA	1	0	4.02	1	277.040345896999	277.120226334002	"13"	20438.882162005	20431.359483471	1.5	0.1
0.01	1	0.0495180590005475	1	54	279.28063831	NA	1	0	4.02	1	277.357655805001	277.407173864001	"13"	20438.882162005	20431.359483471	1.5	0.1
0.01	1	0.0871252870019816	1	54	279.28063831	NA	1	0	4.02	1	277.641425509999	277.728550797001	"13"	20438.882162005	20431.359483471	1.5	0.1
0.01	1	0.0733573530014837	1	54	279.28063831	NA	1	0	4.02	1	277.958589181999	278.031946535	"13"	20438.882162005	20431.359483471	1.5	0.1
0.01	1	0.901919448999251	1	54	279.28063831	NA	1	0	4.02	1	278.2591756	279.161095048999	"13"	20438.882162005	20431.359483471	1.5	0.1
0.01	1	0.637063441001374	1	103	NA	295.753197246002	0	0.41	4.43	1	281.33093443	281.967997871001	"14"	20438.882162005	20431.359483471	1.5	0.1
0.01	1	0.0247519410004315	1	103	NA	295.753197246002	0	0.41	4.43	1	282.198980509998	282.223732450999	"14"	20438.882162005	20431.359483471	1.5	0.1
0.01	1	0.0638289210000949	1	103	NA	295.753197246002	0	0.41	4.43	1	282.449398690002	282.513227611002	"14"	20438.882162005	20431.359483471	1.5	0.1
0.01	1	0.0096761749991856	1	103	NA	295.753197246002	0	0.41	4.43	1	282.74997103	282.759647204999	"14"	20438.882162005	20431.359483471	1.5	0.1
0.01	1	0.0335082169985981	1	103	NA	295.753197246002	0	0.41	4.43	1	282.983723812002	283.017232029	"14"	20438.882162005	20431.359483471	1.5	0.1
0.01	1	0.0539314589987043	1	103	NA	295.753197246002	0	0.41	4.43	1	283.250811685	283.304743143999	"14"	20438.882162005	20431.359483471	1.5	0.1
0.01	1	0.0503098670014879	1	103	NA	295.753197246002	0	0.41	4.43	1	283.53481306	283.585122927001	"14"	20438.882162005	20431.359483471	1.5	0.1
0.01	1	0.030096192000201	1	103	NA	295.753197246002	0	0.41	4.43	1	283.818440810999	283.848537002999	"14"	20438.882162005	20431.359483471	1.5	0.1
0.01	1	0.0591327649999585	1	103	NA	295.753197246002	0	0.41	4.43	1	284.085577534999	284.144710299999	"14"	20438.882162005	20431.359483471	1.5	0.1
0.01	1	0.039330895000603	1	103	NA	295.753197246002	0	0.41	4.43	1	284.369396202001	284.408727097001	"14"	20438.882162005	20431.359483471	1.5	0.1
0.01	1	0.0759431059996132	1	103	NA	295.753197246002	0	0.41	4.43	1	284.636542020002	284.712485126001	"14"	20438.882162005	20431.359483471	1.5	0.1
0.01	1	0.33473635199698	1	103	NA	295.753197246002	0	0.41	4.43	1	284.936997142002	285.271733493999	"14"	20438.882162005	20431.359483471	1.5	0.1
0.01	1	0.0244614420007565	1	103	NA	295.753197246002	0	0.41	4.43	1	285.504628782001	285.529090224001	"14"	20438.882162005	20431.359483471	1.5	0.1
0.01	1	0.0376242160018592	1	103	NA	295.753197246002	0	0.41	4.43	1	285.755013405	285.792637621002	"14"	20438.882162005	20431.359483471	1.5	0.1
0.01	1	0.0331261000028462	1	103	NA	295.753197246002	0	0.41	4.43	1	286.022124039999	286.055250140002	"14"	20438.882162005	20431.359483471	1.5	0.1
0.01	1	0.0539139790016634	1	103	NA	295.753197246002	0	0.41	4.43	1	286.289258029999	286.343172009001	"14"	20438.882162005	20431.359483471	1.5	0.1
0.01	1	0.0595539969981473	1	103	NA	295.753197246002	0	0.41	4.43	1	286.573101090002	286.632655087	"14"	20438.882162005	20431.359483471	1.5	0.1
0.01	1	0.0478936580002483	1	103	NA	295.753197246002	0	0.41	4.43	1	286.856868405001	286.904762063001	"14"	20438.882162005	20431.359483471	1.5	0.1
0.01	1	0.0265938939992338	1	103	NA	295.753197246002	0	0.41	4.43	1	287.14063143	287.167225323999	"14"	20438.882162005	20431.359483471	1.5	0.1
0.01	1	0.056538749999163	1	103	NA	295.753197246002	0	0.41	4.43	1	287.391169325001	287.447708075	"14"	20438.882162005	20431.359483471	1.5	0.1
0.01	1	0.0530286089997389	1	103	NA	295.753197246002	0	0.41	4.43	1	287.674959481999	287.727988090999	"14"	20438.882162005	20431.359483471	1.5	0.1
0.01	1	0.0503546149993781	1	103	NA	295.753197246002	0	0.41	4.43	1	287.958738159999	288.009092774999	"14"	20438.882162005	20431.359483471	1.5	0.1
0.01	1	0.892969060998439	1	103	NA	295.753197246002	0	0.41	4.43	1	288.242505057002	289.135474118	"14"	20438.882162005	20431.359483471	1.5	0.1
0.01	1	0.06345438399876	1	103	NA	295.753197246002	0	0.41	4.43	1	289.36103511	289.424489493998	"14"	20438.882162005	20431.359483471	1.5	0.1
0.01	1	0.0665752439999778	1	103	NA	295.753197246002	0	0.41	4.43	1	289.661722195	289.728297439	"14"	20438.882162005	20431.359483471	1.5	0.1
0.01	1	0.0780470919999061	1	103	NA	295.753197246002	0	0.41	4.43	1	289.962089840999	290.040136932999	"14"	20438.882162005	20431.359483471	1.5	0.1
0.01	1	0.0740085880024708	1	103	NA	295.753197246002	0	0.41	4.43	1	290.262678800998	290.336687389001	"14"	20438.882162005	20431.359483471	1.5	0.1
0.01	1	0.0923233579997031	1	103	NA	295.753197246002	0	0.41	4.43	1	290.56317428	290.655497637999	"14"	20438.882162005	20431.359483471	1.5	0.1
0.01	1	0.0965293869994639	1	103	NA	295.753197246002	0	0.41	4.43	1	290.880355325	290.976884711999	"14"	20438.882162005	20431.359483471	1.5	0.1
0.01	1	0.0667939259983541	1	103	NA	295.753197246002	0	0.41	4.43	1	291.214224715	291.281018640999	"14"	20438.882162005	20431.359483471	1.5	0.1
0.01	1	0.0617888180022419	1	103	NA	295.753197246002	0	0.41	4.43	1	291.514696631999	291.576485450001	"14"	20438.882162005	20431.359483471	1.5	0.1
0.01	1	0.0655693769986101	1	103	NA	295.753197246002	0	0.41	4.43	1	291.798576312001	291.864145689	"14"	20438.882162005	20431.359483471	1.5	0.1
0.01	1	0.0536974339993321	1	103	NA	295.753197246002	0	0.41	4.43	1	292.099014372001	292.152711806	"14"	20438.882162005	20431.359483471	1.5	0.1
0.01	1	0.552731035000761	1	103	NA	295.753197246002	0	0.41	4.43	1	292.382893909999	292.935624944999	"14"	20438.882162005	20431.359483471	1.5	0.1
0.01	1	0.207780393000576	1	103	NA	295.753197246002	0	0.41	4.43	1	293.167490669999	293.375271063	"14"	20438.882162005	20431.359483471	1.5	0.1
0.01	1	0.1272794409997	1	103	NA	295.753197246002	0	0.41	4.43	1	293.601627082	293.728906523	"14"	20438.882162005	20431.359483471	1.5	0.1
0.01	1	0.0795390510029392	1	103	NA	295.753197246002	0	0.41	4.43	1	293.952191044998	294.031730096001	"14"	20438.882162005	20431.359483471	1.5	0.1
0.01	1	0.0513508280018868	1	103	NA	295.753197246002	0	0.41	4.43	1	294.269282731999	294.320633560001	"14"	20438.882162005	20431.359483471	1.5	0.1
0.01	1	0.0558449359996303	1	103	NA	295.753197246002	0	0.41	4.43	1	294.553211612001	294.609056548001	"14"	20438.882162005	20431.359483471	1.5	0.1
0.01	1	0.0360609959971043	1	103	NA	295.753197246002	0	0.41	4.43	1	294.836977390001	294.873038385998	"14"	20438.882162005	20431.359483471	1.5	0.1
0.01	1	0.159741776998999	1	103	NA	295.753197246002	0	0.41	4.43	1	295.104095215	295.263836991999	"14"	20438.882162005	20431.359483471	1.5	0.1
0.01	1	0.263511011999071	2	103	NA	295.753197246002	0	0.41	4.43	1	295.488141720001	295.751652732	"14"	20438.882162005	20431.359483471	1.5	0.1
0.01	1	0.231122467001114	1	120	NA	314.08248451	0	0.45	4.88	1	297.808617217001	298.039739684002	"15"	20438.882162005	20431.359483471	1.5	0.1
0.01	1	0.0995637720006926	1	120	NA	314.08248451	0	0.45	4.88	1	298.276059017	298.375622789001	"15"	20438.882162005	20431.359483471	1.5	0.1
0.01	1	0.0703623090012115	1	120	NA	314.08248451	0	0.45	4.88	1	298.609893716999	298.680256026	"15"	20438.882162005	20431.359483471	1.5	0.1
0.01	1	0.0418181329987419	1	120	NA	314.08248451	0	0.45	4.88	1	298.91045933	298.952277462999	"15"	20438.882162005	20431.359483471	1.5	0.1
0.01	1	0.0303345109969086	1	120	NA	314.08248451	0	0.45	4.88	1	299.177672230002	299.208006740999	"15"	20438.882162005	20431.359483471	1.5	0.1
0.01	1	0.0351870919985231	1	120	NA	314.08248451	0	0.45	4.88	1	299.444761940002	299.479949032	"15"	20438.882162005	20431.359483471	1.5	0.1
0.01	1	0.0650750599997991	1	120	NA	314.08248451	0	0.45	4.88	1	299.711928072	299.777003132	"15"	20438.882162005	20431.359483471	1.5	0.1
0.01	1	0.116435441999784	1	120	NA	314.08248451	0	0.45	4.88	1	300.01236149	300.128796932	"15"	20438.882162005	20431.359483471	1.5	0.1
0.01	1	0.0377326989982976	1	120	NA	314.08248451	0	0.45	4.88	1	300.362975085001	300.400707784	"15"	20438.882162005	20431.359483471	1.5	0.1
0.01	1	0.0261166929994943	1	120	NA	314.08248451	0	0.45	4.88	1	300.630088867001	300.656205560001	"15"	20438.882162005	20431.359483471	1.5	0.1
0.01	1	0.112045812998986	1	120	NA	314.08248451	0	0.45	4.88	1	300.880539432001	300.992585245	"15"	20438.882162005	20431.359483471	1.5	0.1
0.01	1	0.360795063999831	1	120	NA	314.08248451	0	0.45	4.88	1	301.231078465	301.591873529	"15"	20438.882162005	20431.359483471	1.5	0.1
0.01	1	0.03285562399833	1	120	NA	314.08248451	0	0.45	4.88	1	301.815453217001	301.848308840999	"15"	20438.882162005	20431.359483471	1.5	0.1
0.01	1	0.0449722810008097	1	120	NA	314.08248451	0	0.45	4.88	1	302.082616912001	302.127589193002	"15"	20438.882162005	20431.359483471	1.5	0.1
0.01	1	0.0432527699995262	1	120	NA	314.08248451	0	0.45	4.88	1	302.349616642001	302.392869412	"15"	20438.882162005	20431.359483471	1.5	0.1
0.01	1	0.0720119600009639	1	120	NA	314.08248451	0	0.45	4.88	1	302.616671157	302.688683117001	"15"	20438.882162005	20431.359483471	1.5	0.1
0.01	1	0.0518681319990719	1	120	NA	314.08248451	0	0.45	4.88	1	302.917189660002	302.969057792001	"15"	20438.882162005	20431.359483471	1.5	0.1
0.01	1	0.0558261910009605	1	120	NA	314.08248451	0	0.45	4.88	1	303.20096885	303.256795041001	"15"	20438.882162005	20431.359483471	1.5	0.1
0.01	1	0.0361562699981732	1	120	NA	314.08248451	0	0.45	4.88	1	303.484900430001	303.521056699999	"15"	20438.882162005	20431.359483471	1.5	0.1
0.01	1	0.0407109760017192	1	120	NA	314.08248451	0	0.45	4.88	1	303.751945144999	303.792656121001	"15"	20438.882162005	20431.359483471	1.5	0.1
0.01	1	0.100705523000215	1	120	NA	314.08248451	0	0.45	4.88	1	304.019081152001	304.119786675001	"15"	20438.882162005	20431.359483471	1.5	0.1
0.01	1	0.62256245000026	1	120	NA	314.08248451	0	0.45	4.88	1	304.352954549999	304.975516999999	"15"	20438.882162005	20431.359483471	1.5	0.1
0.01	1	0.0443023499974515	1	120	NA	314.08248451	0	0.45	4.88	1	305.204436700002	305.248739049999	"15"	20438.882162005	20431.359483471	1.5	0.1
0.01	1	0.0967870310014405	1	120	NA	314.08248451	0	0.45	4.88	1	305.47151662	305.568303651002	"15"	20438.882162005	20431.359483471	1.5	0.1
0.01	1	0.11456363400066	1	120	NA	314.08248451	0	0.45	4.88	1	305.805316451999	305.919880085999	"15"	20438.882162005	20431.359483471	1.5	0.1
0.01	1	0.0992326870000397	1	120	NA	314.08248451	0	0.45	4.88	1	306.156140571999	306.255373258999	"15"	20438.882162005	20431.359483471	1.5	0.1
0.01	1	0.125792952003394	1	120	NA	314.08248451	0	0.45	4.88	1	306.489857281998	306.615650234002	"15"	20438.882162005	20431.359483471	1.5	0.1
0.01	1	0.0957373419987562	1	120	NA	314.08248451	0	0.45	4.88	1	306.84056891	306.936306251999	"15"	20438.882162005	20431.359483471	1.5	0.1
0.01	1	0.0825811899994733	1	120	NA	314.08248451	0	0.45	4.88	1	307.174373025002	307.256954215001	"15"	20438.882162005	20431.359483471	1.5	0.1
0.01	1	0.0694119450017752	1	120	NA	314.08248451	0	0.45	4.88	1	307.491635123999	307.561047069001	"15"	20438.882162005	20431.359483471	1.5	0.1
0.01	1	0.0636357650000718	1	120	NA	314.08248451	0	0.45	4.88	1	307.792113405001	307.855749170001	"15"	20438.882162005	20431.359483471	1.5	0.1
0.01	1	0.043111808001413	1	120	NA	314.08248451	0	0.45	4.88	1	308.092633065	308.135744873001	"15"	20438.882162005	20431.359483471	1.5	0.1
0.01	1	0.0801530860007915	1	120	NA	314.08248451	0	0.45	4.88	1	308.359710831999	308.439863918	"15"	20438.882162005	20431.359483471	1.5	0.1
0.01	1	1.38684086100329	1	120	NA	314.08248451	0	0.45	4.88	1	308.676858539999	310.063699401002	"15"	20438.882162005	20431.359483471	1.5	0.1
0.01	1	0.0237193380016834	1	120	NA	314.08248451	0	0.45	4.88	1	310.296379975	310.320099313001	"15"	20438.882162005	20431.359483471	1.5	0.1
0.01	1	0.0460901010010275	1	120	NA	314.08248451	0	0.45	4.88	1	310.546817461	310.592907562001	"15"	20438.882162005	20431.359483471	1.5	0.1
0.01	1	0.0345528949983418	1	120	NA	314.08248451	0	0.45	4.88	1	310.830641395001	310.86519429	"15"	20438.882162005	20431.359483471	1.5	0.1
0.01	1	0.0859767950023524	1	120	NA	314.08248451	0	0.45	4.88	1	311.097609144999	311.183585940002	"15"	20438.882162005	20431.359483471	1.5	0.1
0.01	1	0.0962416229995142	1	120	NA	314.08248451	0	0.45	4.88	1	311.41492857	311.511170193	"15"	20438.882162005	20431.359483471	1.5	0.1
0.01	1	0.0668826539986185	1	120	NA	314.08248451	0	0.45	4.88	1	311.748741615	311.815624268998	"15"	20438.882162005	20431.359483471	1.5	0.1
0.01	1	0.438013255999977	1	120	NA	314.08248451	0	0.45	4.88	1	312.04929857	312.487311826	"15"	20438.882162005	20431.359483471	1.5	0.1
0.01	1	0.0833679709976423	1	120	NA	314.08248451	0	0.45	4.88	1	312.717083742002	312.800451712999	"15"	20438.882162005	20431.359483471	1.5	0.1
0.01	1	0.0379202430012811	1	120	NA	314.08248451	0	0.45	4.88	1	313.034274469999	313.072194713	"15"	20438.882162005	20431.359483471	1.5	0.1
0.01	1	0.0826072560012108	1	120	NA	314.08248451	0	0.45	4.88	1	313.301406627001	313.384013883002	"15"	20438.882162005	20431.359483471	1.5	0.1
0.01	1	0.101755761999812	1	120	NA	314.08248451	0	0.45	4.88	1	313.618606945001	313.720362707001	"15"	20438.882162005	20431.359483471	1.5	0.1
0.01	1	0.128469318002317	2	120	NA	314.08248451	0	0.45	4.88	1	313.952446302999	314.080915621002	"15"	20438.882162005	20431.359483471	1.5	0.1
0.01	1	0.365069901999959	1	109	NA	335.777698554	0	0.49	5.37	1	316.106085744999	316.471155646999	"16"	20438.882162005	20431.359483471	1.5	0.1
0.01	1	0.0134603730002709	1	109	NA	335.777698554	0	0.49	5.37	1	316.707137140002	316.720597513002	"16"	20438.882162005	20431.359483471	1.5	0.1
0.01	1	0.12257121699804	1	109	NA	335.777698554	0	0.49	5.37	1	316.957525450001	317.080096666999	"16"	20438.882162005	20431.359483471	1.5	0.1
0.01	1	0.0844972109989612	1	109	NA	335.777698554	0	0.49	5.37	1	317.308146790001	317.392644001	"16"	20438.882162005	20431.359483471	1.5	0.1
0.01	1	0.0875698149975506	1	109	NA	335.777698554	0	0.49	5.37	1	317.625354127002	317.712923941999	"16"	20438.882162005	20431.359483471	1.5	0.1
0.01	1	0.137287822999497	1	109	NA	335.777698554	0	0.49	5.37	1	317.942429720999	318.079717543998	"16"	20438.882162005	20431.359483471	1.5	0.1
0.01	1	0.03337317399928	1	109	NA	335.777698554	0	0.49	5.37	1	318.309795515001	318.343168689	"16"	20438.882162005	20431.359483471	1.5	0.1
0.01	1	0.0714407019986538	1	109	NA	335.777698554	0	0.49	5.37	1	318.576891082001	318.648331783999	"16"	20438.882162005	20431.359483471	1.5	0.1
0.01	1	0.0902106920002552	1	109	NA	335.777698554	0	0.49	5.37	1	318.877343479999	318.967554171999	"16"	20438.882162005	20431.359483471	1.5	0.1
0.01	1	0.141047883000283	1	109	NA	335.777698554	0	0.49	5.37	1	319.194534710001	319.335582593001	"16"	20438.882162005	20431.359483471	1.5	0.1
0.01	1	0.221956063996913	1	109	NA	335.777698554	0	0.49	5.37	1	319.561843890002	319.783799953999	"16"	20438.882162005	20431.359483471	1.5	0.1
0.01	1	0.0838716739999654	1	109	NA	335.777698554	0	0.49	5.37	1	320.012719621001	320.096591295001	"16"	20438.882162005	20431.359483471	1.5	0.1
0.01	1	0.0779109569994034	1	109	NA	335.777698554	0	0.49	5.37	1	320.329937605002	320.407848562001	"16"	20438.882162005	20431.359483471	1.5	0.1
0.01	1	0.097267399996781	1	109	NA	335.777698554	0	0.49	5.37	1	320.630413580002	320.727680979999	"16"	20438.882162005	20431.359483471	1.5	0.1
0.01	1	0.0839439039991703	1	109	NA	335.777698554	0	0.49	5.37	1	320.964366905002	321.048310809001	"16"	20438.882162005	20431.359483471	1.5	0.1
0.01	1	0.0697967650012288	1	109	NA	335.777698554	0	0.49	5.37	1	321.281496485	321.351293250002	"16"	20438.882162005	20431.359483471	1.5	0.1
0.01	1	0.074649488000432	1	109	NA	335.777698554	0	0.49	5.37	1	321.581974280001	321.656623768002	"16"	20438.882162005	20431.359483471	1.5	0.1
0.01	1	0.0780943200006732	1	109	NA	335.777698554	0	0.49	5.37	1	321.882509042	321.960603362	"16"	20438.882162005	20431.359483471	1.5	0.1
0.01	1	0.073799470999802	1	109	NA	335.777698554	0	0.49	5.37	1	322.182959090002	322.256758561001	"16"	20438.882162005	20431.359483471	1.5	0.1
0.01	1	0.0520104139977775	1	109	NA	335.777698554	0	0.49	5.37	1	322.483548592001	322.535559005999	"16"	20438.882162005	20431.359483471	1.5	0.1
0.01	1	0.361154964000889	1	109	NA	335.777698554	0	0.49	5.37	1	322.767281136999	323.128436101	"16"	20438.882162005	20431.359483471	1.5	0.1
0.01	1	0.0793219000006502	1	109	NA	335.777698554	0	0.49	5.37	1	323.368372699999	323.4476946	"16"	20438.882162005	20431.359483471	1.5	0.1
0.01	1	0.0742403739968722	1	109	NA	335.777698554	0	0.49	5.37	1	323.685456980002	323.759697353998	"16"	20438.882162005	20431.359483471	1.5	0.1
0.01	1	0.0851814460002061	1	109	NA	335.777698554	0	0.49	5.37	1	323.985984179999	324.071165625999	"16"	20438.882162005	20431.359483471	1.5	0.1
0.01	1	0.113968558998749	1	109	NA	335.777698554	0	0.49	5.37	1	324.303155072001	324.417123630999	"16"	20438.882162005	20431.359483471	1.5	0.1
0.01	1	0.114472322999063	1	109	NA	335.777698554	0	0.49	5.37	1	324.653784767001	324.76825709	"16"	20438.882162005	20431.359483471	1.5	0.1
0.01	1	0.10041863099832	1	109	NA	335.777698554	0	0.49	5.37	1	325.004359162001	325.104777793	"16"	20438.882162005	20431.359483471	1.5	0.1
0.01	1	0.133333737001522	1	109	NA	335.777698554	0	0.49	5.37	1	325.338334014999	325.471667752001	"16"	20438.882162005	20431.359483471	1.5	0.1
0.01	1	0.221594997998181	1	109	NA	335.777698554	0	0.49	5.37	1	325.705589575002	325.927184573	"16"	20438.882162005	20431.359483471	1.5	0.1
0.01	1	0.355854567002098	1	109	NA	335.777698554	0	0.49	5.37	1	326.156247154999	326.512101722001	"16"	20438.882162005	20431.359483471	1.5	0.1
0.01	1	0.523284106999199	1	109	NA	335.777698554	0	0.49	5.37	1	326.740667829999	327.263951936999	"16"	20438.882162005	20431.359483471	1.5	0.1
0.01	1	0.116888058000768	1	109	NA	335.777698554	0	0.49	5.37	1	327.491903760001	327.608791818002	"16"	20438.882162005	20431.359483471	1.5	0.1
