"payoff.level"	"balloon"	"rt"	"resp"	"explode.trial"	"explode.time"	"finish.time"	"exploded"	"trial.total"	"cumulative.total"	"finished"	"trial.start"	"trial.end"	"trial.num"	"secs"	"start.time"	"iti"	"isi"
0.01	1	1.71556151200002	1	64	40.088780242	NA	1	0	0	1	0.017346195000016	1.73290770700004	"1"	955.990345557	862.030567131	1.5	0.1
0.01	1	0.405379146999962	1	64	40.088780242	NA	1	0	0	1	2.10413315200003	2.50951229899999	"1"	955.990345557	862.030567131	1.5	0.1
0.01	1	0.492188650000003	1	64	40.088780242	NA	1	0	0	1	2.73864204500001	3.23083069500001	"1"	955.990345557	862.030567131	1.5	0.1
0.01	1	0.413448323000011	1	64	40.088780242	NA	1	0	0	1	3.456520807	3.86996913000002	"1"	955.990345557	862.030567131	1.5	0.1
0.01	1	0.426228949000006	1	64	40.088780242	NA	1	0	0	1	4.107613378	4.533842327	"1"	955.990345557	862.030567131	1.5	0.1
0.01	1	0.36690098400004	1	64	40.088780242	NA	1	0	0	1	4.758623032	5.12552401600004	"1"	955.990345557	862.030567131	1.5	0.1
0.01	1	0.350689195000029	1	64	40.088780242	NA	1	0	0	1	5.359650085	5.71033928000003	"1"	955.990345557	862.030567131	1.5	0.1
0.01	1	0.325609843999985	1	64	40.088780242	NA	1	0	0	1	5.94403476500003	6.26964460900001	"1"	955.990345557	862.030567131	1.5	0.1
0.01	1	0.310695499999952	1	64	40.088780242	NA	1	0	0	1	6.49487422500005	6.805569725	"1"	955.990345557	862.030567131	1.5	0.1
0.01	1	0.304572473000007	1	64	40.088780242	NA	1	0	0	1	7.02909707000003	7.33366954300004	"1"	955.990345557	862.030567131	1.5	0.1
0.01	1	0.353920308999989	1	64	40.088780242	NA	1	0	0	1	7.56334121500004	7.91726152400003	"1"	955.990345557	862.030567131	1.5	0.1
0.01	1	0.281764431999989	1	64	40.088780242	NA	1	0	0	1	8.14768019800005	8.42944463000003	"1"	955.990345557	862.030567131	1.5	0.1
0.01	1	0.261034289000008	1	64	40.088780242	NA	1	0	0	1	8.66528746	8.92632174900001	"1"	955.990345557	862.030567131	1.5	0.1
0.01	1	0.305016002000002	1	64	40.088780242	NA	1	0	0	1	9.14942902199999	9.45444502399999	"1"	955.990345557	862.030567131	1.5	0.1
0.01	1	0.313686383000004	1	64	40.088780242	NA	1	0	0	1	9.68361388700004	9.99730027000004	"1"	955.990345557	862.030567131	1.5	0.1
0.01	1	0.316313242000035	1	64	40.088780242	NA	1	0	0	1	10.23447144	10.550784682	"1"	955.990345557	862.030567131	1.5	0.1
0.01	1	0.365329459999998	1	64	40.088780242	NA	1	0	0	1	10.785483601	11.150813061	"1"	955.990345557	862.030567131	1.5	0.1
0.01	1	0.275617088000047	1	64	40.088780242	NA	1	0	0	1	11.386478415	11.662095503	"1"	955.990345557	862.030567131	1.5	0.1
0.01	1	0.246608439999989	1	64	40.088780242	NA	1	0	0	1	11.887322512	12.133930952	"1"	955.990345557	862.030567131	1.5	0.1
0.01	1	0.275195253000049	1	64	40.088780242	NA	1	0	0	1	12.371479492	12.646674745	"1"	955.990345557	862.030567131	1.5	0.1
0.01	1	0.342051674999993	1	64	40.088780242	NA	1	0	0	1	12.872222815	13.21427449	"1"	955.990345557	862.030567131	1.5	0.1
0.01	1	0.334772263000048	1	64	40.088780242	NA	1	0	0	1	13.440013137	13.7747854	"1"	955.990345557	862.030567131	1.5	0.1
0.01	1	0.246539394999957	1	64	40.088780242	NA	1	0	0	1	14.007569334	14.254108729	"1"	955.990345557	862.030567131	1.5	0.1
0.01	1	0.241742901000009	1	64	40.088780242	NA	1	0	0	1	14.491677024	14.733419925	"1"	955.990345557	862.030567131	1.5	0.1
0.01	1	0.277929683000025	1	64	40.088780242	NA	1	0	0	1	14.95919405	15.237123733	"1"	955.990345557	862.030567131	1.5	0.1
0.01	1	0.265421412000023	1	64	40.088780242	NA	1	0	0	1	15.476770295	15.742191707	"1"	955.990345557	862.030567131	1.5	0.1
0.01	1	0.267806077000046	1	64	40.088780242	NA	1	0	0	1	15.97747152	16.245277597	"1"	955.990345557	862.030567131	1.5	0.1
0.01	1	0.254883758000005	1	64	40.088780242	NA	1	0	0	1	16.478357995	16.733241753	"1"	955.990345557	862.030567131	1.5	0.1
0.01	1	0.842419905000042	1	64	40.088780242	NA	1	0	0	1	16.96245209	17.804871995	"1"	955.990345557	862.030567131	1.5	0.1
0.01	1	0.350850651999963	1	64	40.088780242	NA	1	0	0	1	18.030997278	18.38184793	"1"	955.990345557	862.030567131	1.5	0.1
0.01	1	0.301599418000023	1	64	40.088780242	NA	1	0	0	1	18.615277875	18.916877293	"1"	955.990345557	862.030567131	1.5	0.1
0.01	1	0.303733894000004	1	64	40.088780242	NA	1	0	0	1	19.149579412	19.453313306	"1"	955.990345557	862.030567131	1.5	0.1
0.01	1	0.257776999999976	1	64	40.088780242	NA	1	0	0	1	19.683727437	19.941504437	"1"	955.990345557	862.030567131	1.5	0.1
0.01	1	0.396851567000056	1	64	40.088780242	NA	1	0	0	1	20.168021937	20.564873504	"1"	955.990345557	862.030567131	1.5	0.1
0.01	1	0.347482599000045	1	64	40.088780242	NA	1	0	0	1	20.802396977	21.149879576	"1"	955.990345557	862.030567131	1.5	0.1
0.01	1	0.331411712999966	1	64	40.088780242	NA	1	0	0	1	21.38679589	21.718207603	"1"	955.990345557	862.030567131	1.5	0.1
0.01	1	0.324588191999965	1	64	40.088780242	NA	1	0	0	1	21.954231452	22.278819644	"1"	955.990345557	862.030567131	1.5	0.1
0.01	1	0.259937064999974	1	64	40.088780242	NA	1	0	0	1	22.505108332	22.765045397	"1"	955.990345557	862.030567131	1.5	0.1
0.01	1	0.207678189999967	1	64	40.088780242	NA	1	0	0	1	22.989227962	23.196906152	"1"	955.990345557	862.030567131	1.5	0.1
0.01	1	0.269482256999993	1	64	40.088780242	NA	1	0	0	1	23.42345858	23.692940837	"1"	955.990345557	862.030567131	1.5	0.1
0.01	1	0.14607528099998	1	64	40.088780242	NA	1	0	0	1	23.924231462	24.070306743	"1"	955.990345557	862.030567131	1.5	0.1
0.01	1	0.258187221000014	1	64	40.088780242	NA	1	0	0	1	24.29148556	24.549672781	"1"	955.990345557	862.030567131	1.5	0.1
0.01	1	0.222743433999995	1	64	40.088780242	NA	1	0	0	1	24.775588595	24.998332029	"1"	955.990345557	862.030567131	1.5	0.1
0.01	1	0.146640312000045	1	64	40.088780242	NA	1	0	0	1	25.22654602	25.373186332	"1"	955.990345557	862.030567131	1.5	0.1
0.01	1	0.19638242100001	1	64	40.088780242	NA	1	0	0	1	25.61041585	25.806798271	"1"	955.990345557	862.030567131	1.5	0.1
0.01	1	0.217664970999977	1	64	40.088780242	NA	1	0	0	1	26.044479192	26.262144163	"1"	955.990345557	862.030567131	1.5	0.1
0.01	1	0.262186012000029	1	64	40.088780242	NA	1	0	0	1	26.49524062	26.757426632	"1"	955.990345557	862.030567131	1.5	0.1
0.01	1	0.258251392999966	1	64	40.088780242	NA	1	0	0	1	26.979397765	27.237649158	"1"	955.990345557	862.030567131	1.5	0.1
0.01	1	0.229640596000024	1	64	40.088780242	NA	1	0	0	1	27.463496845	27.693137441	"1"	955.990345557	862.030567131	1.5	0.1
0.01	1	0.274882403999982	1	64	40.088780242	NA	1	0	0	1	27.930970988	28.205853392	"1"	955.990345557	862.030567131	1.5	0.1
0.01	1	2.64632734000003	1	64	40.088780242	NA	1	0	0	1	28.43187882	31.07820616	"1"	955.990345557	862.030567131	1.5	0.1
0.01	1	0.589528411999993	1	64	40.088780242	NA	1	0	0	1	31.303423922	31.892952334	"1"	955.990345557	862.030567131	1.5	0.1
0.01	1	0.291752862999999	1	64	40.088780242	NA	1	0	0	1	32.12156571	32.413318573	"1"	955.990345557	862.030567131	1.5	0.1
0.01	1	0.590529971000024	1	64	40.088780242	NA	1	0	0	1	32.638844731	33.229374702	"1"	955.990345557	862.030567131	1.5	0.1
0.01	1	0.397025370999984	1	64	40.088780242	NA	1	0	0	1	33.456965745	33.853991116	"1"	955.990345557	862.030567131	1.5	0.1
0.01	1	0.346291520000023	1	64	40.088780242	NA	1	0	0	1	34.091274737	34.437566257	"1"	955.990345557	862.030567131	1.5	0.1
0.01	1	0.433516031000011	1	64	40.088780242	NA	1	0	0	1	34.675714465	35.109230496	"1"	955.990345557	862.030567131	1.5	0.1
0.01	1	0.325724476000005	1	64	40.088780242	NA	1	0	0	1	35.343469255	35.669193731	"1"	955.990345557	862.030567131	1.5	0.1
0.01	1	0.360088793999978	1	64	40.088780242	NA	1	0	0	1	35.89440079	36.254489584	"1"	955.990345557	862.030567131	1.5	0.1
0.01	1	1.047233296	1	64	40.088780242	NA	1	0	0	1	36.478825245	37.526058541	"1"	955.990345557	862.030567131	1.5	0.1
0.01	1	0.305203404999986	1	64	40.088780242	NA	1	0	0	1	37.76410531	38.069308715	"1"	955.990345557	862.030567131	1.5	0.1
0.01	1	0.571059705000039	1	64	40.088780242	NA	1	0	0	1	38.29842457	38.869484275	"1"	955.990345557	862.030567131	1.5	0.1
0.01	1	0.321669509000003	1	64	40.088780242	NA	1	0	0	1	39.099665935	39.421335444	"1"	955.990345557	862.030567131	1.5	0.1
0.01	1	0.322959080999965	1	64	40.088780242	NA	1	0	0	1	39.65071512	39.973674201	"1"	955.990345557	862.030567131	1.5	0.1
0.01	1	0.442719487999966	1	102	NA	58.41483358	0	0.65	0.65	1	42.13821993	42.580939418	"2"	955.990345557	862.030567131	1.5	0.1
0.01	1	0.00382469300001276	1	102	NA	58.41483358	0	0.65	0.65	1	42.80598186	42.809806553	"2"	955.990345557	862.030567131	1.5	0.1
0.01	1	0.0039562780000324	1	102	NA	58.41483358	0	0.65	0.65	1	43.039844485	43.043800763	"2"	955.990345557	862.030567131	1.5	0.1
0.01	1	0.00374695400000746	1	102	NA	58.41483358	0	0.65	0.65	1	43.273528735	43.277275689	"2"	955.990345557	862.030567131	1.5	0.1
0.01	1	0.00317068399999698	1	102	NA	58.41483358	0	0.65	0.65	1	43.507153471	43.510324155	"2"	955.990345557	862.030567131	1.5	0.1
0.01	1	0.00204624999997804	1	102	NA	58.41483358	0	0.65	0.65	1	43.740902813	43.742949063	"2"	955.990345557	862.030567131	1.5	0.1
0.01	1	0.00374980099996947	1	102	NA	58.41483358	0	0.65	0.65	1	43.97461767	43.978367471	"2"	955.990345557	862.030567131	1.5	0.1
0.01	1	0.00367070800001557	1	102	NA	58.41483358	0	0.65	0.65	1	44.208380077	44.212050785	"2"	955.990345557	862.030567131	1.5	0.1
0.01	1	0.00346992299995463	1	102	NA	58.41483358	0	0.65	0.65	1	44.442067352	44.445537275	"2"	955.990345557	862.030567131	1.5	0.1
0.01	1	0.00359579600001325	1	102	NA	58.41483358	0	0.65	0.65	1	44.675762205	44.679358001	"2"	955.990345557	862.030567131	1.5	0.1
0.01	1	0.0037070559999961	1	102	NA	58.41483358	0	0.65	0.65	1	44.909509305	44.913216361	"2"	955.990345557	862.030567131	1.5	0.1
0.01	1	0.20607962400004	1	102	NA	58.41483358	0	0.65	0.65	1	45.143386012	45.349465636	"2"	955.990345557	862.030567131	1.5	0.1
0.01	1	0.0038658670000018	1	102	NA	58.41483358	0	0.65	0.65	1	45.57736175	45.581227617	"2"	955.990345557	862.030567131	1.5	0.1
0.01	1	0.00324237000000949	1	102	NA	58.41483358	0	0.65	0.65	1	45.811087823	45.814330193	"2"	955.990345557	862.030567131	1.5	0.1
0.01	1	0.00453994500003319	1	102	NA	58.41483358	0	0.65	0.65	1	46.044879015	46.04941896	"2"	955.990345557	862.030567131	1.5	0.1
0.01	1	0.00452214200004164	1	102	NA	58.41483358	0	0.65	0.65	1	46.27860424	46.283126382	"2"	955.990345557	862.030567131	1.5	0.1
0.01	1	0.0038760699999898	1	102	NA	58.41483358	0	0.65	0.65	1	46.512158155	46.516034225	"2"	955.990345557	862.030567131	1.5	0.1
0.01	1	0.00374632599999813	1	102	NA	58.41483358	0	0.65	0.65	1	46.746029757	46.749776083	"2"	955.990345557	862.030567131	1.5	0.1
0.01	1	0.00394475799998872	1	102	NA	58.41483358	0	0.65	0.65	1	46.979632545	46.983577303	"2"	955.990345557	862.030567131	1.5	0.1
0.01	1	0.00348211200002879	1	102	NA	58.41483358	0	0.65	0.65	1	47.213414285	47.216896397	"2"	955.990345557	862.030567131	1.5	0.1
0.01	1	0.00380215299998099	1	102	NA	58.41483358	0	0.65	0.65	1	47.44700849	47.450810643	"2"	955.990345557	862.030567131	1.5	0.1
0.01	1	0.00377260300001581	1	102	NA	58.41483358	0	0.65	0.65	1	47.68085709	47.684629693	"2"	955.990345557	862.030567131	1.5	0.1
0.01	1	0.00386250499997232	1	102	NA	58.41483358	0	0.65	0.65	1	47.91456219	47.918424695	"2"	955.990345557	862.030567131	1.5	0.1
0.01	1	0.0045028499999944	1	102	NA	58.41483358	0	0.65	0.65	1	48.14839008	48.15289293	"2"	955.990345557	862.030567131	1.5	0.1
0.01	1	0.00339033299997027	1	102	NA	58.41483358	0	0.65	0.65	1	48.382030362	48.385420695	"2"	955.990345557	862.030567131	1.5	0.1
0.01	1	0.00422190500000852	1	102	NA	58.41483358	0	0.65	0.65	1	48.615799977	48.620021882	"2"	955.990345557	862.030567131	1.5	0.1
0.01	1	0.00371242899996105	1	102	NA	58.41483358	0	0.65	0.65	1	48.8494699	48.853182329	"2"	955.990345557	862.030567131	1.5	0.1
0.01	1	0.00391816699999481	1	102	NA	58.41483358	0	0.65	0.65	1	49.083274842	49.087193009	"2"	955.990345557	862.030567131	1.5	0.1
0.01	1	0.00364714500000218	1	102	NA	58.41483358	0	0.65	0.65	1	49.316913522	49.320560667	"2"	955.990345557	862.030567131	1.5	0.1
0.01	1	0.00397949900002459	1	102	NA	58.41483358	0	0.65	0.65	1	49.550668722	49.554648221	"2"	955.990345557	862.030567131	1.5	0.1
0.01	1	0.00377605599999242	1	102	NA	58.41483358	0	0.65	0.65	1	49.784457797	49.788233853	"2"	955.990345557	862.030567131	1.5	0.1
0.01	1	0.00395141299998159	1	102	NA	58.41483358	0	0.65	0.65	1	50.01821176	50.022163173	"2"	955.990345557	862.030567131	1.5	0.1
0.01	1	0.00330192600000601	1	102	NA	58.41483358	0	0.65	0.65	1	50.251912615	50.255214541	"2"	955.990345557	862.030567131	1.5	0.1
0.01	1	0.00362897100001192	1	102	NA	58.41483358	0	0.65	0.65	1	50.48553962	50.489168591	"2"	955.990345557	862.030567131	1.5	0.1
0.01	1	0.00371216300004562	1	102	NA	58.41483358	0	0.65	0.65	1	50.719296472	50.723008635	"2"	955.990345557	862.030567131	1.5	0.1
0.01	1	0.00383576100000482	1	102	NA	58.41483358	0	0.65	0.65	1	50.953096162	50.956931923	"2"	955.990345557	862.030567131	1.5	0.1
0.01	1	0.00394481000000724	1	102	NA	58.41483358	0	0.65	0.65	1	51.186825837	51.190770647	"2"	955.990345557	862.030567131	1.5	0.1
0.01	1	0.00447311499999614	1	102	NA	58.41483358	0	0.65	0.65	1	51.4206623	51.425135415	"2"	955.990345557	862.030567131	1.5	0.1
0.01	1	0.00392679699996279	1	102	NA	58.41483358	0	0.65	0.65	1	51.654264432	51.658191229	"2"	955.990345557	862.030567131	1.5	0.1
0.01	1	0.0042825310000012	1	102	NA	58.41483358	0	0.65	0.65	1	51.887902501	51.892185032	"2"	955.990345557	862.030567131	1.5	0.1
0.01	1	0.0037984190000202	1	102	NA	58.41483358	0	0.65	0.65	1	52.12168715	52.125485569	"2"	955.990345557	862.030567131	1.5	0.1
0.01	1	0.00391793299996834	1	102	NA	58.41483358	0	0.65	0.65	1	52.355373442	52.359291375	"2"	955.990345557	862.030567131	1.5	0.1
0.01	1	0.00383985499996697	1	102	NA	58.41483358	0	0.65	0.65	1	52.589045642	52.592885497	"2"	955.990345557	862.030567131	1.5	0.1
0.01	1	0.00396467899997788	1	102	NA	58.41483358	0	0.65	0.65	1	52.82272669	52.826691369	"2"	955.990345557	862.030567131	1.5	0.1
0.01	1	0.0038027929999771	1	102	NA	58.41483358	0	0.65	0.65	1	53.056521402	53.060324195	"2"	955.990345557	862.030567131	1.5	0.1
0.01	1	0.00455783199998905	1	102	NA	58.41483358	0	0.65	0.65	1	53.29031721	53.294875042	"2"	955.990345557	862.030567131	1.5	0.1
0.01	1	0.00447068699997999	1	102	NA	58.41483358	0	0.65	0.65	1	53.524042455	53.528513142	"2"	955.990345557	862.030567131	1.5	0.1
0.01	1	0.00335845299997573	1	102	NA	58.41483358	0	0.65	0.65	1	53.757890262	53.761248715	"2"	955.990345557	862.030567131	1.5	0.1
0.01	1	0.0039582950000181	1	102	NA	58.41483358	0	0.65	0.65	1	53.99151158	53.995469875	"2"	955.990345557	862.030567131	1.5	0.1
0.01	1	0.00396730800002842	1	102	NA	58.41483358	0	0.65	0.65	1	54.225262257	54.229229565	"2"	955.990345557	862.030567131	1.5	0.1
0.01	1	0.00385346399997388	1	102	NA	58.41483358	0	0.65	0.65	1	54.458887647	54.462741111	"2"	955.990345557	862.030567131	1.5	0.1
0.01	1	0.00460457999997743	1	102	NA	58.41483358	0	0.65	0.65	1	54.69284437	54.69744895	"2"	955.990345557	862.030567131	1.5	0.1
0.01	1	0.00341569800002617	1	102	NA	58.41483358	0	0.65	0.65	1	54.926382025	54.929797723	"2"	955.990345557	862.030567131	1.5	0.1
0.01	1	0.00380082200001652	1	102	NA	58.41483358	0	0.65	0.65	1	55.160215575	55.164016397	"2"	955.990345557	862.030567131	1.5	0.1
0.01	1	0.00428507800000943	1	102	NA	58.41483358	0	0.65	0.65	1	55.393937174	55.398222252	"2"	955.990345557	862.030567131	1.5	0.1
0.01	1	0.00348459499997489	1	102	NA	58.41483358	0	0.65	0.65	1	55.62758203	55.631066625	"2"	955.990345557	862.030567131	1.5	0.1
0.01	1	0.00457479499999636	1	102	NA	58.41483358	0	0.65	0.65	1	55.86125529	55.865830085	"2"	955.990345557	862.030567131	1.5	0.1
0.01	1	0.00374025100001063	1	102	NA	58.41483358	0	0.65	0.65	1	56.09508762	56.098827871	"2"	955.990345557	862.030567131	1.5	0.1
0.01	1	0.00392378599997301	1	102	NA	58.41483358	0	0.65	0.65	1	56.328785335	56.332709121	"2"	955.990345557	862.030567131	1.5	0.1
0.01	1	0.00381804299996702	1	102	NA	58.41483358	0	0.65	0.65	1	56.562443552	56.566261595	"2"	955.990345557	862.030567131	1.5	0.1
0.01	1	0.0045937170000343	1	102	NA	58.41483358	0	0.65	0.65	1	56.796336945	56.800930662	"2"	955.990345557	862.030567131	1.5	0.1
0.01	1	0.00378326899999593	1	102	NA	58.41483358	0	0.65	0.65	1	57.029947482	57.033730751	"2"	955.990345557	862.030567131	1.5	0.1
0.01	1	0.00380367299999307	1	102	NA	58.41483358	0	0.65	0.65	1	57.263653042	57.267456715	"2"	955.990345557	862.030567131	1.5	0.1
0.01	1	0.00376295500001333	1	102	NA	58.41483358	0	0.65	0.65	1	57.497387252	57.501150207	"2"	955.990345557	862.030567131	1.5	0.1
0.01	1	0.00465733200002205	1	102	NA	58.41483358	0	0.65	0.65	1	57.73125969	57.735917022	"2"	955.990345557	862.030567131	1.5	0.1
0.01	1	0.448382872000025	2	102	NA	58.41483358	0	0.65	0.65	1	57.964790935	58.413173807	"2"	955.990345557	862.030567131	1.5	0.1
0.01	1	0.312491861000012	1	97	NA	70.687214548	0	0.42	1.07	1	60.4690542	60.781546061	"3"	955.990345557	862.030567131	1.5	0.1
0.01	1	0.00350135399997953	1	97	NA	70.687214548	0	0.42	1.07	1	61.020013035	61.023514389	"3"	955.990345557	862.030567131	1.5	0.1
0.01	1	0.00457174999996823	1	97	NA	70.687214548	0	0.42	1.07	1	61.25373139	61.25830314	"3"	955.990345557	862.030567131	1.5	0.1
0.01	1	0.00454456700003902	1	97	NA	70.687214548	0	0.42	1.07	1	61.487462655	61.492007222	"3"	955.990345557	862.030567131	1.5	0.1
0.01	1	0.00457110700000385	1	97	NA	70.687214548	0	0.42	1.07	1	61.72134603	61.725917137	"3"	955.990345557	862.030567131	1.5	0.1
0.01	1	0.00332062600000427	1	97	NA	70.687214548	0	0.42	1.07	1	61.954981505	61.958302131	"3"	955.990345557	862.030567131	1.5	0.1
0.01	1	0.00377861900000198	1	97	NA	70.687214548	0	0.42	1.07	1	62.188671932	62.192450551	"3"	955.990345557	862.030567131	1.5	0.1
0.01	1	0.00441591699996025	1	97	NA	70.687214548	0	0.42	1.07	1	62.422418705	62.426834622	"3"	955.990345557	862.030567131	1.5	0.1
0.01	1	0.00356238199998415	1	97	NA	70.687214548	0	0.42	1.07	1	62.656017737	62.659580119	"3"	955.990345557	862.030567131	1.5	0.1
0.01	1	0.00350342100000489	1	97	NA	70.687214548	0	0.42	1.07	1	62.88976819	62.893271611	"3"	955.990345557	862.030567131	1.5	0.1
0.01	1	0.00395870500000228	1	97	NA	70.687214548	0	0.42	1.07	1	63.12354221	63.127500915	"3"	955.990345557	862.030567131	1.5	0.1
0.01	1	0.00424482700003637	1	97	NA	70.687214548	0	0.42	1.07	1	63.357338793	63.36158362	"3"	955.990345557	862.030567131	1.5	0.1
0.01	1	0.00384241000000429	1	97	NA	70.687214548	0	0.42	1.07	1	63.590960975	63.594803385	"3"	955.990345557	862.030567131	1.5	0.1
0.01	1	0.00343041299998958	1	97	NA	70.687214548	0	0.42	1.07	1	63.82471749	63.828147903	"3"	955.990345557	862.030567131	1.5	0.1
0.01	1	0.00371052799999916	1	97	NA	70.687214548	0	0.42	1.07	1	64.058412385	64.062122913	"3"	955.990345557	862.030567131	1.5	0.1
0.01	1	0.00392943800000012	1	97	NA	70.687214548	0	0.42	1.07	1	64.292130637	64.296060075	"3"	955.990345557	862.030567131	1.5	0.1
0.01	1	0.00436633600003233	1	97	NA	70.687214548	0	0.42	1.07	1	64.525937194	64.53030353	"3"	955.990345557	862.030567131	1.5	0.1
0.01	1	0.00460014200001524	1	97	NA	70.687214548	0	0.42	1.07	1	64.75966826	64.764268402	"3"	955.990345557	862.030567131	1.5	0.1
0.01	1	0.00361848500000406	1	97	NA	70.687214548	0	0.42	1.07	1	64.99331878	64.996937265	"3"	955.990345557	862.030567131	1.5	0.1
0.01	1	0.00398097999999436	1	97	NA	70.687214548	0	0.42	1.07	1	65.227048155	65.231029135	"3"	955.990345557	862.030567131	1.5	0.1
0.01	1	0.00378496299998687	1	97	NA	70.687214548	0	0.42	1.07	1	65.460794512	65.464579475	"3"	955.990345557	862.030567131	1.5	0.1
0.01	1	0.00396269399999483	1	97	NA	70.687214548	0	0.42	1.07	1	65.694430337	65.698393031	"3"	955.990345557	862.030567131	1.5	0.1
0.01	1	0.00341711400000122	1	97	NA	70.687214548	0	0.42	1.07	1	65.928317317	65.931734431	"3"	955.990345557	862.030567131	1.5	0.1
0.01	1	0.00345087100004093	1	97	NA	70.687214548	0	0.42	1.07	1	66.16196535	66.165416221	"3"	955.990345557	862.030567131	1.5	0.1
0.01	1	0.00388426099999606	1	97	NA	70.687214548	0	0.42	1.07	1	66.3956815	66.399565761	"3"	955.990345557	862.030567131	1.5	0.1
0.01	1	0.00380220300002065	1	97	NA	70.687214548	0	0.42	1.07	1	66.629377772	66.633179975	"3"	955.990345557	862.030567131	1.5	0.1
0.01	1	0.00393139200002679	1	97	NA	70.687214548	0	0.42	1.07	1	66.863121117	66.867052509	"3"	955.990345557	862.030567131	1.5	0.1
0.01	1	0.00358970900003897	1	97	NA	70.687214548	0	0.42	1.07	1	67.096863762	67.100453471	"3"	955.990345557	862.030567131	1.5	0.1
0.01	1	0.00394626899998229	1	97	NA	70.687214548	0	0.42	1.07	1	67.330724332	67.334670601	"3"	955.990345557	862.030567131	1.5	0.1
0.01	1	0.00380278000000089	1	97	NA	70.687214548	0	0.42	1.07	1	67.564322497	67.568125277	"3"	955.990345557	862.030567131	1.5	0.1
0.01	1	0.00375448200003348	1	97	NA	70.687214548	0	0.42	1.07	1	67.798024155	67.801778637	"3"	955.990345557	862.030567131	1.5	0.1
0.01	1	0.00328770800001621	1	97	NA	70.687214548	0	0.42	1.07	1	68.031807969	68.035095677	"3"	955.990345557	862.030567131	1.5	0.1
0.01	1	0.00355120900002248	1	97	NA	70.687214548	0	0.42	1.07	1	68.265470832	68.269022041	"3"	955.990345557	862.030567131	1.5	0.1
0.01	1	0.0038637469999685	1	97	NA	70.687214548	0	0.42	1.07	1	68.49928042	68.503144167	"3"	955.990345557	862.030567131	1.5	0.1
0.01	1	0.00372464499997704	1	97	NA	70.687214548	0	0.42	1.07	1	68.73299966	68.736724305	"3"	955.990345557	862.030567131	1.5	0.1
0.01	1	0.00363794500003678	1	97	NA	70.687214548	0	0.42	1.07	1	68.966699	68.970336945	"3"	955.990345557	862.030567131	1.5	0.1
0.01	1	0.0034186770000133	1	97	NA	70.687214548	0	0.42	1.07	1	69.200342742	69.203761419	"3"	955.990345557	862.030567131	1.5	0.1
0.01	1	0.00371534300001031	1	97	NA	70.687214548	0	0.42	1.07	1	69.434191912	69.437907255	"3"	955.990345557	862.030567131	1.5	0.1
0.01	1	0.00460714500002268	1	97	NA	70.687214548	0	0.42	1.07	1	69.66781963	69.672426775	"3"	955.990345557	862.030567131	1.5	0.1
0.01	1	0.003845149999961	1	97	NA	70.687214548	0	0.42	1.07	1	69.901539755	69.905384905	"3"	955.990345557	862.030567131	1.5	0.1
0.01	1	0.00379955900001505	1	97	NA	70.687214548	0	0.42	1.07	1	70.135249252	70.139048811	"3"	955.990345557	862.030567131	1.5	0.1
0.01	1	0.00369873199997528	1	97	NA	70.687214548	0	0.42	1.07	1	70.369013135	70.372711867	"3"	955.990345557	862.030567131	1.5	0.1
0.01	1	0.0828140859999849	2	97	NA	70.687214548	0	0.42	1.07	1	70.60275957	70.685573656	"3"	955.990345557	862.030567131	1.5	0.1
0.01	1	0.474677455000005	1	51	84.996644317	NA	1	0	1.07	1	72.72295264	73.197630095	"4"	955.990345557	862.030567131	1.5	0.1
0.01	1	0.00386049099995489	1	51	84.996644317	NA	1	0	1.07	1	73.424257142	73.428117633	"4"	955.990345557	862.030567131	1.5	0.1
0.01	1	0.00437719300003891	1	51	84.996644317	NA	1	0	1.07	1	73.657906357	73.66228355	"4"	955.990345557	862.030567131	1.5	0.1
0.01	1	0.00328058400003783	1	51	84.996644317	NA	1	0	1.07	1	73.891717991	73.894998575	"4"	955.990345557	862.030567131	1.5	0.1
0.01	1	0.0038115629999993	1	51	84.996644317	NA	1	0	1.07	1	74.125378592	74.129190155	"4"	955.990345557	862.030567131	1.5	0.1
0.01	1	0.00463870499999075	1	51	84.996644317	NA	1	0	1.07	1	74.35923343	74.363872135	"4"	955.990345557	862.030567131	1.5	0.1
0.01	1	0.00470923699998593	1	51	84.996644317	NA	1	0	1.07	1	74.59282847	74.597537707	"4"	955.990345557	862.030567131	1.5	0.1
0.01	1	0.00396548099996608	1	51	84.996644317	NA	1	0	1.07	1	74.826541342	74.830506823	"4"	955.990345557	862.030567131	1.5	0.1
0.01	1	0.00332732300000771	1	51	84.996644317	NA	1	0	1.07	1	75.06025374	75.063581063	"4"	955.990345557	862.030567131	1.5	0.1
0.01	1	0.00366496899999902	1	51	84.996644317	NA	1	0	1.07	1	75.294015002	75.297679971	"4"	955.990345557	862.030567131	1.5	0.1
0.01	1	0.00457259500001328	1	51	84.996644317	NA	1	0	1.07	1	75.52779233	75.532364925	"4"	955.990345557	862.030567131	1.5	0.1
0.01	1	0.00430144799997834	1	51	84.996644317	NA	1	0	1.07	1	75.761537574	75.765839022	"4"	955.990345557	862.030567131	1.5	0.1
0.01	1	0.00328663800002005	1	51	84.996644317	NA	1	0	1.07	1	75.995265263	75.998551901	"4"	955.990345557	862.030567131	1.5	0.1
0.01	1	0.0038038970000116	1	51	84.996644317	NA	1	0	1.07	1	76.228912812	76.232716709	"4"	955.990345557	862.030567131	1.5	0.1
0.01	1	0.00383941199999072	1	51	84.996644317	NA	1	0	1.07	1	76.462625015	76.466464427	"4"	955.990345557	862.030567131	1.5	0.1
0.01	1	0.0038762500000189	1	51	84.996644317	NA	1	0	1.07	1	76.696336115	76.700212365	"4"	955.990345557	862.030567131	1.5	0.1
0.01	1	0.00381619099999853	1	51	84.996644317	NA	1	0	1.07	1	76.930072892	76.933889083	"4"	955.990345557	862.030567131	1.5	0.1
0.01	1	0.00380191600004309	1	51	84.996644317	NA	1	0	1.07	1	77.163869965	77.167671881	"4"	955.990345557	862.030567131	1.5	0.1
0.01	1	0.00355561599997145	1	51	84.996644317	NA	1	0	1.07	1	77.397623577	77.401179193	"4"	955.990345557	862.030567131	1.5	0.1
0.01	1	0.00364850099998648	1	51	84.996644317	NA	1	0	1.07	1	77.63127009	77.634918591	"4"	955.990345557	862.030567131	1.5	0.1
0.01	1	0.00401130399995964	1	51	84.996644317	NA	1	0	1.07	1	77.864998095	77.869009399	"4"	955.990345557	862.030567131	1.5	0.1
0.01	1	0.00428878399998212	1	51	84.996644317	NA	1	0	1.07	1	78.098648231	78.102937015	"4"	955.990345557	862.030567131	1.5	0.1
0.01	1	0.00389409299998533	1	51	84.996644317	NA	1	0	1.07	1	78.332392542	78.336286635	"4"	955.990345557	862.030567131	1.5	0.1
0.01	1	0.00396803999996109	1	51	84.996644317	NA	1	0	1.07	1	78.566113935	78.570081975	"4"	955.990345557	862.030567131	1.5	0.1
0.01	1	0.00368236899998919	1	51	84.996644317	NA	1	0	1.07	1	78.79998335	78.803665719	"4"	955.990345557	862.030567131	1.5	0.1
0.01	1	0.00457223999995904	1	51	84.996644317	NA	1	0	1.07	1	79.03364006	79.0382123	"4"	955.990345557	862.030567131	1.5	0.1
0.01	1	0.00380155300001661	1	51	84.996644317	NA	1	0	1.07	1	79.267367062	79.271168615	"4"	955.990345557	862.030567131	1.5	0.1
0.01	1	0.00376293900001201	1	51	84.996644317	NA	1	0	1.07	1	79.501131352	79.504894291	"4"	955.990345557	862.030567131	1.5	0.1
0.01	1	0.00385207699997636	1	51	84.996644317	NA	1	0	1.07	1	79.73486386	79.738715937	"4"	955.990345557	862.030567131	1.5	0.1
0.01	1	0.00383982899995772	1	51	84.996644317	NA	1	0	1.07	1	79.968551162	79.972390991	"4"	955.990345557	862.030567131	1.5	0.1
0.01	1	0.00386590900001238	1	51	84.996644317	NA	1	0	1.07	1	80.20224274	80.206108649	"4"	955.990345557	862.030567131	1.5	0.1
0.01	1	0.00329293999999436	1	51	84.996644317	NA	1	0	1.07	1	80.436083991	80.439376931	"4"	955.990345557	862.030567131	1.5	0.1
0.01	1	0.00369295299998385	1	51	84.996644317	NA	1	0	1.07	1	80.66977207	80.673465023	"4"	955.990345557	862.030567131	1.5	0.1
0.01	1	0.00377098500001694	1	51	84.996644317	NA	1	0	1.07	1	80.90348273	80.907253715	"4"	955.990345557	862.030567131	1.5	0.1
0.01	1	0.00394308800002818	1	51	84.996644317	NA	1	0	1.07	1	81.137226187	81.141169275	"4"	955.990345557	862.030567131	1.5	0.1
0.01	1	0.00376625999996349	1	51	84.996644317	NA	1	0	1.07	1	81.370905975	81.374672235	"4"	955.990345557	862.030567131	1.5	0.1
0.01	1	0.00447164000001976	1	51	84.996644317	NA	1	0	1.07	1	81.604633775	81.609105415	"4"	955.990345557	862.030567131	1.5	0.1
0.01	1	0.0039597090000143	1	51	84.996644317	NA	1	0	1.07	1	81.83832158	81.842281289	"4"	955.990345557	862.030567131	1.5	0.1
0.01	1	0.00461259000002201	1	51	84.996644317	NA	1	0	1.07	1	82.07227467	82.07688726	"4"	955.990345557	862.030567131	1.5	0.1
0.01	1	0.00460756699999365	1	51	84.996644317	NA	1	0	1.07	1	82.305778965	82.310386532	"4"	955.990345557	862.030567131	1.5	0.1
0.01	1	0.00328522600000269	1	51	84.996644317	NA	1	0	1.07	1	82.539520937	82.542806163	"4"	955.990345557	862.030567131	1.5	0.1
0.01	1	0.00338847799997666	1	51	84.996644317	NA	1	0	1.07	1	82.773241865	82.776630343	"4"	955.990345557	862.030567131	1.5	0.1
0.01	1	0.00386857199998758	1	51	84.996644317	NA	1	0	1.07	1	83.007033715	83.010902287	"4"	955.990345557	862.030567131	1.5	0.1
0.01	1	0.00379751799999895	1	51	84.996644317	NA	1	0	1.07	1	83.240617237	83.244414755	"4"	955.990345557	862.030567131	1.5	0.1
0.01	1	0.00456044200001315	1	51	84.996644317	NA	1	0	1.07	1	83.47444714	83.479007582	"4"	955.990345557	862.030567131	1.5	0.1
0.01	1	0.00396434900000031	1	51	84.996644317	NA	1	0	1.07	1	83.708108212	83.712072561	"4"	955.990345557	862.030567131	1.5	0.1
0.01	1	0.0037011499999835	1	51	84.996644317	NA	1	0	1.07	1	83.941830035	83.945531185	"4"	955.990345557	862.030567131	1.5	0.1
0.01	1	0.00434953999996424	1	51	84.996644317	NA	1	0	1.07	1	84.17555529	84.17990483	"4"	955.990345557	862.030567131	1.5	0.1
0.01	1	0.00453759499998796	1	51	84.996644317	NA	1	0	1.07	1	84.409402175	84.41393977	"4"	955.990345557	862.030567131	1.5	0.1
0.01	1	0.00394220300000825	1	51	84.996644317	NA	1	0	1.07	1	84.643078212	84.647020415	"4"	955.990345557	862.030567131	1.5	0.1
0.01	1	0.00331208699998342	1	51	84.996644317	NA	1	0	1.07	1	84.8768256	84.880137687	"4"	955.990345557	862.030567131	1.5	0.1
0.01	1	0.00389192000000094	1	116	NA	96.743020477	0	0.41	1.48	1	87.047242275	87.051134195	"5"	955.990345557	862.030567131	1.5	0.1
0.01	1	0.00376304700000674	1	116	NA	96.743020477	0	0.41	1.48	1	87.280791622	87.284554669	"5"	955.990345557	862.030567131	1.5	0.1
0.01	1	0.00398966800003109	1	116	NA	96.743020477	0	0.41	1.48	1	87.514579847	87.518569515	"5"	955.990345557	862.030567131	1.5	0.1
0.01	1	0.00412715499999194	1	116	NA	96.743020477	0	0.41	1.48	1	87.748400397	87.752527552	"5"	955.990345557	862.030567131	1.5	0.1
0.01	1	0.0038414820000412	1	116	NA	96.743020477	0	0.41	1.48	1	87.982045685	87.985887167	"5"	955.990345557	862.030567131	1.5	0.1
0.01	1	0.00327566999999362	1	116	NA	96.743020477	0	0.41	1.48	1	88.215723545	88.218999215	"5"	955.990345557	862.030567131	1.5	0.1
0.01	1	0.00338598700000148	1	116	NA	96.743020477	0	0.41	1.48	1	88.44946338	88.452849367	"5"	955.990345557	862.030567131	1.5	0.1
0.01	1	0.00371886799996446	1	116	NA	96.743020477	0	0.41	1.48	1	88.683171535	88.686890403	"5"	955.990345557	862.030567131	1.5	0.1
0.01	1	0.00387551499994743	1	116	NA	96.743020477	0	0.41	1.48	1	88.91692392	88.920799435	"5"	955.990345557	862.030567131	1.5	0.1
0.01	1	0.00450225999998111	1	116	NA	96.743020477	0	0.41	1.48	1	89.150661715	89.155163975	"5"	955.990345557	862.030567131	1.5	0.1
0.01	1	0.00453282699999136	1	116	NA	96.743020477	0	0.41	1.48	1	89.384469705	89.389002532	"5"	955.990345557	862.030567131	1.5	0.1
0.01	1	0.0036811630000102	1	116	NA	96.743020477	0	0.41	1.48	1	89.618137332	89.621818495	"5"	955.990345557	862.030567131	1.5	0.1
0.01	1	0.00424052500000016	1	116	NA	96.743020477	0	0.41	1.48	1	89.851888907	89.856129432	"5"	955.990345557	862.030567131	1.5	0.1
0.01	1	0.00444604499995194	1	116	NA	96.743020477	0	0.41	1.48	1	90.085561607	90.090007652	"5"	955.990345557	862.030567131	1.5	0.1
0.01	1	0.00210086899994621	1	116	NA	96.743020477	0	0.41	1.48	1	90.319321743	90.321422612	"5"	955.990345557	862.030567131	1.5	0.1
0.01	1	0.00214421799995534	1	116	NA	96.743020477	0	0.41	1.48	1	90.553065776	90.555209994	"5"	955.990345557	862.030567131	1.5	0.1
0.01	1	0.00396656699996356	1	116	NA	96.743020477	0	0.41	1.48	1	90.78681377	90.790780337	"5"	955.990345557	862.030567131	1.5	0.1
0.01	1	0.00450799499998311	1	116	NA	96.743020477	0	0.41	1.48	1	91.02049855	91.025006545	"5"	955.990345557	862.030567131	1.5	0.1
0.01	1	0.00454938500001845	1	116	NA	96.743020477	0	0.41	1.48	1	91.2543149	91.258864285	"5"	955.990345557	862.030567131	1.5	0.1
0.01	1	0.00375586299998076	1	116	NA	96.743020477	0	0.41	1.48	1	91.48795692	91.491712783	"5"	955.990345557	862.030567131	1.5	0.1
0.01	1	0.00371871300001203	1	116	NA	96.743020477	0	0.41	1.48	1	91.721689892	91.725408605	"5"	955.990345557	862.030567131	1.5	0.1
0.01	1	0.00387241100003166	1	116	NA	96.743020477	0	0.41	1.48	1	91.955616372	91.959488783	"5"	955.990345557	862.030567131	1.5	0.1
0.01	1	0.00450351700004603	1	116	NA	96.743020477	0	0.41	1.48	1	92.18913024	92.193633757	"5"	955.990345557	862.030567131	1.5	0.1
0.01	1	0.00369806999998445	1	116	NA	96.743020477	0	0.41	1.48	1	92.422880275	92.426578345	"5"	955.990345557	862.030567131	1.5	0.1
0.01	1	0.00336937800000214	1	116	NA	96.743020477	0	0.41	1.48	1	92.656616605	92.659985983	"5"	955.990345557	862.030567131	1.5	0.1
0.01	1	0.00390523299995493	1	116	NA	96.743020477	0	0.41	1.48	1	92.8903385	92.894243733	"5"	955.990345557	862.030567131	1.5	0.1
0.01	1	0.00363006499998164	1	116	NA	96.743020477	0	0.41	1.48	1	93.12402453	93.127654595	"5"	955.990345557	862.030567131	1.5	0.1
0.01	1	0.00391572199998791	1	116	NA	96.743020477	0	0.41	1.48	1	93.357694915	93.361610637	"5"	955.990345557	862.030567131	1.5	0.1
0.01	1	0.00394298999998455	1	116	NA	96.743020477	0	0.41	1.48	1	93.591430475	93.595373465	"5"	955.990345557	862.030567131	1.5	0.1
0.01	1	0.00331791100001055	1	116	NA	96.743020477	0	0.41	1.48	1	93.825115482	93.828433393	"5"	955.990345557	862.030567131	1.5	0.1
0.01	1	0.00380206199997701	1	116	NA	96.743020477	0	0.41	1.48	1	94.058849595	94.062651657	"5"	955.990345557	862.030567131	1.5	0.1
0.01	1	0.00374007499999607	1	116	NA	96.743020477	0	0.41	1.48	1	94.29262456	94.296364635	"5"	955.990345557	862.030567131	1.5	0.1
0.01	1	0.00453689200003282	1	116	NA	96.743020477	0	0.41	1.48	1	94.52646891	94.531005802	"5"	955.990345557	862.030567131	1.5	0.1
0.01	1	0.00331923200002393	1	116	NA	96.743020477	0	0.41	1.48	1	94.760059725	94.763378957	"5"	955.990345557	862.030567131	1.5	0.1
0.01	1	0.00367674500000703	1	116	NA	96.743020477	0	0.41	1.48	1	94.99381804	94.997494785	"5"	955.990345557	862.030567131	1.5	0.1
0.01	1	0.00361983400000554	1	116	NA	96.743020477	0	0.41	1.48	1	95.227562475	95.231182309	"5"	955.990345557	862.030567131	1.5	0.1
0.01	1	0.00426710200002844	1	116	NA	96.743020477	0	0.41	1.48	1	95.461288793	95.465555895	"5"	955.990345557	862.030567131	1.5	0.1
0.01	1	0.00381838999999218	1	116	NA	96.743020477	0	0.41	1.48	1	95.694929305	95.698747695	"5"	955.990345557	862.030567131	1.5	0.1
0.01	1	0.00330437799999572	1	116	NA	96.743020477	0	0.41	1.48	1	95.928805185	95.932109563	"5"	955.990345557	862.030567131	1.5	0.1
0.01	1	0.00374254300004395	1	116	NA	96.743020477	0	0.41	1.48	1	96.16254984	96.166292383	"5"	955.990345557	862.030567131	1.5	0.1
0.01	1	0.00382113999995681	1	116	NA	96.743020477	0	0.41	1.48	1	96.396155805	96.399976945	"5"	955.990345557	862.030567131	1.5	0.1
0.01	1	0.111316477999992	2	116	NA	96.743020477	0	0.41	1.48	1	96.630015452	96.74133193	"5"	955.990345557	862.030567131	1.5	0.1
0.01	1	0.00388891699998339	1	118	NA	113.488472215	0	0.53	2.01	1	98.78352301	98.787411927	"6"	955.990345557	862.030567131	1.5	0.1
0.01	1	0.00385190599996577	1	118	NA	113.488472215	0	0.53	2.01	1	99.017248925	99.021100831	"6"	955.990345557	862.030567131	1.5	0.1
0.01	1	0.00394698899998502	1	118	NA	113.488472215	0	0.53	2.01	1	99.25098629	99.254933279	"6"	955.990345557	862.030567131	1.5	0.1
0.01	1	0.00352506800004448	1	118	NA	113.488472215	0	0.53	2.01	1	99.484700535	99.488225603	"6"	955.990345557	862.030567131	1.5	0.1
0.01	1	0.00473407499998757	1	118	NA	113.488472215	0	0.53	2.01	1	99.718322987	99.723057062	"6"	955.990345557	862.030567131	1.5	0.1
0.01	1	0.00452286000000868	1	118	NA	113.488472215	0	0.53	2.01	1	99.952136365	99.956659225	"6"	955.990345557	862.030567131	1.5	0.1
0.01	1	0.00375657199998614	1	118	NA	113.488472215	0	0.53	2.01	1	100.185921645	100.189678217	"6"	955.990345557	862.030567131	1.5	0.1
0.01	1	0.00386058499998398	1	118	NA	113.488472215	0	0.53	2.01	1	100.4196736	100.423534185	"6"	955.990345557	862.030567131	1.5	0.1
0.01	1	0.00389110999998366	1	118	NA	113.488472215	0	0.53	2.01	1	100.653340785	100.657231895	"6"	955.990345557	862.030567131	1.5	0.1
0.01	1	0.00396909299996651	1	118	NA	113.488472215	0	0.53	2.01	1	100.88714681	100.891115903	"6"	955.990345557	862.030567131	1.5	0.1
0.01	1	0.00384395399998994	1	118	NA	113.488472215	0	0.53	2.01	1	101.120833765	101.124677719	"6"	955.990345557	862.030567131	1.5	0.1
0.01	1	0.00397911999999678	1	118	NA	113.488472215	0	0.53	2.01	1	101.354451015	101.358430135	"6"	955.990345557	862.030567131	1.5	0.1
0.01	1	0.00330447400000367	1	118	NA	113.488472215	0	0.53	2.01	1	101.588265295	101.591569769	"6"	955.990345557	862.030567131	1.5	0.1
0.01	1	0.00392511199999035	1	118	NA	113.488472215	0	0.53	2.01	1	101.822022285	101.825947397	"6"	955.990345557	862.030567131	1.5	0.1
0.01	1	0.00371633700001439	1	118	NA	113.488472215	0	0.53	2.01	1	102.05565941	102.059375747	"6"	955.990345557	862.030567131	1.5	0.1
0.01	1	0.00447940999998764	1	118	NA	113.488472215	0	0.53	2.01	1	102.28953038	102.29400979	"6"	955.990345557	862.030567131	1.5	0.1
0.01	1	0.00392206100002568	1	118	NA	113.488472215	0	0.53	2.01	1	102.523327702	102.527249763	"6"	955.990345557	862.030567131	1.5	0.1
0.01	1	0.00365826300003391	1	118	NA	113.488472215	0	0.53	2.01	1	102.75682873	102.760486993	"6"	955.990345557	862.030567131	1.5	0.1
0.01	1	0.00369794600004525	1	118	NA	113.488472215	0	0.53	2.01	1	102.990605045	102.994302991	"6"	955.990345557	862.030567131	1.5	0.1
0.01	1	0.00393901700005017	1	118	NA	113.488472215	0	0.53	2.01	1	103.2244083	103.228347317	"6"	955.990345557	862.030567131	1.5	0.1
0.01	1	0.00369338600000901	1	118	NA	113.488472215	0	0.53	2.01	1	103.458029877	103.461723263	"6"	955.990345557	862.030567131	1.5	0.1
0.01	1	0.00386882800000876	1	118	NA	113.488472215	0	0.53	2.01	1	103.691860715	103.695729543	"6"	955.990345557	862.030567131	1.5	0.1
0.01	1	0.00374354100000573	1	118	NA	113.488472215	0	0.53	2.01	1	103.92546917	103.929212711	"6"	955.990345557	862.030567131	1.5	0.1
0.01	1	0.00385818599994536	1	118	NA	113.488472215	0	0.53	2.01	1	104.159176415	104.163034601	"6"	955.990345557	862.030567131	1.5	0.1
0.01	1	0.00371141300001909	1	118	NA	113.488472215	0	0.53	2.01	1	104.39302432	104.396735733	"6"	955.990345557	862.030567131	1.5	0.1
0.01	1	0.00331455999997843	1	118	NA	113.488472215	0	0.53	2.01	1	104.626789751	104.630104311	"6"	955.990345557	862.030567131	1.5	0.1
0.01	1	0.00368516800000407	1	118	NA	113.488472215	0	0.53	2.01	1	104.860451705	104.864136873	"6"	955.990345557	862.030567131	1.5	0.1
0.01	1	0.00400006200004555	1	118	NA	113.488472215	0	0.53	2.01	1	105.094183295	105.098183357	"6"	955.990345557	862.030567131	1.5	0.1
0.01	1	0.0039591739999878	1	118	NA	113.488472215	0	0.53	2.01	1	105.327988145	105.331947319	"6"	955.990345557	862.030567131	1.5	0.1
0.01	1	0.00363894600002368	1	118	NA	113.488472215	0	0.53	2.01	1	105.561668815	105.565307761	"6"	955.990345557	862.030567131	1.5	0.1
0.01	1	0.547182859999964	1	118	NA	113.488472215	0	0.53	2.01	1	105.795329725	106.342512585	"6"	955.990345557	862.030567131	1.5	0.1
0.01	1	0.00389761200000294	1	118	NA	113.488472215	0	0.53	2.01	1	106.580067785	106.583965397	"6"	955.990345557	862.030567131	1.5	0.1
0.01	1	0.00387730299996747	1	118	NA	113.488472215	0	0.53	2.01	1	106.813788152	106.817665455	"6"	955.990345557	862.030567131	1.5	0.1
0.01	1	0.00399268699999311	1	118	NA	113.488472215	0	0.53	2.01	1	107.04748286	107.051475547	"6"	955.990345557	862.030567131	1.5	0.1
0.01	1	0.00455847500001028	1	118	NA	113.488472215	0	0.53	2.01	1	107.281287825	107.2858463	"6"	955.990345557	862.030567131	1.5	0.1
0.01	1	0.00378116400003137	1	118	NA	113.488472215	0	0.53	2.01	1	107.514798825	107.518579989	"6"	955.990345557	862.030567131	1.5	0.1
0.01	1	0.00394099900000811	1	118	NA	113.488472215	0	0.53	2.01	1	107.748597932	107.752538931	"6"	955.990345557	862.030567131	1.5	0.1
0.01	1	0.00438573799999631	1	118	NA	113.488472215	0	0.53	2.01	1	107.982318494	107.986704232	"6"	955.990345557	862.030567131	1.5	0.1
0.01	1	0.00331889199998159	1	118	NA	113.488472215	0	0.53	2.01	1	108.216128253	108.219447145	"6"	955.990345557	862.030567131	1.5	0.1
0.01	1	0.475607654999976	1	118	NA	113.488472215	0	0.53	2.01	1	108.449716565	108.92532422	"6"	955.990345557	862.030567131	1.5	0.1
0.01	1	0.00455053500002123	1	118	NA	113.488472215	0	0.53	2.01	1	109.151027645	109.15557818	"6"	955.990345557	862.030567131	1.5	0.1
0.01	1	0.00454285500001106	1	118	NA	113.488472215	0	0.53	2.01	1	109.384723945	109.3892668	"6"	955.990345557	862.030567131	1.5	0.1
0.01	1	0.00323272399998586	1	118	NA	113.488472215	0	0.53	2.01	1	109.618375365	109.621608089	"6"	955.990345557	862.030567131	1.5	0.1
0.01	1	0.41068644500001	1	118	NA	113.488472215	0	0.53	2.01	1	109.852113175	110.26279962	"6"	955.990345557	862.030567131	1.5	0.1
0.01	1	0.00454060499998832	1	118	NA	113.488472215	0	0.53	2.01	1	110.486561335	110.49110194	"6"	955.990345557	862.030567131	1.5	0.1
0.01	1	0.00373839700000644	1	118	NA	113.488472215	0	0.53	2.01	1	110.72026538	110.724003777	"6"	955.990345557	862.030567131	1.5	0.1
0.01	1	0.00381805500001065	1	118	NA	113.488472215	0	0.53	2.01	1	110.95399894	110.957816995	"6"	955.990345557	862.030567131	1.5	0.1
0.01	1	0.00357270800003562	1	118	NA	113.488472215	0	0.53	2.01	1	111.187770897	111.191343605	"6"	955.990345557	862.030567131	1.5	0.1
0.01	1	0.616423763	1	118	NA	113.488472215	0	0.53	2.01	1	111.42149054	112.037914303	"6"	955.990345557	862.030567131	1.5	0.1
0.01	1	0.00391683800000919	1	118	NA	113.488472215	0	0.53	2.01	1	112.272816435	112.276733273	"6"	955.990345557	862.030567131	1.5	0.1
0.01	1	0.00389851299996735	1	118	NA	113.488472215	0	0.53	2.01	1	112.50679174	112.510690253	"6"	955.990345557	862.030567131	1.5	0.1
0.01	1	0.00389451900002769	1	118	NA	113.488472215	0	0.53	2.01	1	112.740369322	112.744263841	"6"	955.990345557	862.030567131	1.5	0.1
0.01	1	0.00449107200000753	1	118	NA	113.488472215	0	0.53	2.01	1	112.9740979	112.978588972	"6"	955.990345557	862.030567131	1.5	0.1
0.01	1	0.279007037999975	2	118	NA	113.488472215	0	0.53	2.01	1	113.207802015	113.486809053	"6"	955.990345557	862.030567131	1.5	0.1
0.01	1	0.00458542000001216	1	87	NA	144.639168303	0	0.77	2.78	1	115.52835568	115.5329411	"7"	955.990345557	862.030567131	1.5	0.1
0.01	1	0.00368707699999504	1	87	NA	144.639168303	0	0.77	2.78	1	115.762080322	115.765767399	"7"	955.990345557	862.030567131	1.5	0.1
0.01	1	0.0039369560000182	1	87	NA	144.639168303	0	0.77	2.78	1	115.995815225	115.999752181	"7"	955.990345557	862.030567131	1.5	0.1
0.01	1	0.0037512660000516	1	87	NA	144.639168303	0	0.77	2.78	1	116.229582715	116.233333981	"7"	955.990345557	862.030567131	1.5	0.1
0.01	1	0.00454204199996866	1	87	NA	144.639168303	0	0.77	2.78	1	116.46339934	116.467941382	"7"	955.990345557	862.030567131	1.5	0.1
0.01	1	0.00449674000003597	1	87	NA	144.639168303	0	0.77	2.78	1	116.697107255	116.701603995	"7"	955.990345557	862.030567131	1.5	0.1
0.01	1	0.00547415300002285	1	87	NA	144.639168303	0	0.77	2.78	1	116.93086812	116.936342273	"7"	955.990345557	862.030567131	1.5	0.1
0.01	1	0.00365346600000294	1	87	NA	144.639168303	0	0.77	2.78	1	117.164484285	117.168137751	"7"	955.990345557	862.030567131	1.5	0.1
0.01	1	0.00462075999996614	1	87	NA	144.639168303	0	0.77	2.78	1	117.398254745	117.402875505	"7"	955.990345557	862.030567131	1.5	0.1
0.01	1	0.00388038099998766	1	87	NA	144.639168303	0	0.77	2.78	1	117.63182656	117.635706941	"7"	955.990345557	862.030567131	1.5	0.1
0.01	1	0.00448675000001231	1	87	NA	144.639168303	0	0.77	2.78	1	117.865637075	117.870123825	"7"	955.990345557	862.030567131	1.5	0.1
0.01	1	0.00459058199999163	1	87	NA	144.639168303	0	0.77	2.78	1	118.09945155	118.104042132	"7"	955.990345557	862.030567131	1.5	0.1
0.01	1	0.00454516500002455	1	87	NA	144.639168303	0	0.77	2.78	1	118.333081025	118.33762619	"7"	955.990345557	862.030567131	1.5	0.1
0.01	1	0.00373217300000306	1	87	NA	144.639168303	0	0.77	2.78	1	118.56687053	118.570602703	"7"	955.990345557	862.030567131	1.5	0.1
0.01	1	0.00384234500000957	1	87	NA	144.639168303	0	0.77	2.78	1	118.80052906	118.804371405	"7"	955.990345557	862.030567131	1.5	0.1
0.01	1	0.00353698200001418	1	87	NA	144.639168303	0	0.77	2.78	1	119.034203825	119.037740807	"7"	955.990345557	862.030567131	1.5	0.1
0.01	1	0.00399096399996779	1	87	NA	144.639168303	0	0.77	2.78	1	119.267989465	119.271980429	"7"	955.990345557	862.030567131	1.5	0.1
0.01	1	0.00461088700001255	1	87	NA	144.639168303	0	0.77	2.78	1	119.50171295	119.506323837	"7"	955.990345557	862.030567131	1.5	0.1
0.01	1	0.00368849400001636	1	87	NA	144.639168303	0	0.77	2.78	1	119.735402357	119.739090851	"7"	955.990345557	862.030567131	1.5	0.1
0.01	1	0.00352188499999784	1	87	NA	144.639168303	0	0.77	2.78	1	119.969219362	119.972741247	"7"	955.990345557	862.030567131	1.5	0.1
0.01	1	0.00386730600001783	1	87	NA	144.639168303	0	0.77	2.78	1	120.202940677	120.206807983	"7"	955.990345557	862.030567131	1.5	0.1
0.01	1	0.00370996800000967	1	87	NA	144.639168303	0	0.77	2.78	1	120.436595425	120.440305393	"7"	955.990345557	862.030567131	1.5	0.1
0.01	1	0.00305100799999991	1	87	NA	144.639168303	0	0.77	2.78	1	120.670379139	120.673430147	"7"	955.990345557	862.030567131	1.5	0.1
0.01	1	0.00219171399999141	1	87	NA	144.639168303	0	0.77	2.78	1	120.904119041	120.906310755	"7"	955.990345557	862.030567131	1.5	0.1
0.01	1	0.00380136299997957	1	87	NA	144.639168303	0	0.77	2.78	1	121.137742832	121.141544195	"7"	955.990345557	862.030567131	1.5	0.1
0.01	1	0.00457972000003792	1	87	NA	144.639168303	0	0.77	2.78	1	121.37150857	121.37608829	"7"	955.990345557	862.030567131	1.5	0.1
0.01	1	0.0570317529999897	1	87	NA	144.639168303	0	0.77	2.78	1	121.60528157	121.662313323	"7"	955.990345557	862.030567131	1.5	0.1
0.01	1	0.108214750000002	1	87	NA	144.639168303	0	0.77	2.78	1	121.88904056	121.99725531	"7"	955.990345557	862.030567131	1.5	0.1
0.01	1	0.102135032000035	1	87	NA	144.639168303	0	0.77	2.78	1	122.22300824	122.325143272	"7"	955.990345557	862.030567131	1.5	0.1
0.01	1	0.0960930109999936	1	87	NA	144.639168303	0	0.77	2.78	1	122.556807997	122.652901008	"7"	955.990345557	862.030567131	1.5	0.1
0.01	1	0.0597215549999532	1	87	NA	144.639168303	0	0.77	2.78	1	122.89070158	122.950423135	"7"	955.990345557	862.030567131	1.5	0.1
0.01	1	0.112188828000001	1	87	NA	144.639168303	0	0.77	2.78	1	123.174540734	123.286729562	"7"	955.990345557	862.030567131	1.5	0.1
0.01	1	0.121009241000024	1	87	NA	144.639168303	0	0.77	2.78	1	123.525164097	123.646173338	"7"	955.990345557	862.030567131	1.5	0.1
0.01	1	0.729275825000002	1	87	NA	144.639168303	0	0.77	2.78	1	123.875772844	124.605048669	"7"	955.990345557	862.030567131	1.5	0.1
0.01	1	0.258426063999991	1	87	NA	144.639168303	0	0.77	2.78	1	124.827348452	125.085774516	"7"	955.990345557	862.030567131	1.5	0.1
0.01	1	0.18191458299998	1	87	NA	144.639168303	0	0.77	2.78	1	125.31144211	125.493356693	"7"	955.990345557	862.030567131	1.5	0.1
0.01	1	0.164821147999987	1	87	NA	144.639168303	0	0.77	2.78	1	125.728834222	125.89365537	"7"	955.990345557	862.030567131	1.5	0.1
0.01	1	0.156256401000007	1	87	NA	144.639168303	0	0.77	2.78	1	126.129611602	126.285868003	"7"	955.990345557	862.030567131	1.5	0.1
0.01	1	0.124810910999997	1	87	NA	144.639168303	0	0.77	2.78	1	126.51360776	126.638418671	"7"	955.990345557	862.030567131	1.5	0.1
0.01	1	0.0699381829999766	1	87	NA	144.639168303	0	0.77	2.78	1	126.864132	126.934070183	"7"	955.990345557	862.030567131	1.5	0.1
0.01	1	0.049952544000007	1	87	NA	144.639168303	0	0.77	2.78	1	127.164636285	127.214588829	"7"	955.990345557	862.030567131	1.5	0.1
0.01	1	0.0865042629999948	1	87	NA	144.639168303	0	0.77	2.78	1	127.448384422	127.534888685	"7"	955.990345557	862.030567131	1.5	0.1
0.01	1	0.0640679670000281	1	87	NA	144.639168303	0	0.77	2.78	1	127.765657937	127.829725904	"7"	955.990345557	862.030567131	1.5	0.1
0.01	1	0.0519797750000066	1	87	NA	144.639168303	0	0.77	2.78	1	128.066185715	128.11816549	"7"	955.990345557	862.030567131	1.5	0.1
0.01	1	0.128317984999967	1	87	NA	144.639168303	0	0.77	2.78	1	128.34996604	128.478284025	"7"	955.990345557	862.030567131	1.5	0.1
0.01	1	0.535960483999986	1	87	NA	144.639168303	0	0.77	2.78	1	128.717196802	129.253157286	"7"	955.990345557	862.030567131	1.5	0.1
0.01	1	0.393569529999979	1	87	NA	144.639168303	0	0.77	2.78	1	129.485108597	129.878678127	"7"	955.990345557	862.030567131	1.5	0.1
0.01	1	0.207636633999982	1	87	NA	144.639168303	0	0.77	2.78	1	130.102860455	130.310497089	"7"	955.990345557	862.030567131	1.5	0.1
0.01	1	0.252328606000049	1	87	NA	144.639168303	0	0.77	2.78	1	130.536938755	130.789267361	"7"	955.990345557	862.030567131	1.5	0.1
0.01	1	0.359718333999979	1	87	NA	144.639168303	0	0.77	2.78	1	131.021196754	131.380915088	"7"	955.990345557	862.030567131	1.5	0.1
0.01	1	0.311630983000043	1	87	NA	144.639168303	0	0.77	2.78	1	131.60547132	131.917102303	"7"	955.990345557	862.030567131	1.5	0.1
0.01	1	0.352701179999997	1	87	NA	144.639168303	0	0.77	2.78	1	132.15643373	132.50913491	"7"	955.990345557	862.030567131	1.5	0.1
0.01	1	0.288749789000008	1	87	NA	144.639168303	0	0.77	2.78	1	132.74059578	133.029345569	"7"	955.990345557	862.030567131	1.5	0.1
0.01	1	0.284070632000009	1	87	NA	144.639168303	0	0.77	2.78	1	133.258150951	133.542221583	"7"	955.990345557	862.030567131	1.5	0.1
0.01	1	0.237983049000036	1	87	NA	144.639168303	0	0.77	2.78	1	133.775774457	134.013757506	"7"	955.990345557	862.030567131	1.5	0.1
0.01	1	0.242482703000007	1	87	NA	144.639168303	0	0.77	2.78	1	134.243210075	134.485692778	"7"	955.990345557	862.030567131	1.5	0.1
0.01	1	0.207564212999955	1	87	NA	144.639168303	0	0.77	2.78	1	134.71065644	134.918220653	"7"	955.990345557	862.030567131	1.5	0.1
0.01	1	0.229234249000001	1	87	NA	144.639168303	0	0.77	2.78	1	135.144731295	135.373965544	"7"	955.990345557	862.030567131	1.5	0.1
0.01	1	0.178036588999987	1	87	NA	144.639168303	0	0.77	2.78	1	135.612086305	135.790122894	"7"	955.990345557	862.030567131	1.5	0.1
0.01	1	0.200175663999971	1	87	NA	144.639168303	0	0.77	2.78	1	136.01278496	136.212960624	"7"	955.990345557	862.030567131	1.5	0.1
0.01	1	0.126524119999999	1	87	NA	144.639168303	0	0.77	2.78	1	136.446815277	136.573339397	"7"	955.990345557	862.030567131	1.5	0.1
0.01	1	0.208619603999978	1	87	NA	144.639168303	0	0.77	2.78	1	136.797504985	137.006124589	"7"	955.990345557	862.030567131	1.5	0.1
0.01	1	0.206717778000041	1	87	NA	144.639168303	0	0.77	2.78	1	137.23155576	137.438273538	"7"	955.990345557	862.030567131	1.5	0.1
0.01	1	0.131349462999992	1	87	NA	144.639168303	0	0.77	2.78	1	137.66567598	137.797025443	"7"	955.990345557	862.030567131	1.5	0.1
0.01	1	0.133432118999963	1	87	NA	144.639168303	0	0.77	2.78	1	138.032907885	138.166340004	"7"	955.990345557	862.030567131	1.5	0.1
0.01	1	0.07029511799999	1	87	NA	144.639168303	0	0.77	2.78	1	138.400195835	138.470490953	"7"	955.990345557	862.030567131	1.5	0.1
0.01	1	0.104712102999997	1	87	NA	144.639168303	0	0.77	2.78	1	138.70075959	138.805471693	"7"	955.990345557	862.030567131	1.5	0.1
0.01	1	0.460199983999985	1	87	NA	144.639168303	0	0.77	2.78	1	139.03465914	139.494859124	"7"	955.990345557	862.030567131	1.5	0.1
0.01	1	0.254989223000052	1	87	NA	144.639168303	0	0.77	2.78	1	139.719104002	139.974093225	"7"	955.990345557	862.030567131	1.5	0.1
0.01	1	0.265850053999998	1	87	NA	144.639168303	0	0.77	2.78	1	140.203188872	140.469038926	"7"	955.990345557	862.030567131	1.5	0.1
0.01	1	0.317587250999964	1	87	NA	144.639168303	0	0.77	2.78	1	140.704012753	141.021600004	"7"	955.990345557	862.030567131	1.5	0.1
0.01	1	0.311991314000011	1	87	NA	144.639168303	0	0.77	2.78	1	141.254933422	141.566924736	"7"	955.990345557	862.030567131	1.5	0.1
0.01	1	0.287265194000042	1	87	NA	144.639168303	0	0.77	2.78	1	141.805913917	142.093179111	"7"	955.990345557	862.030567131	1.5	0.1
0.01	1	0.290391663999969	1	87	NA	144.639168303	0	0.77	2.78	1	142.323433262	142.613824926	"7"	955.990345557	862.030567131	1.5	0.1
0.01	1	0.300641743000028	1	87	NA	144.639168303	0	0.77	2.78	1	142.840947761	143.141589504	"7"	955.990345557	862.030567131	1.5	0.1
0.01	1	0.26229102100001	1	87	NA	144.639168303	0	0.77	2.78	1	143.375260432	143.637551453	"7"	955.990345557	862.030567131	1.5	0.1
0.01	1	0.298185739000019	1	87	NA	144.639168303	0	0.77	2.78	1	143.87610481	144.174290549	"7"	955.990345557	862.030567131	1.5	0.1
0.01	1	0.227238159999956	2	87	NA	144.639168303	0	0.77	2.78	1	144.41023932	144.63747748	"7"	955.990345557	862.030567131	1.5	0.1
0.01	1	0.0924506400000382	1	6	148.85423526	NA	1	0	2.78	1	146.697492282	146.789942922	"8"	955.990345557	862.030567131	1.5	0.1
0.01	1	0.350442800999986	1	6	148.85423526	NA	1	0	2.78	1	147.014685065	147.365127866	"8"	955.990345557	862.030567131	1.5	0.1
0.01	1	0.159218989999999	1	6	148.85423526	NA	1	0	2.78	1	147.59903709	147.75825608	"8"	955.990345557	862.030567131	1.5	0.1
0.01	1	0.183754279000027	1	6	148.85423526	NA	1	0	2.78	1	147.98292112	148.166675399	"8"	955.990345557	862.030567131	1.5	0.1
0.01	1	0.0703098669999918	1	6	148.85423526	NA	1	0	2.78	1	148.400394035	148.470703902	"8"	955.990345557	862.030567131	1.5	0.1
0.01	1	0.0418254740000066	1	6	148.85423526	NA	1	0	2.78	1	148.70084917	148.742674644	"8"	955.990345557	862.030567131	1.5	0.1
0.01	1	6.94041209800002	1	106	NA	188.167121746	0	0.890000000000001	3.67	1	150.887795555	157.828207653	"9"	955.990345557	862.030567131	1.5	0.1
0.01	1	0.202262646000008	1	106	NA	188.167121746	0	0.890000000000001	3.67	1	158.066712852	158.268975498	"9"	955.990345557	862.030567131	1.5	0.1
0.01	1	0.328173615999958	1	106	NA	188.167121746	0	0.890000000000001	3.67	1	158.50070682	158.828880436	"9"	955.990345557	862.030567131	1.5	0.1
0.01	1	0.185174093000001	1	106	NA	188.167121746	0	0.890000000000001	3.67	1	159.051612715	159.236786808	"9"	955.990345557	862.030567131	1.5	0.1
0.01	1	0.0159061450000308	1	106	NA	188.167121746	0	0.890000000000001	3.67	1	159.469017675	159.48492382	"9"	955.990345557	862.030567131	1.5	0.1
0.01	1	0.00451595999993515	1	106	NA	188.167121746	0	0.890000000000001	3.67	1	159.7194305	159.72394646	"9"	955.990345557	862.030567131	1.5	0.1
0.01	1	0.00398167700006979	1	106	NA	188.167121746	0	0.890000000000001	3.67	1	159.953085622	159.957067299	"9"	955.990345557	862.030567131	1.5	0.1
0.01	1	0.00455370700001367	1	106	NA	188.167121746	0	0.890000000000001	3.67	1	160.186876515	160.191430222	"9"	955.990345557	862.030567131	1.5	0.1
0.01	1	0.137249815000018	1	106	NA	188.167121746	0	0.890000000000001	3.67	1	160.420537465	160.55778728	"9"	955.990345557	862.030567131	1.5	0.1
0.01	1	0.104862788000105	1	106	NA	188.167121746	0	0.890000000000001	3.67	1	160.787884935	160.892747723	"9"	955.990345557	862.030567131	1.5	0.1
0.01	1	0.0341472439999961	1	106	NA	188.167121746	0	0.890000000000001	3.67	1	161.121684265	161.155831509	"9"	955.990345557	862.030567131	1.5	0.1
0.01	1	0.0156500900000083	1	106	NA	188.167121746	0	0.890000000000001	3.67	1	161.388897322	161.404547412	"9"	955.990345557	862.030567131	1.5	0.1
0.01	1	0.00326218599991535	1	106	NA	188.167121746	0	0.890000000000001	3.67	1	161.639293139	161.642555325	"9"	955.990345557	862.030567131	1.5	0.1
0.01	1	0.140350914999999	1	106	NA	188.167121746	0	0.890000000000001	3.67	1	161.873103424	162.013454339	"9"	955.990345557	862.030567131	1.5	0.1
0.01	1	0.00394717399990441	1	106	NA	188.167121746	0	0.890000000000001	3.67	1	162.240347675	162.244294849	"9"	955.990345557	862.030567131	1.5	0.1
0.01	1	0.114019546000009	1	106	NA	188.167121746	0	0.890000000000001	3.67	1	162.47399174	162.588011286	"9"	955.990345557	862.030567131	1.5	0.1
0.01	1	0.00269551700000648	1	106	NA	188.167121746	0	0.890000000000001	3.67	1	162.824664903	162.82736042	"9"	955.990345557	862.030567131	1.5	0.1
0.01	1	0.00388431799990485	1	106	NA	188.167121746	0	0.890000000000001	3.67	1	163.058253277	163.062137595	"9"	955.990345557	862.030567131	1.5	0.1
0.01	1	0.00377624000009291	1	106	NA	188.167121746	0	0.890000000000001	3.67	1	163.292030085	163.295806325	"9"	955.990345557	862.030567131	1.5	0.1
0.01	1	0.00373665600000095	1	106	NA	188.167121746	0	0.890000000000001	3.67	1	163.525857907	163.529594563	"9"	955.990345557	862.030567131	1.5	0.1
0.01	1	0.00396143800003301	1	106	NA	188.167121746	0	0.890000000000001	3.67	1	163.759517575	163.763479013	"9"	955.990345557	862.030567131	1.5	0.1
0.01	1	0.291999101999977	1	106	NA	188.167121746	0	0.890000000000001	3.67	1	163.993230472	164.285229574	"9"	955.990345557	862.030567131	1.5	0.1
0.01	1	0.00334425000005467	1	106	NA	188.167121746	0	0.890000000000001	3.67	1	164.510726235	164.514070485	"9"	955.990345557	862.030567131	1.5	0.1
0.01	1	0.00320798200004901	1	106	NA	188.167121746	0	0.890000000000001	3.67	1	164.744549025	164.747757007	"9"	955.990345557	862.030567131	1.5	0.1
0.01	1	0.00364730200010399	1	106	NA	188.167121746	0	0.890000000000001	3.67	1	164.978197005	164.981844307	"9"	955.990345557	862.030567131	1.5	0.1
0.01	1	0.00378778100002819	1	106	NA	188.167121746	0	0.890000000000001	3.67	1	165.211920502	165.215708283	"9"	955.990345557	862.030567131	1.5	0.1
0.01	1	0.00331984000001739	1	106	NA	188.167121746	0	0.890000000000001	3.67	1	165.445729387	165.449049227	"9"	955.990345557	862.030567131	1.5	0.1
0.01	1	0.0134552039999107	1	106	NA	188.167121746	0	0.890000000000001	3.67	1	165.679478222	165.692933426	"9"	955.990345557	862.030567131	1.5	0.1
0.01	1	0.0582551809999359	1	106	NA	188.167121746	0	0.890000000000001	3.67	1	165.929763594	165.988018775	"9"	955.990345557	862.030567131	1.5	0.1
0.01	1	0.0557525159999841	1	106	NA	188.167121746	0	0.890000000000001	3.67	1	166.213687412	166.269439928	"9"	955.990345557	862.030567131	1.5	0.1
0.01	1	0.067994532000057	1	106	NA	188.167121746	0	0.890000000000001	3.67	1	166.497473677	166.565468209	"9"	955.990345557	862.030567131	1.5	0.1
0.01	1	0.0632656589999669	1	106	NA	188.167121746	0	0.890000000000001	3.67	1	166.798011952	166.861277611	"9"	955.990345557	862.030567131	1.5	0.1
0.01	1	0.0578645909999977	1	106	NA	188.167121746	0	0.890000000000001	3.67	1	167.098458442	167.156323033	"9"	955.990345557	862.030567131	1.5	0.1
0.01	1	0.0307498120000673	1	106	NA	188.167121746	0	0.890000000000001	3.67	1	167.382281092	167.413030904	"9"	955.990345557	862.030567131	1.5	0.1
0.01	1	0.0426201409999294	1	106	NA	188.167121746	0	0.890000000000001	3.67	1	167.649372745	167.691992886	"9"	955.990345557	862.030567131	1.5	0.1
0.01	1	0.0967956010000535	1	106	NA	188.167121746	0	0.890000000000001	3.67	1	167.9164598	168.013255401	"9"	955.990345557	862.030567131	1.5	0.1
0.01	1	0.0265898930000503	1	106	NA	188.167121746	0	0.890000000000001	3.67	1	168.250406665	168.276996558	"9"	955.990345557	862.030567131	1.5	0.1
0.01	1	0.120931925000036	1	106	NA	188.167121746	0	0.890000000000001	3.67	1	168.500802002	168.621733927	"9"	955.990345557	862.030567131	1.5	0.1
0.01	1	0.0327069900000652	1	106	NA	188.167121746	0	0.890000000000001	3.67	1	168.851423555	168.884130545	"9"	955.990345557	862.030567131	1.5	0.1
0.01	1	0.0231896390000657	1	106	NA	188.167121746	0	0.890000000000001	3.67	1	169.11850823	169.141697869	"9"	955.990345557	862.030567131	1.5	0.1
0.01	1	0.0116435190000175	1	106	NA	188.167121746	0	0.890000000000001	3.67	1	169.36898869	169.380632209	"9"	955.990345557	862.030567131	1.5	0.1
0.01	1	0.026807974999997	1	106	NA	188.167121746	0	0.890000000000001	3.67	1	169.602638077	169.629446052	"9"	955.990345557	862.030567131	1.5	0.1
0.01	1	0.0388489519999666	1	106	NA	188.167121746	0	0.890000000000001	3.67	1	169.853056525	169.891905477	"9"	955.990345557	862.030567131	1.5	0.1
0.01	1	0.0208364970000048	1	106	NA	188.167121746	0	0.890000000000001	3.67	1	170.120139372	170.140975869	"9"	955.990345557	862.030567131	1.5	0.1
0.01	1	0.0505271050000147	1	106	NA	188.167121746	0	0.890000000000001	3.67	1	170.370709135	170.42123624	"9"	955.990345557	862.030567131	1.5	0.1
0.01	1	0.335238182000012	1	106	NA	188.167121746	0	0.890000000000001	3.67	1	170.654519662	170.989757844	"9"	955.990345557	862.030567131	1.5	0.1
0.01	1	0.0946318029999702	1	106	NA	188.167121746	0	0.890000000000001	3.67	1	171.222125592	171.316757395	"9"	955.990345557	862.030567131	1.5	0.1
0.01	1	0.801323466999975	1	106	NA	188.167121746	0	0.890000000000001	3.67	1	171.5393174	172.340640867	"9"	955.990345557	862.030567131	1.5	0.1
0.01	1	0.0537403050000194	1	106	NA	188.167121746	0	0.890000000000001	3.67	1	172.574395882	172.628136187	"9"	955.990345557	862.030567131	1.5	0.1
0.01	1	0.0989704049999318	1	106	NA	188.167121746	0	0.890000000000001	3.67	1	172.8582538	172.957224205	"9"	955.990345557	862.030567131	1.5	0.1
0.01	1	0.147029254000017	1	106	NA	188.167121746	0	0.890000000000001	3.67	1	173.19194478	173.338974034	"9"	955.990345557	862.030567131	1.5	0.1
0.01	1	0.0121147290000181	1	106	NA	188.167121746	0	0.890000000000001	3.67	1	173.576002712	173.588117441	"9"	955.990345557	862.030567131	1.5	0.1
0.01	1	0.0359924489999912	1	106	NA	188.167121746	0	0.890000000000001	3.67	1	173.80977738	173.845769829	"9"	955.990345557	862.030567131	1.5	0.1
0.01	1	0.0639140019999331	1	106	NA	188.167121746	0	0.890000000000001	3.67	1	174.076809092	174.140723094	"9"	955.990345557	862.030567131	1.5	0.1
0.01	1	0.0675262749999774	1	106	NA	188.167121746	0	0.890000000000001	3.67	1	174.377365552	174.444891827	"9"	955.990345557	862.030567131	1.5	0.1
0.01	1	0.0703560550000475	1	106	NA	188.167121746	0	0.890000000000001	3.67	1	174.677923837	174.748279892	"9"	955.990345557	862.030567131	1.5	0.1
0.01	1	0.0908125910000308	1	106	NA	188.167121746	0	0.890000000000001	3.67	1	174.978350162	175.069162753	"9"	955.990345557	862.030567131	1.5	0.1
0.01	1	0.141542438999977	1	106	NA	188.167121746	0	0.890000000000001	3.67	1	175.295546517	175.437088956	"9"	955.990345557	862.030567131	1.5	0.1
0.01	1	0.0869078810000019	1	106	NA	188.167121746	0	0.890000000000001	3.67	1	175.662880337	175.749788218	"9"	955.990345557	862.030567131	1.5	0.1
0.01	1	0.0244520829999146	1	106	NA	188.167121746	0	0.890000000000001	3.67	1	175.980136845	176.004588928	"9"	955.990345557	862.030567131	1.5	0.1
0.01	1	0.0380946640000275	1	106	NA	188.167121746	0	0.890000000000001	3.67	1	176.230486022	176.268580686	"9"	955.990345557	862.030567131	1.5	0.1
0.01	1	0.0587442770000735	1	106	NA	188.167121746	0	0.890000000000001	3.67	1	176.497640382	176.556384659	"9"	955.990345557	862.030567131	1.5	0.1
0.01	1	0.0389516410000397	1	106	NA	188.167121746	0	0.890000000000001	3.67	1	176.781463002	176.820414643	"9"	955.990345557	862.030567131	1.5	0.1
0.01	1	0.0192623980000235	1	106	NA	188.167121746	0	0.890000000000001	3.67	1	177.048569397	177.067831795	"9"	955.990345557	862.030567131	1.5	0.1
0.01	1	0.00937971399991966	1	106	NA	188.167121746	0	0.890000000000001	3.67	1	177.29895137	177.308331084	"9"	955.990345557	862.030567131	1.5	0.1
0.01	1	0.0489777650000178	1	106	NA	188.167121746	0	0.890000000000001	3.67	1	177.532719155	177.58169692	"9"	955.990345557	862.030567131	1.5	0.1
0.01	1	0.0120289349999894	1	106	NA	188.167121746	0	0.890000000000001	3.67	1	177.81654663	177.828575565	"9"	955.990345557	862.030567131	1.5	0.1
0.01	1	0.0174693059999527	1	106	NA	188.167121746	0	0.890000000000001	3.67	1	178.066895777	178.084365083	"9"	955.990345557	862.030567131	1.5	0.1
0.01	1	0.0466387479999639	1	106	NA	188.167121746	0	0.890000000000001	3.67	1	178.31729537	178.363934118	"9"	955.990345557	862.030567131	1.5	0.1
0.01	1	0.0442221329999484	1	106	NA	188.167121746	0	0.890000000000001	3.67	1	178.601142682	178.645364815	"9"	955.990345557	862.030567131	1.5	0.1
0.01	1	0.031977455999936	1	106	NA	188.167121746	0	0.890000000000001	3.67	1	178.868304885	178.900282341	"9"	955.990345557	862.030567131	1.5	0.1
0.01	1	0.0377787209999951	1	106	NA	188.167121746	0	0.890000000000001	3.67	1	179.13532924	179.173107961	"9"	955.990345557	862.030567131	1.5	0.1
0.01	1	0.106489898000063	1	106	NA	188.167121746	0	0.890000000000001	3.67	1	179.402477665	179.508967563	"9"	955.990345557	862.030567131	1.5	0.1
0.01	1	0.0997266739999532	1	106	NA	188.167121746	0	0.890000000000001	3.67	1	179.736369367	179.836096041	"9"	955.990345557	862.030567131	1.5	0.1
0.01	1	0.711273870000014	1	106	NA	188.167121746	0	0.890000000000001	3.67	1	180.0702429	180.78151677	"9"	955.990345557	862.030567131	1.5	0.1
0.01	1	0.448500948999936	1	106	NA	188.167121746	0	0.890000000000001	3.67	1	181.00520948	181.453710429	"9"	955.990345557	862.030567131	1.5	0.1
0.01	1	0.946495054000025	1	106	NA	188.167121746	0	0.890000000000001	3.67	1	181.689641339	182.636136393	"9"	955.990345557	862.030567131	1.5	0.1
0.01	1	0.627292229999966	1	106	NA	188.167121746	0	0.890000000000001	3.67	1	182.858320417	183.485612647	"9"	955.990345557	862.030567131	1.5	0.1
0.01	1	0.575906363999934	1	106	NA	188.167121746	0	0.890000000000001	3.67	1	183.70975713	184.285663494	"9"	955.990345557	862.030567131	1.5	0.1
0.01	1	0.142395536000095	1	106	NA	188.167121746	0	0.890000000000001	3.67	1	184.511100234	184.65349577	"9"	955.990345557	862.030567131	1.5	0.1
0.01	1	0.0939612169999009	1	106	NA	188.167121746	0	0.890000000000001	3.67	1	184.878369995	184.972331212	"9"	955.990345557	862.030567131	1.5	0.1
0.01	1	0.0575829979999298	1	106	NA	188.167121746	0	0.890000000000001	3.67	1	185.195571057	185.253154055	"9"	955.990345557	862.030567131	1.5	0.1
0.01	1	0.0285563410000123	1	106	NA	188.167121746	0	0.890000000000001	3.67	1	185.479285925	185.507842266	"9"	955.990345557	862.030567131	1.5	0.1
0.01	1	0.0833877030000849	1	106	NA	188.167121746	0	0.890000000000001	3.67	1	185.72982841	185.813216113	"9"	955.990345557	862.030567131	1.5	0.1
0.01	1	0.293166325000016	1	106	NA	188.167121746	0	0.890000000000001	3.67	1	186.046939145	186.34010547	"9"	955.990345557	862.030567131	1.5	0.1
0.01	1	0.0636133299999528	1	106	NA	188.167121746	0	0.890000000000001	3.67	1	186.56463628	186.62824961	"9"	955.990345557	862.030567131	1.5	0.1
0.01	1	0.0284003519999487	1	106	NA	188.167121746	0	0.890000000000001	3.67	1	186.865127515	186.893527867	"9"	955.990345557	862.030567131	1.5	0.1
0.01	1	0.0328395500000624	1	106	NA	188.167121746	0	0.890000000000001	3.67	1	187.115408014	187.148247564	"9"	955.990345557	862.030567131	1.5	0.1
0.01	1	0.0632006289999936	1	106	NA	188.167121746	0	0.890000000000001	3.67	1	187.38262662	187.445827249	"9"	955.990345557	862.030567131	1.5	0.1
0.01	1	0.482517600999927	2	106	NA	188.167121746	0	0.890000000000001	3.67	1	187.68308019	188.165597791	"9"	955.990345557	862.030567131	1.5	0.1
0.01	1	0.769759839000017	1	21	196.718918825	NA	1	0	3.67	1	190.203940985	190.973700824	"10"	955.990345557	862.030567131	1.5	0.1
0.01	1	0.0540659870000582	1	21	196.718918825	NA	1	0	3.67	1	191.20566877	191.259734757	"10"	955.990345557	862.030567131	1.5	0.1
0.01	1	0.00329853000005187	1	21	196.718918825	NA	1	0	3.67	1	191.489422797	191.492721327	"10"	955.990345557	862.030567131	1.5	0.1
0.01	1	0.00301423400003387	1	21	196.718918825	NA	1	0	3.67	1	191.723166013	191.726180247	"10"	955.990345557	862.030567131	1.5	0.1
0.01	1	0.0029699739999387	1	21	196.718918825	NA	1	0	3.67	1	191.957050303	191.960020277	"10"	955.990345557	862.030567131	1.5	0.1
0.01	1	0.00444485399998484	1	21	196.718918825	NA	1	0	3.67	1	192.190623103	192.195067957	"10"	955.990345557	862.030567131	1.5	0.1
0.01	1	0.148118436999994	1	21	196.718918825	NA	1	0	3.67	1	192.424414172	192.572532609	"10"	955.990345557	862.030567131	1.5	0.1
0.01	1	0.0766550030000417	1	21	196.718918825	NA	1	0	3.67	1	192.808348302	192.885003305	"10"	955.990345557	862.030567131	1.5	0.1
0.01	1	0.004332082000019	1	21	196.718918825	NA	1	0	3.67	1	193.108896513	193.113228595	"10"	955.990345557	862.030567131	1.5	0.1
0.01	1	0.12625278400003	1	21	196.718918825	NA	1	0	3.67	1	193.34267229	193.468925074	"10"	955.990345557	862.030567131	1.5	0.1
0.01	1	0.00438707199998589	1	21	196.718918825	NA	1	0	3.67	1	193.693142318	193.69752939	"10"	955.990345557	862.030567131	1.5	0.1
0.01	1	0.0466661149999936	1	21	196.718918825	NA	1	0	3.67	1	193.926884705	193.97355082	"10"	955.990345557	862.030567131	1.5	0.1
0.01	1	0.00374787800001286	1	21	196.718918825	NA	1	0	3.67	1	194.210740405	194.214488283	"10"	955.990345557	862.030567131	1.5	0.1
0.01	1	0.264169088000017	1	21	196.718918825	NA	1	0	3.67	1	194.444473362	194.70864245	"10"	955.990345557	862.030567131	1.5	0.1
0.01	1	0.00327247799998531	1	21	196.718918825	NA	1	0	3.67	1	194.945275003	194.948547481	"10"	955.990345557	862.030567131	1.5	0.1
0.01	1	0.0817672529999527	1	21	196.718918825	NA	1	0	3.67	1	195.179044145	195.260811398	"10"	955.990345557	862.030567131	1.5	0.1
0.01	1	0.00457858000004308	1	21	196.718918825	NA	1	0	3.67	1	195.496316655	195.500895235	"10"	955.990345557	862.030567131	1.5	0.1
0.01	1	0.113970418999997	1	21	196.718918825	NA	1	0	3.67	1	195.730005252	195.843975671	"10"	955.990345557	862.030567131	1.5	0.1
0.01	1	0.00358752499994353	1	21	196.718918825	NA	1	0	3.67	1	196.08060217	196.084189695	"10"	955.990345557	862.030567131	1.5	0.1
0.01	1	0.0580728520000093	1	21	196.718918825	NA	1	0	3.67	1	196.314256225	196.372329077	"10"	955.990345557	862.030567131	1.5	0.1
0.01	1	0.00330371799998375	1	21	196.718918825	NA	1	0	3.67	1	196.598096763	196.601400481	"10"	955.990345557	862.030567131	1.5	0.1
0.01	1	0.228065535000042	1	19	203.56288604	NA	1	0	3.67	1	198.768377494	198.996443029	"11"	955.990345557	862.030567131	1.5	0.1
0.01	1	0.00281866000000264	1	19	203.56288604	NA	1	0	3.67	1	199.235829907	199.238648567	"11"	955.990345557	862.030567131	1.5	0.1
0.01	1	0.00334967599997071	1	19	203.56288604	NA	1	0	3.67	1	199.469528993	199.472878669	"11"	955.990345557	862.030567131	1.5	0.1
0.01	1	0.00298037800007478	1	19	203.56288604	NA	1	0	3.67	1	199.703336575	199.706316953	"11"	955.990345557	862.030567131	1.5	0.1
0.01	1	0.00381534600001032	1	19	203.56288604	NA	1	0	3.67	1	199.936975675	199.940791021	"11"	955.990345557	862.030567131	1.5	0.1
0.01	1	0.113150139000027	1	19	203.56288604	NA	1	0	3.67	1	200.170726057	200.283876196	"11"	955.990345557	862.030567131	1.5	0.1
0.01	1	0.00332792000006066	1	19	203.56288604	NA	1	0	3.67	1	200.521324911	200.524652831	"11"	955.990345557	862.030567131	1.5	0.1
0.01	1	0.00442895800006227	1	19	203.56288604	NA	1	0	3.67	1	200.755173797	200.759602755	"11"	955.990345557	862.030567131	1.5	0.1
0.01	1	0.00391847299999881	1	19	203.56288604	NA	1	0	3.67	1	200.98882373	200.992742203	"11"	955.990345557	862.030567131	1.5	0.1
0.01	1	0.125924921000092	1	19	203.56288604	NA	1	0	3.67	1	201.22253096	201.348455881	"11"	955.990345557	862.030567131	1.5	0.1
0.01	1	0.00328045000003385	1	19	203.56288604	NA	1	0	3.67	1	201.573094123	201.576374573	"11"	955.990345557	862.030567131	1.5	0.1
0.01	1	0.00322527399998762	1	19	203.56288604	NA	1	0	3.67	1	201.806814649	201.810039923	"11"	955.990345557	862.030567131	1.5	0.1
0.01	1	0.0032666719999952	1	19	203.56288604	NA	1	0	3.67	1	202.040666335	202.043933007	"11"	955.990345557	862.030567131	1.5	0.1
0.01	1	0.00303427199992257	1	19	203.56288604	NA	1	0	3.67	1	202.274306761	202.277341033	"11"	955.990345557	862.030567131	1.5	0.1
0.01	1	0.0037665150000521	1	19	203.56288604	NA	1	0	3.67	1	202.50796714	202.511733655	"11"	955.990345557	862.030567131	1.5	0.1
0.01	1	0.00382877700008066	1	19	203.56288604	NA	1	0	3.67	1	202.741803292	202.745632069	"11"	955.990345557	862.030567131	1.5	0.1
0.01	1	0.00433304000000589	1	19	203.56288604	NA	1	0	3.67	1	202.975447905	202.979780945	"11"	955.990345557	862.030567131	1.5	0.1
0.01	1	0.00376594900001237	1	19	203.56288604	NA	1	0	3.67	1	203.209233332	203.212999281	"11"	955.990345557	862.030567131	1.5	0.1
0.01	1	0.00326655600008507	1	19	203.56288604	NA	1	0	3.67	1	203.442920611	203.446187167	"11"	955.990345557	862.030567131	1.5	0.1
0.01	1	0.159631690999959	1	63	NA	213.958763087	0	0.26	3.93	1	205.613307938	205.772939629	"12"	955.990345557	862.030567131	1.5	0.1
0.01	1	0.00376312799994594	1	63	NA	213.958763087	0	0.26	3.93	1	205.997129445	206.000892573	"12"	955.990345557	862.030567131	1.5	0.1
0.01	1	0.00321575400005258	1	63	NA	213.958763087	0	0.26	3.93	1	206.231025103	206.234240857	"12"	955.990345557	862.030567131	1.5	0.1
0.01	1	0.0838481730000922	1	63	NA	213.958763087	0	0.26	3.93	1	206.46471946	206.548567633	"12"	955.990345557	862.030567131	1.5	0.1
0.01	1	0.135560802999976	1	63	NA	213.958763087	0	0.26	3.93	1	206.781964221	206.917525024	"12"	955.990345557	862.030567131	1.5	0.1
0.01	1	0.00428643800000827	1	63	NA	213.958763087	0	0.26	3.93	1	207.149107607	207.153394045	"12"	955.990345557	862.030567131	1.5	0.1
0.01	1	0.102119878000053	1	63	NA	213.958763087	0	0.26	3.93	1	207.382887902	207.48500778	"12"	955.990345557	862.030567131	1.5	0.1
0.01	1	0.128397046000032	1	63	NA	213.958763087	0	0.26	3.93	1	207.716877725	207.845274771	"12"	955.990345557	862.030567131	1.5	0.1
0.01	1	0.00422774300000128	1	63	NA	213.958763087	0	0.26	3.93	1	208.067371567	208.07159931	"12"	955.990345557	862.030567131	1.5	0.1
0.01	1	0.11894101300004	1	63	NA	213.958763087	0	0.26	3.93	1	208.301067785	208.420008798	"12"	955.990345557	862.030567131	1.5	0.1
0.01	1	0.129430134000017	1	63	NA	213.958763087	0	0.26	3.93	1	208.65173334	208.781163474	"12"	955.990345557	862.030567131	1.5	0.1
0.01	1	0.114321507	1	63	NA	213.958763087	0	0.26	3.93	1	209.018904735	209.133226242	"12"	955.990345557	862.030567131	1.5	0.1
0.01	1	0.115001258000007	1	63	NA	213.958763087	0	0.26	3.93	1	209.369500812	209.48450207	"12"	955.990345557	862.030567131	1.5	0.1
0.01	1	0.125291138999955	1	63	NA	213.958763087	0	0.26	3.93	1	209.720209692	209.845500831	"12"	955.990345557	862.030567131	1.5	0.1
0.01	1	0.00334083600000668	1	63	NA	213.958763087	0	0.26	3.93	1	210.070806919	210.074147755	"12"	955.990345557	862.030567131	1.5	0.1
0.01	1	0.116390520999971	1	63	NA	213.958763087	0	0.26	3.93	1	210.304527515	210.420918036	"12"	955.990345557	862.030567131	1.5	0.1
0.01	1	0.101440717999935	1	63	NA	213.958763087	0	0.26	3.93	1	210.655152205	210.756592923	"12"	955.990345557	862.030567131	1.5	0.1
0.01	1	0.135024079000004	1	63	NA	213.958763087	0	0.26	3.93	1	210.988986485	211.124010564	"12"	955.990345557	862.030567131	1.5	0.1
0.01	1	0.00304267599995001	1	63	NA	213.958763087	0	0.26	3.93	1	211.356222671	211.359265347	"12"	955.990345557	862.030567131	1.5	0.1
0.01	1	0.13434053800006	1	63	NA	213.958763087	0	0.26	3.93	1	211.59001874	211.724359278	"12"	955.990345557	862.030567131	1.5	0.1
0.01	1	0.00329726999996183	1	63	NA	213.958763087	0	0.26	3.93	1	211.957341655	211.960638925	"12"	955.990345557	862.030567131	1.5	0.1
0.01	1	0.117469985999946	1	63	NA	213.958763087	0	0.26	3.93	1	212.190992701	212.308462687	"12"	955.990345557	862.030567131	1.5	0.1
0.01	1	0.103436643999999	1	63	NA	213.958763087	0	0.26	3.93	1	212.54163298	212.645069624	"12"	955.990345557	862.030567131	1.5	0.1
0.01	1	0.00332284000000982	1	63	NA	213.958763087	0	0.26	3.93	1	212.875528843	212.878851683	"12"	955.990345557	862.030567131	1.5	0.1
0.01	1	0.0640977580000026	1	63	NA	213.958763087	0	0.26	3.93	1	213.109197675	213.173295433	"12"	955.990345557	862.030567131	1.5	0.1
0.01	1	0.0918573410000363	1	63	NA	213.958763087	0	0.26	3.93	1	213.409758453	213.501615794	"12"	955.990345557	862.030567131	1.5	0.1
0.01	1	0.230341295000017	2	63	NA	213.958763087	0	0.26	3.93	1	213.726875965	213.95721726	"12"	955.990345557	862.030567131	1.5	0.1
0.01	1	0.00326939400008541	1	54	228.588916167	NA	1	0	3.93	1	216.014081597	216.017350991	"13"	955.990345557	862.030567131	1.5	0.1
0.01	1	0.076512192999985	1	54	228.588916167	NA	1	0	3.93	1	216.247848577	216.32436077	"13"	955.990345557	862.030567131	1.5	0.1
0.01	1	0.0041418270000122	1	54	228.588916167	NA	1	0	3.93	1	216.548268163	216.55240999	"13"	955.990345557	862.030567131	1.5	0.1
0.01	1	0.0037625659999776	1	54	228.588916167	NA	1	0	3.93	1	216.782055825	216.785818391	"13"	955.990345557	862.030567131	1.5	0.1
0.01	1	0.00362632600001689	1	54	228.588916167	NA	1	0	3.93	1	217.015696637	217.019322963	"13"	955.990345557	862.030567131	1.5	0.1
0.01	1	0.0035885810000309	1	54	228.588916167	NA	1	0	3.93	1	217.249522412	217.253110993	"13"	955.990345557	862.030567131	1.5	0.1
0.01	1	0.00446411400002944	1	54	228.588916167	NA	1	0	3.93	1	217.483235118	217.487699232	"13"	955.990345557	862.030567131	1.5	0.1
0.01	1	0.00434742499999174	1	54	228.588916167	NA	1	0	3.93	1	217.716934765	217.72128219	"13"	955.990345557	862.030567131	1.5	0.1
0.01	1	0.00421060899998338	1	54	228.588916167	NA	1	0	3.93	1	217.950683741	217.95489435	"13"	955.990345557	862.030567131	1.5	0.1
0.01	1	0.00351457700003266	1	54	228.588916167	NA	1	0	3.93	1	218.184382832	218.187897409	"13"	955.990345557	862.030567131	1.5	0.1
0.01	1	0.00451665000002777	1	54	228.588916167	NA	1	0	3.93	1	218.41816495	218.4226816	"13"	955.990345557	862.030567131	1.5	0.1
0.01	1	0.00391627500005143	1	54	228.588916167	NA	1	0	3.93	1	218.65183817	218.655754445	"13"	955.990345557	862.030567131	1.5	0.1
0.01	1	0.00452543500000502	1	54	228.588916167	NA	1	0	3.93	1	218.885657215	218.89018265	"13"	955.990345557	862.030567131	1.5	0.1
0.01	1	0.00392625099993893	1	54	228.588916167	NA	1	0	3.93	1	219.11932878	219.123255031	"13"	955.990345557	862.030567131	1.5	0.1
0.01	1	0.00376180700004625	1	54	228.588916167	NA	1	0	3.93	1	219.35296639	219.356728197	"13"	955.990345557	862.030567131	1.5	0.1
0.01	1	0.0041413220000095	1	54	228.588916167	NA	1	0	3.93	1	219.586992715	219.591134037	"13"	955.990345557	862.030567131	1.5	0.1
0.01	1	0.00379197300003398	1	54	228.588916167	NA	1	0	3.93	1	219.820501722	219.824293695	"13"	955.990345557	862.030567131	1.5	0.1
0.01	1	0.00385125699995115	1	54	228.588916167	NA	1	0	3.93	1	220.054140402	220.057991659	"13"	955.990345557	862.030567131	1.5	0.1
0.01	1	0.00333316600006128	1	54	228.588916167	NA	1	0	3.93	1	220.288014697	220.291347863	"13"	955.990345557	862.030567131	1.5	0.1
0.01	1	0.00341976499998964	1	54	228.588916167	NA	1	0	3.93	1	220.521658282	220.525078047	"13"	955.990345557	862.030567131	1.5	0.1
0.01	1	0.00459666999995534	1	54	228.588916167	NA	1	0	3.93	1	220.75548947	220.76008614	"13"	955.990345557	862.030567131	1.5	0.1
0.01	1	0.00393206499995813	1	54	228.588916167	NA	1	0	3.93	1	220.98907897	220.993011035	"13"	955.990345557	862.030567131	1.5	0.1
0.01	1	0.00359938500002954	1	54	228.588916167	NA	1	0	3.93	1	221.22286709	221.226466475	"13"	955.990345557	862.030567131	1.5	0.1
0.01	1	0.00353213200003211	1	54	228.588916167	NA	1	0	3.93	1	221.456623015	221.460155147	"13"	955.990345557	862.030567131	1.5	0.1
0.01	1	0.00364318999993429	1	54	228.588916167	NA	1	0	3.93	1	221.690254597	221.693897787	"13"	955.990345557	862.030567131	1.5	0.1
0.01	1	0.00451296500000353	1	54	228.588916167	NA	1	0	3.93	1	221.924198225	221.92871119	"13"	955.990345557	862.030567131	1.5	0.1
0.01	1	0.00382797099996424	1	54	228.588916167	NA	1	0	3.93	1	222.157778922	222.161606893	"13"	955.990345557	862.030567131	1.5	0.1
0.01	1	0.00341654700002891	1	54	228.588916167	NA	1	0	3.93	1	222.3915522	222.394968747	"13"	955.990345557	862.030567131	1.5	0.1
0.01	1	0.00373227000000043	1	54	228.588916167	NA	1	0	3.93	1	222.625218077	222.628950347	"13"	955.990345557	862.030567131	1.5	0.1
0.01	1	0.00394532100006018	1	54	228.588916167	NA	1	0	3.93	1	222.85884445	222.862789771	"13"	955.990345557	862.030567131	1.5	0.1
0.01	1	0.00364877900005922	1	54	228.588916167	NA	1	0	3.93	1	223.09271574	223.096364519	"13"	955.990345557	862.030567131	1.5	0.1
0.01	1	0.00393067899995003	1	54	228.588916167	NA	1	0	3.93	1	223.32646709	223.330397769	"13"	955.990345557	862.030567131	1.5	0.1
0.01	1	0.00338335399999323	1	54	228.588916167	NA	1	0	3.93	1	223.560154295	223.563537649	"13"	955.990345557	862.030567131	1.5	0.1
0.01	1	0.00377558700006375	1	54	228.588916167	NA	1	0	3.93	1	223.793878642	223.797654229	"13"	955.990345557	862.030567131	1.5	0.1
0.01	1	0.00394746499989651	1	54	228.588916167	NA	1	0	3.93	1	224.02749417	224.031441635	"13"	955.990345557	862.030567131	1.5	0.1
0.01	1	0.00382880999995905	1	54	228.588916167	NA	1	0	3.93	1	224.261292545	224.265121355	"13"	955.990345557	862.030567131	1.5	0.1
0.01	1	0.0038759400000572	1	54	228.588916167	NA	1	0	3.93	1	224.495058097	224.498934037	"13"	955.990345557	862.030567131	1.5	0.1
0.01	1	0.00371271199992407	1	54	228.588916167	NA	1	0	3.93	1	224.728689105	224.732401817	"13"	955.990345557	862.030567131	1.5	0.1
0.01	1	0.00370856199992886	1	54	228.588916167	NA	1	0	3.93	1	224.962392717	224.966101279	"13"	955.990345557	862.030567131	1.5	0.1
0.01	1	0.00376517699999113	1	54	228.588916167	NA	1	0	3.93	1	225.19618243	225.199947607	"13"	955.990345557	862.030567131	1.5	0.1
0.01	1	0.00385517100005472	1	54	228.588916167	NA	1	0	3.93	1	225.42992526	225.433780431	"13"	955.990345557	862.030567131	1.5	0.1
0.01	1	0.00396341900000152	1	54	228.588916167	NA	1	0	3.93	1	225.66359874	225.667562159	"13"	955.990345557	862.030567131	1.5	0.1
0.01	1	0.00364869299994552	1	54	228.588916167	NA	1	0	3.93	1	225.89735097	225.900999663	"13"	955.990345557	862.030567131	1.5	0.1
0.01	1	0.00390185599997039	1	54	228.588916167	NA	1	0	3.93	1	226.131192677	226.135094533	"13"	955.990345557	862.030567131	1.5	0.1
0.01	1	0.00389947200005736	1	54	228.588916167	NA	1	0	3.93	1	226.364855497	226.368754969	"13"	955.990345557	862.030567131	1.5	0.1
0.01	1	0.00380415499989795	1	54	228.588916167	NA	1	0	3.93	1	226.598580872	226.602385027	"13"	955.990345557	862.030567131	1.5	0.1
0.01	1	0.00340688500000397	1	54	228.588916167	NA	1	0	3.93	1	226.832291392	226.835698277	"13"	955.990345557	862.030567131	1.5	0.1
0.01	1	0.00372936899998422	1	54	228.588916167	NA	1	0	3.93	1	227.066030022	227.069759391	"13"	955.990345557	862.030567131	1.5	0.1
0.01	1	0.00385108600005424	1	54	228.588916167	NA	1	0	3.93	1	227.299758605	227.303609691	"13"	955.990345557	862.030567131	1.5	0.1
0.01	1	0.00352896000003966	1	54	228.588916167	NA	1	0	3.93	1	227.533397055	227.536926015	"13"	955.990345557	862.030567131	1.5	0.1
0.01	1	0.00387909799997033	1	54	228.588916167	NA	1	0	3.93	1	227.767219275	227.771098373	"13"	955.990345557	862.030567131	1.5	0.1
0.01	1	0.00386607200005074	1	54	228.588916167	NA	1	0	3.93	1	228.000878975	228.004745047	"13"	955.990345557	862.030567131	1.5	0.1
0.01	1	0.00384965199998533	1	54	228.588916167	NA	1	0	3.93	1	228.234660735	228.238510387	"13"	955.990345557	862.030567131	1.5	0.1
0.01	1	0.00391162600010375	1	54	228.588916167	NA	1	0	3.93	1	228.468377855	228.472289481	"13"	955.990345557	862.030567131	1.5	0.1
0.01	1	0.00460265999993226	1	103	NA	241.022468639	0	0.42	4.35	1	230.63870756	230.64331022	"14"	955.990345557	862.030567131	1.5	0.1
0.01	1	0.00378154699990318	1	103	NA	241.022468639	0	0.42	4.35	1	230.872449012	230.876230559	"14"	955.990345557	862.030567131	1.5	0.1
0.01	1	0.00379862200009029	1	103	NA	241.022468639	0	0.42	4.35	1	231.106129165	231.109927787	"14"	955.990345557	862.030567131	1.5	0.1
0.01	1	0.00425111599997763	1	103	NA	241.022468639	0	0.42	4.35	1	231.339849841	231.344100957	"14"	955.990345557	862.030567131	1.5	0.1
0.01	1	0.00371939799993015	1	103	NA	241.022468639	0	0.42	4.35	1	231.573573157	231.577292555	"14"	955.990345557	862.030567131	1.5	0.1
0.01	1	0.00368709800000033	1	103	NA	241.022468639	0	0.42	4.35	1	231.807332255	231.811019353	"14"	955.990345557	862.030567131	1.5	0.1
0.01	1	0.00450379799997336	1	103	NA	241.022468639	0	0.42	4.35	1	232.041036947	232.045540745	"14"	955.990345557	862.030567131	1.5	0.1
0.01	1	0.00445522799998344	1	103	NA	241.022468639	0	0.42	4.35	1	232.274747284	232.279202512	"14"	955.990345557	862.030567131	1.5	0.1
0.01	1	0.00377554299996063	1	103	NA	241.022468639	0	0.42	4.35	1	232.508523832	232.512299375	"14"	955.990345557	862.030567131	1.5	0.1
0.01	1	0.0033210980000149	1	103	NA	241.022468639	0	0.42	4.35	1	232.742234755	232.745555853	"14"	955.990345557	862.030567131	1.5	0.1
0.01	1	0.0037893300000178	1	103	NA	241.022468639	0	0.42	4.35	1	232.975958155	232.979747485	"14"	955.990345557	862.030567131	1.5	0.1
0.01	1	0.00435273099992628	1	103	NA	241.022468639	0	0.42	4.35	1	233.209662981	233.214015712	"14"	955.990345557	862.030567131	1.5	0.1
0.01	1	0.00391070299997409	1	103	NA	241.022468639	0	0.42	4.35	1	233.44346396	233.447374663	"14"	955.990345557	862.030567131	1.5	0.1
0.01	1	0.00388917999998739	1	103	NA	241.022468639	0	0.42	4.35	1	233.677176997	233.681066177	"14"	955.990345557	862.030567131	1.5	0.1
0.01	1	0.00361982000003991	1	103	NA	241.022468639	0	0.42	4.35	1	233.910850235	233.914470055	"14"	955.990345557	862.030567131	1.5	0.1
0.01	1	0.0034717040000487	1	103	NA	241.022468639	0	0.42	4.35	1	234.144629365	234.148101069	"14"	955.990345557	862.030567131	1.5	0.1
0.01	1	0.00378085299996656	1	103	NA	241.022468639	0	0.42	4.35	1	234.37827288	234.382053733	"14"	955.990345557	862.030567131	1.5	0.1
0.01	1	0.00384051100002125	1	103	NA	241.022468639	0	0.42	4.35	1	234.61198848	234.615828991	"14"	955.990345557	862.030567131	1.5	0.1
0.01	1	0.00390048500003104	1	103	NA	241.022468639	0	0.42	4.35	1	234.845818992	234.849719477	"14"	955.990345557	862.030567131	1.5	0.1
0.01	1	0.00377381400005561	1	103	NA	241.022468639	0	0.42	4.35	1	235.079460135	235.083233949	"14"	955.990345557	862.030567131	1.5	0.1
0.01	1	0.00384448900001644	1	103	NA	241.022468639	0	0.42	4.35	1	235.31315254	235.316997029	"14"	955.990345557	862.030567131	1.5	0.1
0.01	1	0.00375591900001382	1	103	NA	241.022468639	0	0.42	4.35	1	235.54700093	235.550756849	"14"	955.990345557	862.030567131	1.5	0.1
0.01	1	0.00458407500002522	1	103	NA	241.022468639	0	0.42	4.35	1	235.780662615	235.78524669	"14"	955.990345557	862.030567131	1.5	0.1
0.01	1	0.00330046599992784	1	103	NA	241.022468639	0	0.42	4.35	1	236.014425745	236.017726211	"14"	955.990345557	862.030567131	1.5	0.1
0.01	1	0.00399132600000485	1	103	NA	241.022468639	0	0.42	4.35	1	236.248171405	236.252162731	"14"	955.990345557	862.030567131	1.5	0.1
0.01	1	0.00378815099998064	1	103	NA	241.022468639	0	0.42	4.35	1	236.48186159	236.485649741	"14"	955.990345557	862.030567131	1.5	0.1
0.01	1	0.00454777499999182	1	103	NA	241.022468639	0	0.42	4.35	1	236.715564435	236.72011221	"14"	955.990345557	862.030567131	1.5	0.1
0.01	1	0.00409930099999656	1	103	NA	241.022468639	0	0.42	4.35	1	236.94926254	236.953361841	"14"	955.990345557	862.030567131	1.5	0.1
0.01	1	0.00359738800000287	1	103	NA	241.022468639	0	0.42	4.35	1	237.182955197	237.186552585	"14"	955.990345557	862.030567131	1.5	0.1
0.01	1	0.00413940699991144	1	103	NA	241.022468639	0	0.42	4.35	1	237.416766288	237.420905695	"14"	955.990345557	862.030567131	1.5	0.1
0.01	1	0.0039454290000549	1	103	NA	241.022468639	0	0.42	4.35	1	237.650561092	237.654506521	"14"	955.990345557	862.030567131	1.5	0.1
0.01	1	0.00459750999993958	1	103	NA	241.022468639	0	0.42	4.35	1	237.88427852	237.88887603	"14"	955.990345557	862.030567131	1.5	0.1
0.01	1	0.00318687799995132	1	103	NA	241.022468639	0	0.42	4.35	1	238.117989409	238.121176287	"14"	955.990345557	862.030567131	1.5	0.1
0.01	1	0.00363151500005188	1	103	NA	241.022468639	0	0.42	4.35	1	238.351591592	238.355223107	"14"	955.990345557	862.030567131	1.5	0.1
0.01	1	0.00392314600003374	1	103	NA	241.022468639	0	0.42	4.35	1	238.585357725	238.589280871	"14"	955.990345557	862.030567131	1.5	0.1
0.01	1	0.00394696899991231	1	103	NA	241.022468639	0	0.42	4.35	1	238.81905947	238.823006439	"14"	955.990345557	862.030567131	1.5	0.1
0.01	1	0.359792040000002	1	103	NA	241.022468639	0	0.42	4.35	1	239.05280577	239.41259781	"14"	955.990345557	862.030567131	1.5	0.1
0.01	1	0.00451397699998779	1	103	NA	241.022468639	0	0.42	4.35	1	239.637176895	239.641690872	"14"	955.990345557	862.030567131	1.5	0.1
0.01	1	0.00389381200000116	1	103	NA	241.022468639	0	0.42	4.35	1	239.870871037	239.874764849	"14"	955.990345557	862.030567131	1.5	0.1
0.01	1	0.00345620299992788	1	103	NA	241.022468639	0	0.42	4.35	1	240.104588212	240.108044415	"14"	955.990345557	862.030567131	1.5	0.1
0.01	1	0.00341495199995734	1	103	NA	241.022468639	0	0.42	4.35	1	240.338391447	240.341806399	"14"	955.990345557	862.030567131	1.5	0.1
0.01	1	0.00395736999996643	1	103	NA	241.022468639	0	0.42	4.35	1	240.572023057	240.575980427	"14"	955.990345557	862.030567131	1.5	0.1
0.01	1	0.215075834000004	2	103	NA	241.022468639	0	0.42	4.35	1	240.805855015	241.020930849	"14"	955.990345557	862.030567131	1.5	0.1
0.01	1	0.00331005500004267	1	120	NA	252.550040373	0	0.39	4.74	1	243.059592782	243.062902837	"15"	955.990345557	862.030567131	1.5	0.1
0.01	1	0.00355685700003505	1	120	NA	252.550040373	0	0.39	4.74	1	243.29330498	243.296861837	"15"	955.990345557	862.030567131	1.5	0.1
0.01	1	0.00398099100004856	1	120	NA	252.550040373	0	0.39	4.74	1	243.527009742	243.530990733	"15"	955.990345557	862.030567131	1.5	0.1
0.01	1	0.00381711099998938	1	120	NA	252.550040373	0	0.39	4.74	1	243.76077862	243.764595731	"15"	955.990345557	862.030567131	1.5	0.1
0.01	1	0.00387519299999894	1	120	NA	252.550040373	0	0.39	4.74	1	243.994406232	243.998281425	"15"	955.990345557	862.030567131	1.5	0.1
0.01	1	0.00337823899997147	1	120	NA	252.550040373	0	0.39	4.74	1	244.228279042	244.231657281	"15"	955.990345557	862.030567131	1.5	0.1
0.01	1	0.00359900500006916	1	120	NA	252.550040373	0	0.39	4.74	1	244.46196931	244.465568315	"15"	955.990345557	862.030567131	1.5	0.1
0.01	1	0.00375692000000072	1	120	NA	252.550040373	0	0.39	4.74	1	244.695732035	244.699488955	"15"	955.990345557	862.030567131	1.5	0.1
0.01	1	0.00379343800000242	1	120	NA	252.550040373	0	0.39	4.74	1	244.929408715	244.933202153	"15"	955.990345557	862.030567131	1.5	0.1
0.01	1	0.00268712199999754	1	120	NA	252.550040373	0	0.39	4.74	1	245.163159305	245.165846427	"15"	955.990345557	862.030567131	1.5	0.1
0.01	1	0.00351435100003528	1	120	NA	252.550040373	0	0.39	4.74	1	245.396819522	245.400333873	"15"	955.990345557	862.030567131	1.5	0.1
0.01	1	0.00393061600004785	1	120	NA	252.550040373	0	0.39	4.74	1	245.630601737	245.634532353	"15"	955.990345557	862.030567131	1.5	0.1
0.01	1	0.00374252999995406	1	120	NA	252.550040373	0	0.39	4.74	1	245.864361805	245.868104335	"15"	955.990345557	862.030567131	1.5	0.1
0.01	1	0.00385494800002562	1	120	NA	252.550040373	0	0.39	4.74	1	246.098087895	246.101942843	"15"	955.990345557	862.030567131	1.5	0.1
0.01	1	0.00391113299997414	1	120	NA	252.550040373	0	0.39	4.74	1	246.331857512	246.335768645	"15"	955.990345557	862.030567131	1.5	0.1
0.01	1	0.00363051200008613	1	120	NA	252.550040373	0	0.39	4.74	1	246.565449157	246.569079669	"15"	955.990345557	862.030567131	1.5	0.1
0.01	1	0.0039560809999557	1	120	NA	252.550040373	0	0.39	4.74	1	246.799141152	246.803097233	"15"	955.990345557	862.030567131	1.5	0.1
0.01	1	0.00375900999995338	1	120	NA	252.550040373	0	0.39	4.74	1	247.032915255	247.036674265	"15"	955.990345557	862.030567131	1.5	0.1
0.01	1	0.00385979400004999	1	120	NA	252.550040373	0	0.39	4.74	1	247.266669517	247.270529311	"15"	955.990345557	862.030567131	1.5	0.1
0.01	1	0.00322630400000889	1	120	NA	252.550040373	0	0.39	4.74	1	247.500315925	247.503542229	"15"	955.990345557	862.030567131	1.5	0.1
0.01	1	0.00355927499992958	1	120	NA	252.550040373	0	0.39	4.74	1	247.734109242	247.737668517	"15"	955.990345557	862.030567131	1.5	0.1
0.01	1	0.00464102500006902	1	120	NA	252.550040373	0	0.39	4.74	1	247.96795147	247.972592495	"15"	955.990345557	862.030567131	1.5	0.1
0.01	1	0.00449800000001233	1	120	NA	252.550040373	0	0.39	4.74	1	248.201691715	248.206189715	"15"	955.990345557	862.030567131	1.5	0.1
0.01	1	0.00382865200003835	1	120	NA	252.550040373	0	0.39	4.74	1	248.435228965	248.439057617	"15"	955.990345557	862.030567131	1.5	0.1
0.01	1	0.00368432799996299	1	120	NA	252.550040373	0	0.39	4.74	1	248.669047975	248.672732303	"15"	955.990345557	862.030567131	1.5	0.1
0.01	1	0.00383034499998303	1	120	NA	252.550040373	0	0.39	4.74	1	248.90269028	248.906520625	"15"	955.990345557	862.030567131	1.5	0.1
0.01	1	0.00453450500003783	1	120	NA	252.550040373	0	0.39	4.74	1	249.136466155	249.14100066	"15"	955.990345557	862.030567131	1.5	0.1
0.01	1	0.00391874700005701	1	120	NA	252.550040373	0	0.39	4.74	1	249.370151612	249.374070359	"15"	955.990345557	862.030567131	1.5	0.1
0.01	1	0.00334181699997771	1	120	NA	252.550040373	0	0.39	4.74	1	249.603920142	249.607261959	"15"	955.990345557	862.030567131	1.5	0.1
0.01	1	0.00460707000002003	1	120	NA	252.550040373	0	0.39	4.74	1	249.837714665	249.842321735	"15"	955.990345557	862.030567131	1.5	0.1
0.01	1	0.00389482299999599	1	120	NA	252.550040373	0	0.39	4.74	1	250.0713557	250.075250523	"15"	955.990345557	862.030567131	1.5	0.1
0.01	1	0.00383168300004399	1	120	NA	252.550040373	0	0.39	4.74	1	250.305093782	250.308925465	"15"	955.990345557	862.030567131	1.5	0.1
0.01	1	0.00389655500009667	1	120	NA	252.550040373	0	0.39	4.74	1	250.538798802	250.542695357	"15"	955.990345557	862.030567131	1.5	0.1
0.01	1	0.00345861399989644	1	120	NA	252.550040373	0	0.39	4.74	1	250.772614625	250.776073239	"15"	955.990345557	862.030567131	1.5	0.1
0.01	1	0.00396560499996212	1	120	NA	252.550040373	0	0.39	4.74	1	251.006271732	251.010237337	"15"	955.990345557	862.030567131	1.5	0.1
0.01	1	0.00393381499998213	1	120	NA	252.550040373	0	0.39	4.74	1	251.239966242	251.243900057	"15"	955.990345557	862.030567131	1.5	0.1
0.01	1	0.003703767999923	1	120	NA	252.550040373	0	0.39	4.74	1	251.473787405	251.477491173	"15"	955.990345557	862.030567131	1.5	0.1
0.01	1	0.00396139100007531	1	120	NA	252.550040373	0	0.39	4.74	1	251.70744066	251.711402051	"15"	955.990345557	862.030567131	1.5	0.1
0.01	1	0.00360759499994856	1	120	NA	252.550040373	0	0.39	4.74	1	251.94118731	251.944794905	"15"	955.990345557	862.030567131	1.5	0.1
0.01	1	0.373669920999987	2	120	NA	252.550040373	0	0.39	4.74	1	252.174828562	252.548498483	"15"	955.990345557	862.030567131	1.5	0.1
0.01	1	0.145319402000041	1	109	NA	267.045990399	0	0.48	5.22	1	254.595583025	254.740902427	"16"	955.990345557	862.030567131	1.5	0.1
0.01	1	0.00359799800003202	1	109	NA	267.045990399	0	0.48	5.22	1	254.979579445	254.983177443	"16"	955.990345557	862.030567131	1.5	0.1
0.01	1	0.00389699400000154	1	109	NA	267.045990399	0	0.48	5.22	1	255.213329917	255.217226911	"16"	955.990345557	862.030567131	1.5	0.1
0.01	1	0.00349054800005888	1	109	NA	267.045990399	0	0.48	5.22	1	255.447130925	255.450621473	"16"	955.990345557	862.030567131	1.5	0.1
0.01	1	0.00389126299990039	1	109	NA	267.045990399	0	0.48	5.22	1	255.68081273	255.684703993	"16"	955.990345557	862.030567131	1.5	0.1
0.01	1	0.00381258300001264	1	109	NA	267.045990399	0	0.48	5.22	1	255.914528222	255.918340805	"16"	955.990345557	862.030567131	1.5	0.1
0.01	1	0.00385378900000433	1	109	NA	267.045990399	0	0.48	5.22	1	256.14820367	256.152057459	"16"	955.990345557	862.030567131	1.5	0.1
0.01	1	0.00369529499994314	1	109	NA	267.045990399	0	0.48	5.22	1	256.38200742	256.385702715	"16"	955.990345557	862.030567131	1.5	0.1
0.01	1	0.00394324499995946	1	109	NA	267.045990399	0	0.48	5.22	1	256.615754462	256.619697707	"16"	955.990345557	862.030567131	1.5	0.1
0.01	1	0.00361429700001281	1	109	NA	267.045990399	0	0.48	5.22	1	256.849466582	256.853080879	"16"	955.990345557	862.030567131	1.5	0.1
0.01	1	0.00445910500002356	1	109	NA	267.045990399	0	0.48	5.22	1	257.083286865	257.08774597	"16"	955.990345557	862.030567131	1.5	0.1
0.01	1	0.0038961449999988	1	109	NA	267.045990399	0	0.48	5.22	1	257.31685718	257.320753325	"16"	955.990345557	862.030567131	1.5	0.1
0.01	1	0.00336658399999124	1	109	NA	267.045990399	0	0.48	5.22	1	257.550654895	257.554021479	"16"	955.990345557	862.030567131	1.5	0.1
0.01	1	0.00455657700001666	1	109	NA	267.045990399	0	0.48	5.22	1	257.784458945	257.789015522	"16"	955.990345557	862.030567131	1.5	0.1
0.01	1	0.00377426599993669	1	109	NA	267.045990399	0	0.48	5.22	1	258.018000137	258.021774403	"16"	955.990345557	862.030567131	1.5	0.1
0.01	1	0.00396336400001474	1	109	NA	267.045990399	0	0.48	5.22	1	258.251771017	258.255734381	"16"	955.990345557	862.030567131	1.5	0.1
0.01	1	0.004537785000025	1	109	NA	267.045990399	0	0.48	5.22	1	258.485556845	258.49009463	"16"	955.990345557	862.030567131	1.5	0.1
0.01	1	0.00384910000002492	1	109	NA	267.045990399	0	0.48	5.22	1	258.719252985	258.723102085	"16"	955.990345557	862.030567131	1.5	0.1
0.01	1	0.00381775300002118	1	109	NA	267.045990399	0	0.48	5.22	1	258.95293751	258.956755263	"16"	955.990345557	862.030567131	1.5	0.1
0.01	1	0.00397337399999742	1	109	NA	267.045990399	0	0.48	5.22	1	259.186708765	259.190682139	"16"	955.990345557	862.030567131	1.5	0.1
0.01	1	0.00339891900000566	1	109	NA	267.045990399	0	0.48	5.22	1	259.42044202	259.423840939	"16"	955.990345557	862.030567131	1.5	0.1
0.01	1	0.00389299000005394	1	109	NA	267.045990399	0	0.48	5.22	1	259.654152135	259.658045125	"16"	955.990345557	862.030567131	1.5	0.1
0.01	1	0.00329348799994023	1	109	NA	267.045990399	0	0.48	5.22	1	259.887828865	259.891122353	"16"	955.990345557	862.030567131	1.5	0.1
0.01	1	0.00395596500004558	1	109	NA	267.045990399	0	0.48	5.22	1	260.12164478	260.125600745	"16"	955.990345557	862.030567131	1.5	0.1
0.01	1	0.0038993919999939	1	109	NA	267.045990399	0	0.48	5.22	1	260.355323595	260.359222987	"16"	955.990345557	862.030567131	1.5	0.1
0.01	1	0.00377417100003186	1	109	NA	267.045990399	0	0.48	5.22	1	260.589067172	260.592841343	"16"	955.990345557	862.030567131	1.5	0.1
0.01	1	0.00386562699998194	1	109	NA	267.045990399	0	0.48	5.22	1	260.822860922	260.826726549	"16"	955.990345557	862.030567131	1.5	0.1
0.01	1	0.00344651099999282	1	109	NA	267.045990399	0	0.48	5.22	1	261.05655156	261.059998071	"16"	955.990345557	862.030567131	1.5	0.1
0.01	1	0.00398330999996688	1	109	NA	267.045990399	0	0.48	5.22	1	261.290224125	261.294207435	"16"	955.990345557	862.030567131	1.5	0.1
0.01	1	0.00435107399994195	1	109	NA	267.045990399	0	0.48	5.22	1	261.524034998	261.528386072	"16"	955.990345557	862.030567131	1.5	0.1
0.01	1	0.00364072000002125	1	109	NA	267.045990399	0	0.48	5.22	1	261.757697485	261.761338205	"16"	955.990345557	862.030567131	1.5	0.1
0.01	1	0.00390763300003982	1	109	NA	267.045990399	0	0.48	5.22	1	261.99136034	261.995267973	"16"	955.990345557	862.030567131	1.5	0.1
0.01	1	0.00335068200001842	1	109	NA	267.045990399	0	0.48	5.22	1	262.225111757	262.228462439	"16"	955.990345557	862.030567131	1.5	0.1
0.01	1	0.00384593100000075	1	109	NA	267.045990399	0	0.48	5.22	1	262.458897172	262.462743103	"16"	955.990345557	862.030567131	1.5	0.1
0.01	1	0.00370237100003123	1	109	NA	267.045990399	0	0.48	5.22	1	262.692594362	262.696296733	"16"	955.990345557	862.030567131	1.5	0.1
0.01	1	0.00380858900007297	1	109	NA	267.045990399	0	0.48	5.22	1	262.926321422	262.930130011	"16"	955.990345557	862.030567131	1.5	0.1
0.01	1	0.453641090000019	1	109	NA	267.045990399	0	0.48	5.22	1	263.159947832	263.613588922	"16"	955.990345557	862.030567131	1.5	0.1
0.01	1	0.00304291800000556	1	109	NA	267.045990399	0	0.48	5.22	1	263.844541791	263.847584709	"16"	955.990345557	862.030567131	1.5	0.1
0.01	1	0.0038719609999589	1	109	NA	267.045990399	0	0.48	5.22	1	264.078333312	264.082205273	"16"	955.990345557	862.030567131	1.5	0.1
0.01	1	0.0680358550000619	1	109	NA	267.045990399	0	0.48	5.22	1	264.311968485	264.38000434	"16"	955.990345557	862.030567131	1.5	0.1
0.01	1	0.00450290200001291	1	109	NA	267.045990399	0	0.48	5.22	1	264.612563173	264.617066075	"16"	955.990345557	862.030567131	1.5	0.1
0.01	1	0.0792913160000808	1	109	NA	267.045990399	0	0.48	5.22	1	264.846275205	264.925566521	"16"	955.990345557	862.030567131	1.5	0.1
0.01	1	0.0892030710000427	1	109	NA	267.045990399	0	0.48	5.22	1	265.163327093	265.252530164	"16"	955.990345557	862.030567131	1.5	0.1
0.01	1	0.0044174040000371	1	109	NA	267.045990399	0	0.48	5.22	1	265.480563965	265.484981369	"16"	955.990345557	862.030567131	1.5	0.1
0.01	1	0.0667883230000825	1	109	NA	267.045990399	0	0.48	5.22	1	265.714364017	265.78115234	"16"	955.990345557	862.030567131	1.5	0.1
0.01	1	0.0943865350000124	1	109	NA	267.045990399	0	0.48	5.22	1	266.01491118	266.109297715	"16"	955.990345557	862.030567131	1.5	0.1
0.01	1	0.00400978200002555	1	109	NA	267.045990399	0	0.48	5.22	1	266.331992675	266.336002457	"16"	955.990345557	862.030567131	1.5	0.1
0.01	1	0.00375826200001939	1	109	NA	267.045990399	0	0.48	5.22	1	266.565764685	266.569522947	"16"	955.990345557	862.030567131	1.5	0.1
0.01	1	0.244891396000071	2	109	NA	267.045990399	0	0.48	5.22	1	266.799581345	267.044472741	"16"	955.990345557	862.030567131	1.5	0.1
0.01	1	0.205789204999974	1	71	NA	284.853900665	0	0.52	5.74	1	269.10344708	269.309236285	"17"	955.990345557	862.030567131	1.5	0.1
0.01	1	0.00403180600005726	1	71	NA	284.853900665	0	0.52	5.74	1	269.537484597	269.541516403	"17"	955.990345557	862.030567131	1.5	0.1
0.01	1	0.00403604199993879	1	71	NA	284.853900665	0	0.52	5.74	1	269.77118056	269.775216602	"17"	955.990345557	862.030567131	1.5	0.1
0.01	1	0.00335219400005826	1	71	NA	284.853900665	0	0.52	5.74	1	270.004896177	270.008248371	"17"	955.990345557	862.030567131	1.5	0.1
0.01	1	0.00366175899989685	1	71	NA	284.853900665	0	0.52	5.74	1	270.238606682	270.242268441	"17"	955.990345557	862.030567131	1.5	0.1
0.01	1	0.00390636999998151	1	71	NA	284.853900665	0	0.52	5.74	1	270.472274105	270.476180475	"17"	955.990345557	862.030567131	1.5	0.1
0.01	1	0.00378996900008133	1	71	NA	284.853900665	0	0.52	5.74	1	270.70599851	270.709788479	"17"	955.990345557	862.030567131	1.5	0.1
0.01	1	0.00406457400004001	1	71	NA	284.853900665	0	0.52	5.74	1	270.939797901	270.943862475	"17"	955.990345557	862.030567131	1.5	0.1
0.01	1	0.00325041399992188	1	71	NA	284.853900665	0	0.52	5.74	1	271.173587607	271.176838021	"17"	955.990345557	862.030567131	1.5	0.1
0.01	1	0.00351901600004112	1	71	NA	284.853900665	0	0.52	5.74	1	271.407245695	271.410764711	"17"	955.990345557	862.030567131	1.5	0.1
0.01	1	0.00450303999991775	1	71	NA	284.853900665	0	0.52	5.74	1	271.64100787	271.64551091	"17"	955.990345557	862.030567131	1.5	0.1
0.01	1	0.00461673200004498	1	71	NA	284.853900665	0	0.52	5.74	1	271.87465416	271.879270892	"17"	955.990345557	862.030567131	1.5	0.1
0.01	1	0.00455089199999748	1	71	NA	284.853900665	0	0.52	5.74	1	272.108479885	272.113030777	"17"	955.990345557	862.030567131	1.5	0.1
0.01	1	0.00369514899989554	1	71	NA	284.853900665	0	0.52	5.74	1	272.34214528	272.345840429	"17"	955.990345557	862.030567131	1.5	0.1
0.01	1	0.00451925999993819	1	71	NA	284.853900665	0	0.52	5.74	1	272.57600244	272.5805217	"17"	955.990345557	862.030567131	1.5	0.1
0.01	1	0.00387613600003078	1	71	NA	284.853900665	0	0.52	5.74	1	272.809575775	272.813451911	"17"	955.990345557	862.030567131	1.5	0.1
0.01	1	0.00311758200007262	1	71	NA	284.853900665	0	0.52	5.74	1	273.043381223	273.046498805	"17"	955.990345557	862.030567131	1.5	0.1
0.01	1	0.00217700799998966	1	71	NA	284.853900665	0	0.52	5.74	1	273.277114175	273.279291183	"17"	955.990345557	862.030567131	1.5	0.1
0.01	1	0.0036180309999736	1	71	NA	284.853900665	0	0.52	5.74	1	273.510764112	273.514382143	"17"	955.990345557	862.030567131	1.5	0.1
