"payoff.level"	"balloon"	"rt"	"resp"	"explode.trial"	"explode.time"	"finish.time"	"exploded"	"trial.total"	"cumulative.total"	"finished"	"trial.start"	"trial.end"	"trial.num"	"secs"	"start.time"	"iti"	"isi"
0.01	1	4.06643909000559	1	64	NA	37.2163668430003	0	0.15	0.15	1	0.0120246490114368	4.07846373901702	"1"	185970.596666287	185948.770375381	1.5	0.1
0.01	1	2.94681568301166	1	64	NA	37.2163668430003	0	0.15	0.15	1	4.45209268899634	7.39890837200801	"1"	185970.596666287	185948.770375381	1.5	0.1
0.01	1	1.59673674602527	1	64	NA	37.2163668430003	0	0.15	0.15	1	7.64079320098972	9.23752994701499	"1"	185970.596666287	185948.770375381	1.5	0.1
0.01	1	1.19277372802026	1	64	NA	37.2163668430003	0	0.15	0.15	1	9.46048782099388	10.6532615490141	"1"	185970.596666287	185948.770375381	1.5	0.1
0.01	1	1.15820781100774	1	64	NA	37.2163668430003	0	0.15	0.15	1	10.8796247339924	12.0378325450001	"1"	185970.596666287	185948.770375381	1.5	0.1
0.01	1	1.66105021699332	1	64	NA	37.2163668430003	0	0.15	0.15	1	12.2652613040118	13.9263115210051	"1"	185970.596666287	185948.770375381	1.5	0.1
0.01	1	3.95892899300088	1	64	NA	37.2163668430003	0	0.15	0.15	1	14.1517203510157	18.1106493440166	"1"	185970.596666287	185948.770375381	1.5	0.1
0.01	1	0.865063220000593	1	64	NA	37.2163668430003	0	0.15	0.15	1	18.3421013760089	19.2071645960095	"1"	185970.596666287	185948.770375381	1.5	0.1
0.01	1	0.457311203994323	1	64	NA	37.2163668430003	0	0.15	0.15	1	19.4440028310055	19.9013140349998	"1"	185970.596666287	185948.770375381	1.5	0.1
0.01	1	0.486080492992187	1	64	NA	37.2163668430003	0	0.15	0.15	1	20.1283982190071	20.6144787119993	"1"	185970.596666287	185948.770375381	1.5	0.1
0.01	1	5.11236558898236	1	64	NA	37.2163668430003	0	0.15	0.15	1	20.8463098170178	25.9586754060001	"1"	185970.596666287	185948.770375381	1.5	0.1
0.01	1	1.2254369680013	1	64	NA	37.2163668430003	0	0.15	0.15	1	26.188613344013	27.4140503120143	"1"	185970.596666287	185948.770375381	1.5	0.1
0.01	1	1.59782382901176	1	64	NA	37.2163668430003	0	0.15	0.15	1	27.6411718890013	29.238995718013	"1"	185970.596666287	185948.770375381	1.5	0.1
0.01	1	0.718899591010995	1	64	NA	37.2163668430003	0	0.15	0.15	1	29.4775567559991	30.1964563470101	"1"	185970.596666287	185948.770375381	1.5	0.1
0.01	1	0.34541657299269	1	64	NA	37.2163668430003	0	0.15	0.15	1	30.4290877690073	30.774504342	"1"	185970.596666287	185948.770375381	1.5	0.1
0.01	1	6.21803069999442	2	64	NA	37.2163668430003	0	0.15	0.15	1	30.9966969340167	37.2147276340111	"1"	185970.596666287	185948.770375381	1.5	0.1
0.01	1	0.88166107199504	1	102	NA	76.1755367339938	0	0.35	0.5	1	39.2606753240107	40.1423363960057	"2"	185970.596666287	185948.770375381	1.5	0.1
0.01	1	0.330644992005546	1	102	NA	76.1755367339938	0	0.35	0.5	1	40.3791612790083	40.7098062710138	"2"	185970.596666287	185948.770375381	1.5	0.1
0.01	1	0.275662054977147	1	102	NA	76.1755367339938	0	0.35	0.5	1	40.9468173340138	41.2224793889909	"2"	185970.596666287	185948.770375381	1.5	0.1
0.01	1	0.246320136997383	1	102	NA	76.1755367339938	0	0.35	0.5	1	41.4476154640142	41.6939356010116	"2"	185970.596666287	185948.770375381	1.5	0.1
0.01	1	0.226464107021457	1	102	NA	76.1755367339938	0	0.35	0.5	1	41.9318788319943	42.1583429390157	"2"	185970.596666287	185948.770375381	1.5	0.1
0.01	1	0.263039126992226	1	102	NA	76.1755367339938	0	0.35	0.5	1	42.3826191090047	42.645658235997	"2"	185970.596666287	185948.770375381	1.5	0.1
0.01	1	0.226349051983561	1	102	NA	76.1755367339938	0	0.35	0.5	1	42.8834802010097	43.1098292529932	"2"	185970.596666287	185948.770375381	1.5	0.1
0.01	1	0.223294185008854	1	102	NA	76.1755367339938	0	0.35	0.5	1	43.3510159770085	43.5743101620174	"2"	185970.596666287	185948.770375381	1.5	0.1
0.01	1	0.260997889999999	1	102	NA	76.1755367339938	0	0.35	0.5	1	43.8016611839994	44.0626590739994	"2"	185970.596666287	185948.770375381	1.5	0.1
0.01	1	0.273229142010678	1	102	NA	76.1755367339938	0	0.35	0.5	1	44.2857809459965	44.5590100880072	"2"	185970.596666287	185948.770375381	1.5	0.1
0.01	1	0.251939959009178	1	102	NA	76.1755367339938	0	0.35	0.5	1	44.7866540240066	45.0385939830157	"2"	185970.596666287	185948.770375381	1.5	0.1
0.01	1	0.263770935998764	1	102	NA	76.1755367339938	0	0.35	0.5	1	45.2707873140171	45.5345582500158	"2"	185970.596666287	185948.770375381	1.5	0.1
0.01	1	0.265605880005751	1	102	NA	76.1755367339938	0	0.35	0.5	1	45.7716268310032	46.037232711009	"2"	185970.596666287	185948.770375381	1.5	0.1
0.01	1	0.301251240016427	1	102	NA	76.1755367339938	0	0.35	0.5	1	46.2725155189983	46.5737667590147	"2"	185970.596666287	185948.770375381	1.5	0.1
0.01	1	0.454645616991911	1	102	NA	76.1755367339938	0	0.35	0.5	1	46.8069059890113	47.2615516060032	"2"	185970.596666287	185948.770375381	1.5	0.1
0.01	1	0.77096925600199	1	102	NA	76.1755367339938	0	0.35	0.5	1	47.4911523490155	48.2621216050175	"2"	185970.596666287	185948.770375381	1.5	0.1
0.01	1	0.498359299992444	1	102	NA	76.1755367339938	0	0.35	0.5	1	48.4929008489999	48.9912601489923	"2"	185970.596666287	185948.770375381	1.5	0.1
0.01	1	0.347983846004354	1	102	NA	76.1755367339938	0	0.35	0.5	1	49.2274250960036	49.5754089420079	"2"	185970.596666287	185948.770375381	1.5	0.1
0.01	1	0.451278585998807	1	102	NA	76.1755367339938	0	0.35	0.5	1	49.8117313960101	50.263009982009	"2"	185970.596666287	185948.770375381	1.5	0.1
0.01	1	0.677341416012496	1	102	NA	76.1755367339938	0	0.35	0.5	1	50.4962718189927	51.1736132350052	"2"	185970.596666287	185948.770375381	1.5	0.1
0.01	1	2.38553085501189	1	102	NA	76.1755367339938	0	0.35	0.5	1	51.3978417500039	53.7833726050158	"2"	185970.596666287	185948.770375381	1.5	0.1
0.01	1	1.30022357898997	1	102	NA	76.1755367339938	0	0.35	0.5	1	54.0188679760031	55.3190915549931	"2"	185970.596666287	185948.770375381	1.5	0.1
0.01	1	0.676059359015198	1	102	NA	76.1755367339938	0	0.35	0.5	1	55.5548664329981	56.2309257920133	"2"	185970.596666287	185948.770375381	1.5	0.1
0.01	1	0.454770574986469	1	102	NA	76.1755367339938	0	0.35	0.5	1	56.4561940040148	56.9109645790013	"2"	185970.596666287	185948.770375381	1.5	0.1
0.01	1	0.38512693499797	1	102	NA	76.1755367339938	0	0.35	0.5	1	57.1408446540008	57.5259715889988	"2"	185970.596666287	185948.770375381	1.5	0.1
0.01	1	1.33616220997646	1	102	NA	76.1755367339938	0	0.35	0.5	1	57.7583953110152	59.0945575209917	"2"	185970.596666287	185948.770375381	1.5	0.1
0.01	1	0.310553696996067	1	102	NA	76.1755367339938	0	0.35	0.5	1	59.3277825690166	59.6383362660126	"2"	185970.596666287	185948.770375381	1.5	0.1
0.01	1	0.295381789997919	1	102	NA	76.1755367339938	0	0.35	0.5	1	59.8620494840143	60.1574312740122	"2"	185970.596666287	185948.770375381	1.5	0.1
0.01	1	0.31488206499489	1	102	NA	76.1755367339938	0	0.35	0.5	1	60.3795475740044	60.6944296389993	"2"	185970.596666287	185948.770375381	1.5	0.1
0.01	1	0.371456365013728	1	102	NA	76.1755367339938	0	0.35	0.5	1	60.9305565840041	61.3020129490178	"2"	185970.596666287	185948.770375381	1.5	0.1
0.01	1	3.09144016099162	1	102	NA	76.1755367339938	0	0.35	0.5	1	61.5314481040114	64.622888265003	"2"	185970.596666287	185948.770375381	1.5	0.1
0.01	1	3.45690297900001	1	102	NA	76.1755367339938	0	0.35	0.5	1	64.8537616190151	68.3106645980151	"2"	185970.596666287	185948.770375381	1.5	0.1
0.01	1	1.44663970801048	1	102	NA	76.1755367339938	0	0.35	0.5	1	68.5432631139993	69.9899028220098	"2"	185970.596666287	185948.770375381	1.5	0.1
0.01	1	0.650291844998719	1	102	NA	76.1755367339938	0	0.35	0.5	1	70.2127493540174	70.8630411990162	"2"	185970.596666287	185948.770375381	1.5	0.1
0.01	1	0.284605677996296	1	102	NA	76.1755367339938	0	0.35	0.5	1	71.0975479090121	71.3821535870084	"2"	185970.596666287	185948.770375381	1.5	0.1
0.01	1	4.55878987000324	2	102	NA	76.1755367339938	0	0.35	0.5	1	71.6150549589947	76.173844828998	"2"	185970.596666287	185948.770375381	1.5	0.1
0.01	1	0.835372870002175	1	97	NA	114.839476398018	0	0.5	1	1	78.2262224389997	79.0615953090019	"3"	185970.596666287	185948.770375381	1.5	0.1
0.01	1	0.272273670008872	1	97	NA	114.839476398018	0	0.5	1	1	79.2946557489922	79.5669294190011	"3"	185970.596666287	185948.770375381	1.5	0.1
0.01	1	0.178518553002505	1	97	NA	114.839476398018	0	0.5	1	1	79.7955383209919	79.9740568739944	"3"	185970.596666287	185948.770375381	1.5	0.1
0.01	1	0.266074951010523	1	97	NA	114.839476398018	0	0.5	1	1	80.19620389599	80.4622788470006	"3"	185970.596666287	185948.770375381	1.5	0.1
0.01	1	0.261199194996152	1	97	NA	114.839476398018	0	0.5	1	1	80.6971538790094	80.9583530740056	"3"	185970.596666287	185948.770375381	1.5	0.1
0.01	1	0.281802195997443	1	97	NA	114.839476398018	0	0.5	1	1	81.1812133089988	81.4630155049963	"3"	185970.596666287	185948.770375381	1.5	0.1
0.01	1	0.25085299499915	1	97	NA	114.839476398018	0	0.5	1	1	81.6988282460079	81.9496812410071	"3"	185970.596666287	185948.770375381	1.5	0.1
0.01	1	0.262671233998844	1	97	NA	114.839476398018	0	0.5	1	1	82.1828736310126	82.4455448650115	"3"	185970.596666287	185948.770375381	1.5	0.1
0.01	1	0.290282231988385	1	97	NA	114.839476398018	0	0.5	1	1	82.6837311240088	82.9740133559972	"3"	185970.596666287	185948.770375381	1.5	0.1
0.01	1	0.30187220100197	1	97	NA	114.839476398018	0	0.5	1	1	83.2013041810133	83.5031763820152	"3"	185970.596666287	185948.770375381	1.5	0.1
0.01	1	0.263345801999094	1	97	NA	114.839476398018	0	0.5	1	1	83.7355176010169	83.998863403016	"3"	185970.596666287	185948.770375381	1.5	0.1
0.01	1	0.289318872994045	1	97	NA	114.839476398018	0	0.5	1	1	84.2363896190072	84.5257084920013	"3"	185970.596666287	185948.770375381	1.5	0.1
0.01	1	0.245390800992027	1	97	NA	114.839476398018	0	0.5	1	1	84.7539613590052	84.9993521599972	"3"	185970.596666287	185948.770375381	1.5	0.1
0.01	1	0.280947074992582	1	97	NA	114.839476398018	0	0.5	1	1	85.2380733340106	85.5190204090031	"3"	185970.596666287	185948.770375381	1.5	0.1
0.01	1	0.275563089002389	1	97	NA	114.839476398018	0	0.5	1	1	85.7555415809911	86.0311046699935	"3"	185970.596666287	185948.770375381	1.5	0.1
0.01	1	0.27707317302702	1	97	NA	114.839476398018	0	0.5	1	1	86.2564918439894	86.5335650170164	"3"	185970.596666287	185948.770375381	1.5	0.1
0.01	1	0.280308390996652	1	97	NA	114.839476398018	0	0.5	1	1	86.7572069010057	87.0375152920024	"3"	185970.596666287	185948.770375381	1.5	0.1
0.01	1	0.282596311997622	1	97	NA	114.839476398018	0	0.5	1	1	87.2748764110147	87.5574727230123	"3"	185970.596666287	185948.770375381	1.5	0.1
0.01	1	0.29436625901144	1	97	NA	114.839476398018	0	0.5	1	1	87.7923034440028	88.0866697030142	"3"	185970.596666287	185948.770375381	1.5	0.1
0.01	1	0.231652237998787	1	97	NA	114.839476398018	0	0.5	1	1	88.3265475209919	88.5581997589907	"3"	185970.596666287	185948.770375381	1.5	0.1
0.01	1	0.795896319992607	1	97	NA	114.839476398018	0	0.5	1	1	88.7940443789994	89.589940698992	"3"	185970.596666287	185948.770375381	1.5	0.1
0.01	1	0.30519875799655	1	97	NA	114.839476398018	0	0.5	1	1	89.812358404015	90.1175571620115	"3"	185970.596666287	185948.770375381	1.5	0.1
0.01	1	0.259611362998839	1	97	NA	114.839476398018	0	0.5	1	1	90.3466967490094	90.6063081120083	"3"	185970.596666287	185948.770375381	1.5	0.1
0.01	1	0.280359288997715	1	97	NA	114.839476398018	0	0.5	1	1	90.8307747940125	91.1111340830103	"3"	185970.596666287	185948.770375381	1.5	0.1
0.01	1	0.297427492012503	1	97	NA	114.839476398018	0	0.5	1	1	91.3482690039964	91.6456964960089	"3"	185970.596666287	185948.770375381	1.5	0.1
0.01	1	0.243655636004405	1	97	NA	114.839476398018	0	0.5	1	1	91.8825555240037	92.1262111600081	"3"	185970.596666287	185948.770375381	1.5	0.1
0.01	1	0.320922627026448	1	97	NA	114.839476398018	0	0.5	1	1	92.3500737689901	92.6709963960166	"3"	185970.596666287	185948.770375381	1.5	0.1
0.01	1	0.266352275008103	1	97	NA	114.839476398018	0	0.5	1	1	92.9009595309908	93.1673118059989	"3"	185970.596666287	185948.770375381	1.5	0.1
0.01	1	0.284490679012379	1	97	NA	114.839476398018	0	0.5	1	1	93.4019014239893	93.6863921030017	"3"	185970.596666287	185948.770375381	1.5	0.1
0.01	1	0.278100557014113	1	97	NA	114.839476398018	0	0.5	1	1	93.919343290996	94.1974438480102	"3"	185970.596666287	185948.770375381	1.5	0.1
0.01	1	1.22591195299174	1	97	NA	114.839476398018	0	0.5	1	1	94.4368180560123	95.662730009004	"3"	185970.596666287	185948.770375381	1.5	0.1
0.01	1	0.372564546007197	1	97	NA	114.839476398018	0	0.5	1	1	95.8892343140033	96.2617988600105	"3"	185970.596666287	185948.770375381	1.5	0.1
0.01	1	0.331077804992674	1	97	NA	114.839476398018	0	0.5	1	1	96.4903450440033	96.821422848996	"3"	185970.596666287	185948.770375381	1.5	0.1
0.01	1	0.404908766999142	1	97	NA	114.839476398018	0	0.5	1	1	97.0579626609979	97.462871427997	"3"	185970.596666287	185948.770375381	1.5	0.1
0.01	1	0.41893646097742	1	97	NA	114.839476398018	0	0.5	1	1	97.692323404015	98.1112598649925	"3"	185970.596666287	185948.770375381	1.5	0.1
0.01	1	0.519663957995363	1	97	NA	114.839476398018	0	0.5	1	1	98.3434969359951	98.8631608939904	"3"	185970.596666287	185948.770375381	1.5	0.1
0.01	1	0.448381146998145	1	97	NA	114.839476398018	0	0.5	1	1	99.0947135809984	99.5430947279965	"3"	185970.596666287	185948.770375381	1.5	0.1
0.01	1	0.498204942006851	1	97	NA	114.839476398018	0	0.5	1	1	99.7792269540078	100.277431896015	"3"	185970.596666287	185948.770375381	1.5	0.1
0.01	1	0.507833592011593	1	97	NA	114.839476398018	0	0.5	1	1	100.513779264002	101.021612856013	"3"	185970.596666287	185948.770375381	1.5	0.1
0.01	1	0.494377805996919	1	97	NA	114.839476398018	0	0.5	1	1	101.248397121002	101.742774926999	"3"	185970.596666287	185948.770375381	1.5	0.1
0.01	1	1.12795687100152	1	97	NA	114.839476398018	0	0.5	1	1	101.966158421012	103.094115292013	"3"	185970.596666287	185948.770375381	1.5	0.1
0.01	1	0.456719998997869	1	97	NA	114.839476398018	0	0.5	1	1	103.318473599007	103.775193598005	"3"	185970.596666287	185948.770375381	1.5	0.1
0.01	1	0.419603985996218	1	97	NA	114.839476398018	0	0.5	1	1	104.002954436	104.422558421997	"3"	185970.596666287	185948.770375381	1.5	0.1
0.01	1	0.408862639975268	1	97	NA	114.839476398018	0	0.5	1	1	104.654160619015	105.06302325899	"3"	185970.596666287	185948.770375381	1.5	0.1
0.01	1	0.397409508004785	1	97	NA	114.839476398018	0	0.5	1	1	105.288468734012	105.685878242017	"3"	185970.596666287	185948.770375381	1.5	0.1
0.01	1	0.332131183997262	1	97	NA	114.839476398018	0	0.5	1	1	105.922842124011	106.254973308009	"3"	185970.596666287	185948.770375381	1.5	0.1
0.01	1	0.347757282987004	1	97	NA	114.839476398018	0	0.5	1	1	106.490665751015	106.838423034002	"3"	185970.596666287	185948.770375381	1.5	0.1
0.01	1	0.410511493013473	1	97	NA	114.839476398018	0	0.5	1	1	107.074808948993	107.485320442007	"3"	185970.596666287	185948.770375381	1.5	0.1
0.01	1	0.40013147200807	1	97	NA	114.839476398018	0	0.5	1	1	107.709118744009	108.109250216017	"3"	185970.596666287	185948.770375381	1.5	0.1
0.01	1	0.351162998005748	1	97	NA	114.839476398018	0	0.5	1	1	108.34353947101	108.694702469016	"3"	185970.596666287	185948.770375381	1.5	0.1
0.01	1	5.90996108198306	2	97	NA	114.839476398018	0	0.5	1	1	108.927947209013	114.837908290996	"3"	185970.596666287	185948.770375381	1.5	0.1
0.01	1	1.37002485099947	1	51	138.297107688995	NA	1	0	1	1	116.891339883994	118.261364734994	"4"	185970.596666287	185948.770375381	1.5	0.1
0.01	1	0.0401674119930249	1	51	138.297107688995	NA	1	0	1	1	118.494062659011	118.534230071004	"4"	185970.596666287	185948.770375381	1.5	0.1
0.01	1	0.29334993698285	1	51	138.297107688995	NA	1	0	1	1	118.761104664009	119.054454600991	"4"	185970.596666287	185948.770375381	1.5	0.1
0.01	1	0.176723512995522	1	51	138.297107688995	NA	1	0	1	1	119.278624749015	119.45534826201	"4"	185970.596666287	185948.770375381	1.5	0.1
0.01	1	0.150074630015297	1	51	138.297107688995	NA	1	0	1	1	119.679358655994	119.82943328601	"4"	185970.596666287	185948.770375381	1.5	0.1
0.01	1	0.150587181997253	1	51	138.297107688995	NA	1	0	1	1	120.063366234011	120.213953416009	"4"	185970.596666287	185948.770375381	1.5	0.1
0.01	1	0.15081937800278	1	51	138.297107688995	NA	1	0	1	1	120.447270798992	120.598090176994	"4"	185970.596666287	185948.770375381	1.5	0.1
0.01	1	0.175693230004981	1	51	138.297107688995	NA	1	0	1	1	120.831395376008	121.007088606013	"4"	185970.596666287	185948.770375381	1.5	0.1
0.01	1	0.213781111990102	1	51	138.297107688995	NA	1	0	1	1	121.231856564002	121.445637675992	"4"	185970.596666287	185948.770375381	1.5	0.1
0.01	1	0.131675062992144	1	51	138.297107688995	NA	1	0	1	1	121.682705329004	121.814380391996	"4"	185970.596666287	185948.770375381	1.5	0.1
0.01	1	1.10905990502215	1	51	138.297107688995	NA	1	0	1	1	122.049964253994	123.159024159017	"4"	185970.596666287	185948.770375381	1.5	0.1
0.01	1	0.0924501489789691	1	51	138.297107688995	NA	1	0	1	1	123.385591299011	123.47804144799	"4"	185970.596666287	185948.770375381	1.5	0.1
0.01	1	0.0633568250050303	1	51	138.297107688995	NA	1	0	1	1	123.702968936006	123.766325761011	"4"	185970.596666287	185948.770375381	1.5	0.1
0.01	1	0.0194747780042235	1	51	138.297107688995	NA	1	0	1	1	124.003233441006	124.02270821901	"4"	185970.596666287	185948.770375381	1.5	0.1
0.01	1	0.0498265000060201	1	51	138.297107688995	NA	1	0	1	1	124.253690284007	124.303516784013	"4"	185970.596666287	185948.770375381	1.5	0.1
0.01	1	0.0613726759911515	1	51	138.297107688995	NA	1	0	1	1	124.537506811001	124.598879486992	"4"	185970.596666287	185948.770375381	1.5	0.1
0.01	1	0.0490378880058415	1	51	138.297107688995	NA	1	0	1	1	124.837953729002	124.886991617008	"4"	185970.596666287	185948.770375381	1.5	0.1
0.01	1	0.0834030070109293	1	51	138.297107688995	NA	1	0	1	1	125.12189143899	125.205294446001	"4"	185970.596666287	185948.770375381	1.5	0.1
0.01	1	0.0542983339983039	1	51	138.297107688995	NA	1	0	1	1	125.439073048998	125.493371382996	"4"	185970.596666287	185948.770375381	1.5	0.1
0.01	1	0.0758289950026665	1	51	138.297107688995	NA	1	0	1	1	125.722889899014	125.798718894017	"4"	185970.596666287	185948.770375381	1.5	0.1
0.01	1	0.110579755011713	1	51	138.297107688995	NA	1	0	1	1	126.023295513995	126.133875269006	"4"	185970.596666287	185948.770375381	1.5	0.1
0.01	1	0.0577086140110623	1	51	138.297107688995	NA	1	0	1	1	126.357197353995	126.414905968006	"4"	185970.596666287	185948.770375381	1.5	0.1
0.01	1	0.0854763310053386	1	51	138.297107688995	NA	1	0	1	1	126.641139421001	126.726615752006	"4"	185970.596666287	185948.770375381	1.5	0.1
0.01	1	0.0474584890180267	1	51	138.297107688995	NA	1	0	1	1	126.958276902995	127.005735392013	"4"	185970.596666287	185948.770375381	1.5	0.1
0.01	1	0.0611665390024427	1	51	138.297107688995	NA	1	0	1	1	127.242098407005	127.303264946007	"4"	185970.596666287	185948.770375381	1.5	0.1
0.01	1	0.0485248790064361	1	51	138.297107688995	NA	1	0	1	1	127.52582906399	127.574353942997	"4"	185970.596666287	185948.770375381	1.5	0.1
0.01	1	0.0438290930178482	1	51	138.297107688995	NA	1	0	1	1	127.809723398997	127.853552492015	"4"	185970.596666287	185948.770375381	1.5	0.1
0.01	1	0.0573779800033662	1	51	138.297107688995	NA	1	0	1	1	128.076715723	128.134093703004	"4"	185970.596666287	185948.770375381	1.5	0.1
0.01	1	0.0452945920114871	1	51	138.297107688995	NA	1	0	1	1	128.360598858999	128.40589345101	"4"	185970.596666287	185948.770375381	1.5	0.1
0.01	1	0.0666119539819192	1	51	138.297107688995	NA	1	0	1	1	128.644417444011	128.711029397993	"4"	185970.596666287	185948.770375381	1.5	0.1
0.01	1	0.101547918980941	1	51	138.297107688995	NA	1	0	1	1	128.94495125601	129.04649917499	"4"	185970.596666287	185948.770375381	1.5	0.1
0.01	1	0.0561651649768464	1	51	138.297107688995	NA	1	0	1	1	129.278848467016	129.335013631993	"4"	185970.596666287	185948.770375381	1.5	0.1
0.01	1	0.0679683920170646	1	51	138.297107688995	NA	1	0	1	1	129.562550400995	129.630518793012	"4"	185970.596666287	185948.770375381	1.5	0.1
0.01	1	0.0555835219856817	1	51	138.297107688995	NA	1	0	1	1	129.86309742101	129.918680942996	"4"	185970.596666287	185948.770375381	1.5	0.1
0.01	1	0.090989581978647	1	51	138.297107688995	NA	1	0	1	1	130.146869409014	130.237858990993	"4"	185970.596666287	185948.770375381	1.5	0.1
0.01	1	0.0544758320029359	1	51	138.297107688995	NA	1	0	1	1	130.464128694002	130.518604526005	"4"	185970.596666287	185948.770375381	1.5	0.1
0.01	1	0.0258639940002467	1	51	138.297107688995	NA	1	0	1	1	130.748000849999	130.773864843999	"4"	185970.596666287	185948.770375381	1.5	0.1
0.01	1	0.0877380240126513	1	51	138.297107688995	NA	1	0	1	1	131.015044144006	131.102782168018	"4"	185970.596666287	185948.770375381	1.5	0.1
0.01	1	0.0738413719809614	1	51	138.297107688995	NA	1	0	1	1	131.332299769012	131.406141140993	"4"	185970.596666287	185948.770375381	1.5	0.1
0.01	1	0.109341614006553	1	51	138.297107688995	NA	1	0	1	1	131.632913373993	131.742254987999	"4"	185970.596666287	185948.770375381	1.5	0.1
0.01	1	0.0960374129936099	1	51	138.297107688995	NA	1	0	1	1	131.966707298998	132.062744711991	"4"	185970.596666287	185948.770375381	1.5	0.1
0.01	1	0.0660665710165631	1	51	138.297107688995	NA	1	0	1	1	132.283811873989	132.349878445006	"4"	185970.596666287	185948.770375381	1.5	0.1
0.01	1	0.0456047560146544	1	51	138.297107688995	NA	1	0	1	1	132.584322253999	132.629927010013	"4"	185970.596666287	185948.770375381	1.5	0.1
0.01	1	0.0578380170045421	1	51	138.297107688995	NA	1	0	1	1	132.851529234002	132.909367251006	"4"	185970.596666287	185948.770375381	1.5	0.1
0.01	1	0.07039173800149	1	51	138.297107688995	NA	1	0	1	1	133.135329470999	133.205721209	"4"	185970.596666287	185948.770375381	1.5	0.1
0.01	1	0.0508900349959731	1	51	138.297107688995	NA	1	0	1	1	133.435799694009	133.486689729005	"4"	185970.596666287	185948.770375381	1.5	0.1
0.01	1	0.0558391420054249	1	51	138.297107688995	NA	1	0	1	1	133.719609936001	133.775449078006	"4"	185970.596666287	185948.770375381	1.5	0.1
0.01	1	0.057740485004615	1	51	138.297107688995	NA	1	0	1	1	134.003512708994	134.061253193999	"4"	185970.596666287	185948.770375381	1.5	0.1
0.01	1	0.0711809200001881	1	51	138.297107688995	NA	1	0	1	1	134.287139819004	134.358320739004	"4"	185970.596666287	185948.770375381	1.5	0.1
0.01	1	0.0823687119991519	1	51	138.297107688995	NA	1	0	1	1	134.587791329017	134.670160041016	"4"	185970.596666287	185948.770375381	1.5	0.1
0.01	1	3.27745007100748	1	51	138.297107688995	NA	1	0	1	1	134.90495732901	138.182407400018	"4"	185970.596666287	185948.770375381	1.5	0.1
0.01	1	2.77021494900691	1	116	NA	160.512200666009	0	0.49	1.49	1	140.347409870999	143.117624820006	"5"	185970.596666287	185948.770375381	1.5	0.1
0.01	1	0.00327679998008534	1	116	NA	160.512200666009	0	0.49	1.49	1	143.352416678012	143.355693477992	"5"	185970.596666287	185948.770375381	1.5	0.1
0.01	1	0.403624562983168	1	116	NA	160.512200666009	0	0.49	1.49	1	143.586219709017	143.989844272	"5"	185970.596666287	185948.770375381	1.5	0.1
0.01	1	0.256842101982329	1	116	NA	160.512200666009	0	0.49	1.49	1	144.220716684009	144.477558785991	"5"	185970.596666287	185948.770375381	1.5	0.1
0.01	1	0.237809177982854	1	116	NA	160.512200666009	0	0.49	1.49	1	144.704855356016	144.942664533999	"5"	185970.596666287	185948.770375381	1.5	0.1
0.01	1	0.241561458009528	1	116	NA	160.512200666009	0	0.49	1.49	1	145.172252894001	145.41381435201	"5"	185970.596666287	185948.770375381	1.5	0.1
0.01	1	0.270995089987991	1	116	NA	160.512200666009	0	0.49	1.49	1	145.639731064002	145.91072615399	"5"	185970.596666287	185948.770375381	1.5	0.1
0.01	1	0.242749975994229	1	116	NA	160.512200666009	0	0.49	1.49	1	146.140577481012	146.383327457006	"5"	185970.596666287	185948.770375381	1.5	0.1
0.01	1	0.237080988008529	1	116	NA	160.512200666009	0	0.49	1.49	1	146.624666913995	146.861747902003	"5"	185970.596666287	185948.770375381	1.5	0.1
0.01	1	0.234328222984914	1	116	NA	160.512200666009	0	0.49	1.49	1	147.092089689017	147.326417912001	"5"	185970.596666287	185948.770375381	1.5	0.1
0.01	1	0.335442384006456	1	116	NA	160.512200666009	0	0.49	1.49	1	147.559638264007	147.895080648013	"5"	185970.596666287	185948.770375381	1.5	0.1
0.01	1	0.174702708987752	1	116	NA	160.512200666009	0	0.49	1.49	1	148.127148571017	148.301851280004	"5"	185970.596666287	185948.770375381	1.5	0.1
0.01	1	0.0946519910066854	1	116	NA	160.512200666009	0	0.49	1.49	1	148.527905889001	148.622557880008	"5"	185970.596666287	185948.770375381	1.5	0.1
0.01	1	0.0898438019794412	1	116	NA	160.512200666009	0	0.49	1.49	1	148.845100794017	148.934944595996	"5"	185970.596666287	185948.770375381	1.5	0.1
0.01	1	0.0760900139866862	1	116	NA	160.512200666009	0	0.49	1.49	1	149.162284599006	149.238374612993	"5"	185970.596666287	185948.770375381	1.5	0.1
0.01	1	0.0706183779984713	1	116	NA	160.512200666009	0	0.49	1.49	1	149.462860314001	149.533478691999	"5"	185970.596666287	185948.770375381	1.5	0.1
0.01	1	0.0679360539943445	1	116	NA	160.512200666009	0	0.49	1.49	1	149.763226598996	149.83116265299	"5"	185970.596666287	185948.770375381	1.5	0.1
0.01	1	0.0232460260158405	1	116	NA	160.512200666009	0	0.49	1.49	1	150.063695844001	150.086941870017	"5"	185970.596666287	185948.770375381	1.5	0.1
0.01	1	0.0672506389964838	1	116	NA	160.512200666009	0	0.49	1.49	1	150.314264206012	150.381514845008	"5"	185970.596666287	185948.770375381	1.5	0.1
0.01	1	0.0471000910038128	1	116	NA	160.512200666009	0	0.49	1.49	1	150.614658970997	150.661759062001	"5"	185970.596666287	185948.770375381	1.5	0.1
0.01	1	0.0517403690028004	1	116	NA	160.512200666009	0	0.49	1.49	1	150.898521919007	150.95026228801	"5"	185970.596666287	185948.770375381	1.5	0.1
0.01	1	0.0568615079973824	1	116	NA	160.512200666009	0	0.49	1.49	1	151.182414331008	151.239275839005	"5"	185970.596666287	185948.770375381	1.5	0.1
0.01	1	0.0921927129966207	1	116	NA	160.512200666009	0	0.49	1.49	1	151.466124931001	151.558317643998	"5"	185970.596666287	185948.770375381	1.5	0.1
0.01	1	0.0627271590055898	1	116	NA	160.512200666009	0	0.49	1.49	1	151.783362271002	151.846089430008	"5"	185970.596666287	185948.770375381	1.5	0.1
0.01	1	0.0428245600196533	1	116	NA	160.512200666009	0	0.49	1.49	1	152.083838310995	152.126662871015	"5"	185970.596666287	185948.770375381	1.5	0.1
0.01	1	0.0623686489998363	1	116	NA	160.512200666009	0	0.49	1.49	1	152.350944010017	152.413312659017	"5"	185970.596666287	185948.770375381	1.5	0.1
0.01	1	0.035784275009064	1	116	NA	160.512200666009	0	0.49	1.49	1	152.651473678998	152.687257954007	"5"	185970.596666287	185948.770375381	1.5	0.1
0.01	1	0.0307567630079575	1	116	NA	160.512200666009	0	0.49	1.49	1	152.91862271601	152.949379479018	"5"	185970.596666287	185948.770375381	1.5	0.1
0.01	1	0.0604641050158534	1	116	NA	160.512200666009	0	0.49	1.49	1	153.185658303992	153.246122409008	"5"	185970.596666287	185948.770375381	1.5	0.1
0.01	1	0.0642218610155396	1	116	NA	160.512200666009	0	0.49	1.49	1	153.469454920996	153.533676782012	"5"	185970.596666287	185948.770375381	1.5	0.1
0.01	1	0.0609730569995008	1	116	NA	160.512200666009	0	0.49	1.49	1	153.770046349004	153.831019406003	"5"	185970.596666287	185948.770375381	1.5	0.1
0.01	1	0.0639877129870001	1	116	NA	160.512200666009	0	0.49	1.49	1	154.053854119004	154.117841831991	"5"	185970.596666287	185948.770375381	1.5	0.1
0.01	1	0.035482860985212	1	116	NA	160.512200666009	0	0.49	1.49	1	154.354298685008	154.389781545993	"5"	185970.596666287	185948.770375381	1.5	0.1
0.01	1	0.0573581240023486	1	116	NA	160.512200666009	0	0.49	1.49	1	154.621493454004	154.678851578006	"5"	185970.596666287	185948.770375381	1.5	0.1
0.01	1	0.0779035890009254	1	116	NA	160.512200666009	0	0.49	1.49	1	154.905267574009	154.98317116301	"5"	185970.596666287	185948.770375381	1.5	0.1
0.01	1	0.0557271919969935	1	116	NA	160.512200666009	0	0.49	1.49	1	155.205737373995	155.261464565992	"5"	185970.596666287	185948.770375381	1.5	0.1
0.01	1	0.0526799149811268	1	116	NA	160.512200666009	0	0.49	1.49	1	155.489687154011	155.542367068992	"5"	185970.596666287	185948.770375381	1.5	0.1
0.01	1	0.0487083740008529	1	116	NA	160.512200666009	0	0.49	1.49	1	155.773424414016	155.822132788016	"5"	185970.596666287	185948.770375381	1.5	0.1
0.01	1	0.0446169290225953	1	116	NA	160.512200666009	0	0.49	1.49	1	156.05725871399	156.101875643013	"5"	185970.596666287	185948.770375381	1.5	0.1
0.01	1	0.0502311759919394	1	116	NA	160.512200666009	0	0.49	1.49	1	156.324210484017	156.374441660009	"5"	185970.596666287	185948.770375381	1.5	0.1
0.01	1	0.133788936014753	1	116	NA	160.512200666009	0	0.49	1.49	1	156.608114759001	156.741903695016	"5"	185970.596666287	185948.770375381	1.5	0.1
0.01	1	0.0393783999898005	1	116	NA	160.512200666009	0	0.49	1.49	1	156.975493219012	157.014871619001	"5"	185970.596666287	185948.770375381	1.5	0.1
0.01	1	0.0597696299955714	1	116	NA	160.512200666009	0	0.49	1.49	1	157.242485999013	157.302255629009	"5"	185970.596666287	185948.770375381	1.5	0.1
0.01	1	0.0647853150148876	1	116	NA	160.512200666009	0	0.49	1.49	1	157.526377645991	157.591162961005	"5"	185970.596666287	185948.770375381	1.5	0.1
0.01	1	0.122831160988426	1	116	NA	160.512200666009	0	0.49	1.49	1	157.826950204006	157.949781364994	"5"	185970.596666287	185948.770375381	1.5	0.1
0.01	1	0.0766743610147387	1	116	NA	160.512200666009	0	0.49	1.49	1	158.177475748991	158.254150110006	"5"	185970.596666287	185948.770375381	1.5	0.1
0.01	1	0.0804774400021415	1	116	NA	160.512200666009	0	0.49	1.49	1	158.477919029014	158.558396469016	"5"	185970.596666287	185948.770375381	1.5	0.1
0.01	1	0.0345085060107522	1	116	NA	160.512200666009	0	0.49	1.49	1	158.79519745399	158.829705960001	"5"	185970.596666287	185948.770375381	1.5	0.1
0.01	1	0.040707192994887	1	116	NA	160.512200666009	0	0.49	1.49	1	159.062224110006	159.102931303001	"5"	185970.596666287	185948.770375381	1.5	0.1
0.01	1	1.18119493598351	2	116	NA	160.512200666009	0	0.49	1.49	1	159.32937221101	160.510567146994	"5"	185970.596666287	185948.770375381	1.5	0.1
0.01	1	0.749586938996799	1	118	NA	184.192554483016	0	0.5	1.99	1	162.568116504	163.317703442997	"6"	185970.596666287	185948.770375381	1.5	0.1
0.01	1	0.25304442999186	1	118	NA	184.192554483016	0	0.5	1.99	1	163.553115604009	163.806160034001	"6"	185970.596666287	185948.770375381	1.5	0.1
0.01	1	0.0501964039867744	1	118	NA	184.192554483016	0	0.5	1.99	1	164.037277619005	164.087474022992	"6"	185970.596666287	185948.770375381	1.5	0.1
0.01	1	0.117496900988044	1	118	NA	184.192554483016	0	0.5	1.99	1	164.321099399007	164.438596299995	"6"	185970.596666287	185948.770375381	1.5	0.1
0.01	1	0.102333348011598	1	118	NA	184.192554483016	0	0.5	1.99	1	164.671658173989	164.773991522001	"6"	185970.596666287	185948.770375381	1.5	0.1
0.01	1	0.129313311015721	1	118	NA	184.192554483016	0	0.5	1.99	1	165.00556696899	165.134880280006	"6"	185970.596666287	185948.770375381	1.5	0.1
0.01	1	0.130107078992296	1	118	NA	184.192554483016	0	0.5	1.99	1	165.372821604018	165.50292868301	"6"	185970.596666287	185948.770375381	1.5	0.1
0.01	1	0.0751630100130569	1	118	NA	184.192554483016	0	0.5	1.99	1	165.740113106003	165.815276116016	"6"	185970.596666287	185948.770375381	1.5	0.1
0.01	1	0.117516507016262	1	118	NA	184.192554483016	0	0.5	1.99	1	166.040623990993	166.15814049801	"6"	185970.596666287	185948.770375381	1.5	0.1
0.01	1	0.0949900300183799	1	118	NA	184.192554483016	0	0.5	1.99	1	166.391269079992	166.48625911001	"6"	185970.596666287	185948.770375381	1.5	0.1
0.01	1	0.14664989800076	1	118	NA	184.192554483016	0	0.5	1.99	1	166.708537191007	166.855187089008	"6"	185970.596666287	185948.770375381	1.5	0.1
0.01	1	0.0576273280021269	1	118	NA	184.192554483016	0	0.5	1.99	1	167.092416561005	167.150043889007	"6"	185970.596666287	185948.770375381	1.5	0.1
0.01	1	0.0936115340155084	1	118	NA	184.192554483016	0	0.5	1.99	1	167.376275499002	167.469887033018	"6"	185970.596666287	185948.770375381	1.5	0.1
0.01	1	0.0804778409947176	1	118	NA	184.192554483016	0	0.5	1.99	1	167.693456361012	167.773934202007	"6"	185970.596666287	185948.770375381	1.5	0.1
0.01	1	0.0686142969934735	1	118	NA	184.192554483016	0	0.5	1.99	1	168.010688514012	168.079302811006	"6"	185970.596666287	185948.770375381	1.5	0.1
0.01	1	0.103029817983042	1	118	NA	184.192554483016	0	0.5	1.99	1	168.311176696006	168.414206513989	"6"	185970.596666287	185948.770375381	1.5	0.1
0.01	1	0.0728356330073439	1	118	NA	184.192554483016	0	0.5	1.99	1	168.645018098992	168.717853732	"6"	185970.596666287	185948.770375381	1.5	0.1
0.01	1	0.0852484639908653	1	118	NA	184.192554483016	0	0.5	1.99	1	168.945546094008	169.030794557999	"6"	185970.596666287	185948.770375381	1.5	0.1
0.01	1	0.102741818001959	1	118	NA	184.192554483016	0	0.5	1.99	1	169.262697272992	169.365439090994	"6"	185970.596666287	185948.770375381	1.5	0.1
0.01	1	0.0892948139808141	1	118	NA	184.192554483016	0	0.5	1.99	1	169.596722629009	169.686017442989	"6"	185970.596666287	185948.770375381	1.5	0.1
0.01	1	0.245169798989082	1	118	NA	184.192554483016	0	0.5	1.99	1	169.913916524005	170.159086322994	"6"	185970.596666287	185948.770375381	1.5	0.1
0.01	1	0.16068689498934	1	118	NA	184.192554483016	0	0.5	1.99	1	170.381328966003	170.542015860992	"6"	185970.596666287	185948.770375381	1.5	0.1
0.01	1	0.16910930298036	1	118	NA	184.192554483016	0	0.5	1.99	1	170.765321859013	170.934431161993	"6"	185970.596666287	185948.770375381	1.5	0.1
0.01	1	0.0877356200071517	1	118	NA	184.192554483016	0	0.5	1.99	1	171.165898673993	171.253634294	"6"	185970.596666287	185948.770375381	1.5	0.1
0.01	1	0.114548676996492	1	118	NA	184.192554483016	0	0.5	1.99	1	171.483148311003	171.597696987999	"6"	185970.596666287	185948.770375381	1.5	0.1
0.01	1	0.108759506983915	1	118	NA	184.192554483016	0	0.5	1.99	1	171.833761704009	171.942521210993	"6"	185970.596666287	185948.770375381	1.5	0.1
0.01	1	0.102252684999257	1	118	NA	184.192554483016	0	0.5	1.99	1	172.167647444003	172.269900129002	"6"	185970.596666287	185948.770375381	1.5	0.1
0.01	1	0.0886180549860001	1	118	NA	184.192554483016	0	0.5	1.99	1	172.501513579016	172.590131634002	"6"	185970.596666287	185948.770375381	1.5	0.1
0.01	1	0.132225806999486	1	118	NA	184.192554483016	0	0.5	1.99	1	172.818658898992	172.950884705991	"6"	185970.596666287	185948.770375381	1.5	0.1
0.01	1	0.101119993982138	1	118	NA	184.192554483016	0	0.5	1.99	1	173.186056491017	173.287176484999	"6"	185970.596666287	185948.770375381	1.5	0.1
0.01	1	0.222498043993255	1	118	NA	184.192554483016	0	0.5	1.99	1	173.519989916007	173.74248796	"6"	185970.596666287	185948.770375381	1.5	0.1
0.01	1	0.259853168012341	1	118	NA	184.192554483016	0	0.5	1.99	1	173.970698468998	174.230551637011	"6"	185970.596666287	185948.770375381	1.5	0.1
0.01	1	0.232528570020804	1	118	NA	184.192554483016	0	0.5	1.99	1	174.454736868996	174.687265439017	"6"	185970.596666287	185948.770375381	1.5	0.1
0.01	1	0.260144540021429	1	118	NA	184.192554483016	0	0.5	1.99	1	174.922304548993	175.182449089014	"6"	185970.596666287	185948.770375381	1.5	0.1
0.01	1	0.294125860993518	1	118	NA	184.192554483016	0	0.5	1.99	1	175.423177699005	175.717303559999	"6"	185970.596666287	185948.770375381	1.5	0.1
0.01	1	0.249647277989425	1	118	NA	184.192554483016	0	0.5	1.99	1	175.940598643007	176.190245920996	"6"	185970.596666287	185948.770375381	1.5	0.1
0.01	1	0.308683047012892	1	118	NA	184.192554483016	0	0.5	1.99	1	176.424746395991	176.733429443004	"6"	185970.596666287	185948.770375381	1.5	0.1
0.01	1	0.238976141001331	1	118	NA	184.192554483016	0	0.5	1.99	1	176.959096058999	177.198072200001	"6"	185970.596666287	185948.770375381	1.5	0.1
0.01	1	0.244700304989237	1	118	NA	184.192554483016	0	0.5	1.99	1	177.426523724018	177.671224029007	"6"	185970.596666287	185948.770375381	1.5	0.1
0.01	1	0.265269278985215	1	118	NA	184.192554483016	0	0.5	1.99	1	177.893976849009	178.159246127994	"6"	185970.596666287	185948.770375381	1.5	0.1
0.01	1	0.25858714300557	1	118	NA	184.192554483016	0	0.5	1.99	1	178.394898374012	178.653485517018	"6"	185970.596666287	185948.770375381	1.5	0.1
0.01	1	0.270546499988995	1	118	NA	184.192554483016	0	0.5	1.99	1	178.879178214003	179.149724713992	"6"	185970.596666287	185948.770375381	1.5	0.1
0.01	1	0.306392566999421	1	118	NA	184.192554483016	0	0.5	1.99	1	179.379704301013	179.686096868012	"6"	185970.596666287	185948.770375381	1.5	0.1
0.01	1	0.00401115900604054	1	118	NA	184.192554483016	0	0.5	1.99	1	179.914031649008	179.918042808014	"6"	185970.596666287	185948.770375381	1.5	0.1
0.01	1	0.0672013740113471	1	118	NA	184.192554483016	0	0.5	1.99	1	180.147711233993	180.214912608004	"6"	185970.596666287	185948.770375381	1.5	0.1
0.01	1	0.454107333003776	1	118	NA	184.192554483016	0	0.5	1.99	1	180.448285641003	180.902392974007	"6"	185970.596666287	185948.770375381	1.5	0.1
0.01	1	0.362319717998616	1	118	NA	184.192554483016	0	0.5	1.99	1	181.132734440995	181.495054158993	"6"	185970.596666287	185948.770375381	1.5	0.1
0.01	1	0.336216558993328	1	118	NA	184.192554483016	0	0.5	1.99	1	181.733679621015	182.069896180008	"6"	185970.596666287	185948.770375381	1.5	0.1
0.01	1	0.305019755993271	1	118	NA	184.192554483016	0	0.5	1.99	1	182.301455433015	182.606475189008	"6"	185970.596666287	185948.770375381	1.5	0.1
0.01	1	0.273771686974214	1	118	NA	184.192554483016	0	0.5	1.99	1	182.835649453016	183.10942113999	"6"	185970.596666287	185948.770375381	1.5	0.1
0.01	1	0.854522582987556	2	118	NA	184.192554483016	0	0.5	1.99	1	183.336474319018	184.190996902005	"6"	185970.596666287	185948.770375381	1.5	0.1
0.01	1	2.3736424529925	1	87	NA	218.032382219011	0	0.5	2.49	1	186.241271481005	188.614913933998	"7"	185970.596666287	185948.770375381	1.5	0.1
0.01	1	0.0246430869738106	1	87	NA	218.032382219011	0	0.5	2.49	1	188.845723983017	188.870367069991	"7"	185970.596666287	185948.770375381	1.5	0.1
0.01	1	0.0785622700059321	1	87	NA	218.032382219011	0	0.5	2.49	1	189.096098915994	189.174661186	"7"	185970.596666287	185948.770375381	1.5	0.1
0.01	1	0.153380534989992	1	87	NA	218.032382219011	0	0.5	2.49	1	189.396609090007	189.549989624997	"7"	185970.596666287	185948.770375381	1.5	0.1
0.01	1	0.137914327002363	1	87	NA	218.032382219011	0	0.5	2.49	1	189.78068737901	189.918601706013	"7"	185970.596666287	185948.770375381	1.5	0.1
0.01	1	0.16274849200272	1	87	NA	218.032382219011	0	0.5	2.49	1	190.147833680006	190.310582172009	"7"	185970.596666287	185948.770375381	1.5	0.1
0.01	1	0.233897297992371	1	87	NA	218.032382219011	0	0.5	2.49	1	190.548494743998	190.782392041991	"7"	185970.596666287	185948.770375381	1.5	0.1
0.01	1	0.174385471997084	1	87	NA	218.032382219011	0	0.5	2.49	1	191.016043999	191.190429470997	"7"	185970.596666287	185948.770375381	1.5	0.1
0.01	1	0.221621375007089	1	87	NA	218.032382219011	0	0.5	2.49	1	191.416704125993	191.638325501001	"7"	185970.596666287	185948.770375381	1.5	0.1
0.01	1	0.259989690996008	1	87	NA	218.032382219011	0	0.5	2.49	1	191.867451661004	192.127441352	"7"	185970.596666287	185948.770375381	1.5	0.1
0.01	1	0.261481891997391	1	87	NA	218.032382219011	0	0.5	2.49	1	192.368288296013	192.62977018801	"7"	185970.596666287	185948.770375381	1.5	0.1
0.01	1	0.273286405979889	1	87	NA	218.032382219011	0	0.5	2.49	1	192.852405136015	193.125691541994	"7"	185970.596666287	185948.770375381	1.5	0.1
0.01	1	0.261093559995061	1	87	NA	218.032382219011	0	0.5	2.49	1	193.353209729015	193.61430328901	"7"	185970.596666287	185948.770375381	1.5	0.1
0.01	1	0.241303331014933	1	87	NA	218.032382219011	0	0.5	2.49	1	193.837434988993	194.078738320008	"7"	185970.596666287	185948.770375381	1.5	0.1
0.01	1	0.245831954001915	1	87	NA	218.032382219011	0	0.5	2.49	1	194.304881413991	194.550713367993	"7"	185970.596666287	185948.770375381	1.5	0.1
0.01	1	0.248696110997116	1	87	NA	218.032382219011	0	0.5	2.49	1	194.789026840997	195.037722951995	"7"	185970.596666287	185948.770375381	1.5	0.1
0.01	1	0.294055326987291	1	87	NA	218.032382219011	0	0.5	2.49	1	195.273117214005	195.567172540992	"7"	185970.596666287	185948.770375381	1.5	0.1
0.01	1	0.328033338999376	1	87	NA	218.032382219011	0	0.5	2.49	1	195.79068658399	196.11871992299	"7"	185970.596666287	185948.770375381	1.5	0.1
0.01	1	0.00395788298919797	1	87	NA	218.032382219011	0	0.5	2.49	1	196.341622631007	196.345580513997	"7"	185970.596666287	185948.770375381	1.5	0.1
0.01	1	0.342678396002157	1	87	NA	218.032382219011	0	0.5	2.49	1	196.575431095989	196.918109491991	"7"	185970.596666287	185948.770375381	1.5	0.1
0.01	1	0.00454639102099463	1	87	NA	218.032382219011	0	0.5	2.49	1	197.143034629989	197.14758102101	"7"	185970.596666287	185948.770375381	1.5	0.1
0.01	1	0.117053924972424	1	87	NA	218.032382219011	0	0.5	2.49	1	197.376765184017	197.49381910899	"7"	185970.596666287	185948.770375381	1.5	0.1
0.01	1	3.51882322097663	1	87	NA	218.032382219011	0	0.5	2.49	1	197.727308449015	201.246131669992	"7"	185970.596666287	185948.770375381	1.5	0.1
0.01	1	0.337941314006457	1	87	NA	218.032382219011	0	0.5	2.49	1	201.48361732901	201.821558643016	"7"	185970.596666287	185948.770375381	1.5	0.1
0.01	1	0.307162341981893	1	87	NA	218.032382219011	0	0.5	2.49	1	202.05124479701	202.358407138992	"7"	185970.596666287	185948.770375381	1.5	0.1
0.01	1	0.324515377986245	1	87	NA	218.032382219011	0	0.5	2.49	1	202.585555619007	202.910070996993	"7"	185970.596666287	185948.770375381	1.5	0.1
0.01	1	0.36522378900554	1	87	NA	218.032382219011	0	0.5	2.49	1	203.136391073989	203.501614862995	"7"	185970.596666287	185948.770375381	1.5	0.1
0.01	1	0.333855394012062	1	87	NA	218.032382219011	0	0.5	2.49	1	203.737401135993	204.071256530005	"7"	185970.596666287	185948.770375381	1.5	0.1
0.01	1	0.31697193699074	1	87	NA	218.032382219011	0	0.5	2.49	1	204.304992329009	204.621964266	"7"	185970.596666287	185948.770375381	1.5	0.1
0.01	1	0.30275483900914	1	87	NA	218.032382219011	0	0.5	2.49	1	204.856041830004	205.158796669013	"7"	185970.596666287	185948.770375381	1.5	0.1
0.01	1	0.311754603026202	1	87	NA	218.032382219011	0	0.5	2.49	1	205.39021791899	205.701972522016	"7"	185970.596666287	185948.770375381	1.5	0.1
0.01	1	0.442914523999207	1	87	NA	218.032382219011	0	0.5	2.49	1	205.924418334005	206.367332858004	"7"	185970.596666287	185948.770375381	1.5	0.1
0.01	1	0.36573631799547	1	87	NA	218.032382219011	0	0.5	2.49	1	206.592248664005	206.957984982	"7"	185970.596666287	185948.770375381	1.5	0.1
0.01	1	0.34079248199123	1	87	NA	218.032382219011	0	0.5	2.49	1	207.193281261018	207.534073743009	"7"	185970.596666287	185948.770375381	1.5	0.1
0.01	1	0.358443965000333	1	87	NA	218.032382219011	0	0.5	2.49	1	207.760730295995	208.119174260995	"7"	185970.596666287	185948.770375381	1.5	0.1
0.01	1	0.349598501983564	1	87	NA	218.032382219011	0	0.5	2.49	1	208.34512671901	208.694725220994	"7"	185970.596666287	185948.770375381	1.5	0.1
0.01	1	0.340460395003902	1	87	NA	218.032382219011	0	0.5	2.49	1	208.929509189009	209.269969584013	"7"	185970.596666287	185948.770375381	1.5	0.1
0.01	1	0.342161637992831	1	87	NA	218.032382219011	0	0.5	2.49	1	209.497182869003	209.839344506996	"7"	185970.596666287	185948.770375381	1.5	0.1
0.01	1	0.340779777005082	1	87	NA	218.032382219011	0	0.5	2.49	1	210.06482459401	210.405604371015	"7"	185970.596666287	185948.770375381	1.5	0.1
0.01	1	0.325679424015107	1	87	NA	218.032382219011	0	0.5	2.49	1	210.632272185991	210.957951610006	"7"	185970.596666287	185948.770375381	1.5	0.1
0.01	1	0.342629419028526	1	87	NA	218.032382219011	0	0.5	2.49	1	211.183318550989	211.525947970018	"7"	185970.596666287	185948.770375381	1.5	0.1
0.01	1	0.44754416399519	1	87	NA	218.032382219011	0	0.5	2.49	1	211.750875961006	212.198420125002	"7"	185970.596666287	185948.770375381	1.5	0.1
0.01	1	0.35483041300904	1	87	NA	218.032382219011	0	0.5	2.49	1	212.435322350997	212.790152764006	"7"	185970.596666287	185948.770375381	1.5	0.1
0.01	1	0.337945919978665	1	87	NA	218.032382219011	0	0.5	2.49	1	213.019684596016	213.357630515995	"7"	185970.596666287	185948.770375381	1.5	0.1
0.01	1	0.346118454006501	1	87	NA	218.032382219011	0	0.5	2.49	1	213.587326011009	213.933444465016	"7"	185970.596666287	185948.770375381	1.5	0.1
0.01	1	0.347171533998335	1	87	NA	218.032382219011	0	0.5	2.49	1	214.171670365991	214.51884189999	"7"	185970.596666287	185948.770375381	1.5	0.1
0.01	1	0.330353263998404	1	87	NA	218.032382219011	0	0.5	2.49	1	214.755944011995	215.086297275993	"7"	185970.596666287	185948.770375381	1.5	0.1
0.01	1	0.305964634986594	1	87	NA	218.032382219011	0	0.5	2.49	1	215.323668472003	215.62963310699	"7"	185970.596666287	185948.770375381	1.5	0.1
0.01	1	0.356265947979409	1	87	NA	218.032382219011	0	0.5	2.49	1	215.857805794018	216.214071741997	"7"	185970.596666287	185948.770375381	1.5	0.1
0.01	1	0.436632540018763	1	87	NA	218.032382219011	0	0.5	2.49	1	216.442235608993	216.878868149011	"7"	185970.596666287	185948.770375381	1.5	0.1
0.01	1	0.920791748998454	2	87	NA	218.032382219011	0	0.5	2.49	1	217.110017514002	218.030809263	"7"	185970.596666287	185948.770375381	1.5	0.1
0.01	1	0.492008975008503	1	6	223.724247161008	NA	1	0	2.49	1	220.081576694007	220.573585669015	"8"	185970.596666287	185948.770375381	1.5	0.1
0.01	1	0.00402115398901515	1	6	223.724247161008	NA	1	0	2.49	1	220.799401344004	220.803422497993	"8"	185970.596666287	185948.770375381	1.5	0.1
0.01	1	0.0860168820072431	1	6	223.724247161008	NA	1	0	2.49	1	221.033200956008	221.119217838015	"8"	185970.596666287	185948.770375381	1.5	0.1
0.01	1	1.11196887400001	1	6	223.724247161008	NA	1	0	2.49	1	221.350370133994	222.462339007994	"8"	185970.596666287	185948.770375381	1.5	0.1
0.01	1	0.345022418012377	1	6	223.724247161008	NA	1	0	2.49	1	222.686040664004	223.031063082017	"8"	185970.596666287	185948.770375381	1.5	0.1
0.01	1	0.3599824210105	1	6	223.724247161008	NA	1	0	2.49	1	223.253680210997	223.613662632008	"8"	185970.596666287	185948.770375381	1.5	0.1
0.01	1	0.471459165011765	1	106	NA	252.48099375001	0	0.49	2.98	1	225.774560613994	226.246019779006	"9"	185970.596666287	185948.770375381	1.5	0.1
0.01	1	0.289984923001612	1	106	NA	252.48099375001	0	0.49	2.98	1	226.475799350999	226.765784274001	"9"	185970.596666287	185948.770375381	1.5	0.1
0.01	1	0.293499911000254	1	106	NA	252.48099375001	0	0.49	2.98	1	226.993259629002	227.286759540002	"9"	185970.596666287	185948.770375381	1.5	0.1
0.01	1	0.319150914001511	1	106	NA	252.48099375001	0	0.49	2.98	1	227.510693960008	227.82984487401	"9"	185970.596666287	185948.770375381	1.5	0.1
0.01	1	0.280866026005242	1	106	NA	252.48099375001	0	0.49	2.98	1	228.061655549012	228.342521575018	"9"	185970.596666287	185948.770375381	1.5	0.1
0.01	1	0.276131399994483	1	106	NA	252.48099375001	0	0.49	2.98	1	228.579177302017	228.855308702012	"9"	185970.596666287	185948.770375381	1.5	0.1
0.01	1	0.254125180013943	1	106	NA	252.48099375001	0	0.49	2.98	1	229.080009978992	229.334135159006	"9"	185970.596666287	185948.770375381	1.5	0.1
0.01	1	0.297866606008029	1	106	NA	252.48099375001	0	0.49	2.98	1	229.564254438999	229.862121045007	"9"	185970.596666287	185948.770375381	1.5	0.1
0.01	1	0.259251948009478	1	106	NA	252.48099375001	0	0.49	2.98	1	230.098493055993	230.357745004003	"9"	185970.596666287	185948.770375381	1.5	0.1
0.01	1	0.271670231973985	1	106	NA	252.48099375001	0	0.49	2.98	1	230.582605991018	230.854276222992	"9"	185970.596666287	185948.770375381	1.5	0.1
0.01	1	0.338223236001795	1	106	NA	252.48099375001	0	0.49	2.98	1	231.083420509007	231.421643745009	"9"	185970.596666287	185948.770375381	1.5	0.1
0.01	1	0.323749710019911	1	106	NA	252.48099375001	0	0.49	2.98	1	231.651134215994	231.974883926014	"9"	185970.596666287	185948.770375381	1.5	0.1
0.01	1	0.284933057992021	1	106	NA	252.48099375001	0	0.49	2.98	1	232.202027444	232.486960501992	"9"	185970.596666287	185948.770375381	1.5	0.1
0.01	1	0.357862437987933	1	106	NA	252.48099375001	0	0.49	2.98	1	232.719578501012	233.077440939	"9"	185970.596666287	185948.770375381	1.5	0.1
0.01	1	0.247675627004355	1	106	NA	252.48099375001	0	0.49	2.98	1	233.303824820992	233.551500447997	"9"	185970.596666287	185948.770375381	1.5	0.1
0.01	1	0.305321444990113	1	106	NA	252.48099375001	0	0.49	2.98	1	233.788029204006	234.093350648996	"9"	185970.596666287	185948.770375381	1.5	0.1
0.01	1	0.291209952003555	1	106	NA	252.48099375001	0	0.49	2.98	1	234.322111671005	234.613321623008	"9"	185970.596666287	185948.770375381	1.5	0.1
0.01	1	0.301814475009451	1	106	NA	252.48099375001	0	0.49	2.98	1	234.839807484008	235.141621959017	"9"	185970.596666287	185948.770375381	1.5	0.1
0.01	1	0.303318018006394	1	106	NA	252.48099375001	0	0.49	2.98	1	235.374079008994	235.677397027001	"9"	185970.596666287	185948.770375381	1.5	0.1
0.01	1	0.290166610007873	1	106	NA	252.48099375001	0	0.49	2.98	1	235.908271841006	236.198438451014	"9"	185970.596666287	185948.770375381	1.5	0.1
0.01	1	0.323943166993558	1	106	NA	252.48099375001	0	0.49	2.98	1	236.425896699016	236.74983986601	"9"	185970.596666287	185948.770375381	1.5	0.1
0.01	1	0.237458796007559	1	106	NA	252.48099375001	0	0.49	2.98	1	236.976651403995	237.214110200002	"9"	185970.596666287	185948.770375381	1.5	0.1
0.01	1	0.314034192007966	1	106	NA	252.48099375001	0	0.49	2.98	1	237.44413774999	237.758171941998	"9"	185970.596666287	185948.770375381	1.5	0.1
0.01	1	0.212192171020433	1	106	NA	252.48099375001	0	0.49	2.98	1	237.995104125992	238.207296297012	"9"	185970.596666287	185948.770375381	1.5	0.1
0.01	1	0.296250568004325	1	106	NA	252.48099375001	0	0.49	2.98	1	238.445754482993	238.742005050997	"9"	185970.596666287	185948.770375381	1.5	0.1
0.01	1	0.290589274984086	1	106	NA	252.48099375001	0	0.49	2.98	1	238.979969669017	239.270558944001	"9"	185970.596666287	185948.770375381	1.5	0.1
0.01	1	0.284965909988387	1	106	NA	252.48099375001	0	0.49	2.98	1	239.497573469009	239.782539378997	"9"	185970.596666287	185948.770375381	1.5	0.1
0.01	1	0.270159885985777	1	106	NA	252.48099375001	0	0.49	2.98	1	240.015224499017	240.285384385003	"9"	185970.596666287	185948.770375381	1.5	0.1
0.01	1	0.274574526003562	1	106	NA	252.48099375001	0	0.49	2.98	1	240.515902321	240.790476847003	"9"	185970.596666287	185948.770375381	1.5	0.1
0.01	1	0.294590484001674	1	106	NA	252.48099375001	0	0.49	2.98	1	241.016849253996	241.311439737998	"9"	185970.596666287	185948.770375381	1.5	0.1
0.01	1	0.319666006980697	1	106	NA	252.48099375001	0	0.49	2.98	1	241.534394679009	241.85406068599	"9"	185970.596666287	185948.770375381	1.5	0.1
0.01	1	0.288717519986676	1	106	NA	252.48099375001	0	0.49	2.98	1	242.085312159004	242.374029678991	"9"	185970.596666287	185948.770375381	1.5	0.1
0.01	1	0.259085870027775	1	106	NA	252.48099375001	0	0.49	2.98	1	242.60283262399	242.861918494018	"9"	185970.596666287	185948.770375381	1.5	0.1
0.01	1	0.470833479019348	1	106	NA	252.48099375001	0	0.49	2.98	1	243.086941518995	243.557774998015	"9"	185970.596666287	185948.770375381	1.5	0.1
0.01	1	0.322604882996529	1	106	NA	252.48099375001	0	0.49	2.98	1	243.788152091001	244.110756973998	"9"	185970.596666287	185948.770375381	1.5	0.1
0.01	1	0.283049135003239	1	106	NA	252.48099375001	0	0.49	2.98	1	244.339092714014	244.622141849017	"9"	185970.596666287	185948.770375381	1.5	0.1
0.01	1	0.302234153990867	1	106	NA	252.48099375001	0	0.49	2.98	1	244.85663251701	245.158866671001	"9"	185970.596666287	185948.770375381	1.5	0.1
0.01	1	0.280074662994593	1	106	NA	252.48099375001	0	0.49	2.98	1	245.390770808997	245.670845471992	"9"	185970.596666287	185948.770375381	1.5	0.1
0.01	1	0.242910136003047	1	106	NA	252.48099375001	0	0.49	2.98	1	245.90841529399	246.151325429993	"9"	185970.596666287	185948.770375381	1.5	0.1
0.01	1	0.287260120006977	1	106	NA	252.48099375001	0	0.49	2.98	1	246.375817021006	246.663077141013	"9"	185970.596666287	185948.770375381	1.5	0.1
0.01	1	0.360475356021198	1	106	NA	252.48099375001	0	0.49	2.98	1	246.89337075199	247.253846108011	"9"	185970.596666287	185948.770375381	1.5	0.1
0.01	1	0.297040748992004	1	106	NA	252.48099375001	0	0.49	2.98	1	247.477678969008	247.774719718	"9"	185970.596666287	185948.770375381	1.5	0.1
0.01	1	0.322303149005165	1	106	NA	252.48099375001	0	0.49	2.98	1	248.011988062004	248.334291211009	"9"	185970.596666287	185948.770375381	1.5	0.1
0.01	1	0.291553119022865	1	106	NA	252.48099375001	0	0.49	2.98	1	248.562844603992	248.854397723015	"9"	185970.596666287	185948.770375381	1.5	0.1
0.01	1	0.365785818983568	1	106	NA	252.48099375001	0	0.49	2.98	1	249.080311669008	249.446097487991	"9"	185970.596666287	185948.770375381	1.5	0.1
0.01	1	0.166199520986993	1	106	NA	252.48099375001	0	0.49	2.98	1	249.681446819013	249.84764634	"9"	185970.596666287	185948.770375381	1.5	0.1
0.01	1	0.316584630985744	1	106	NA	252.48099375001	0	0.49	2.98	1	250.082063194015	250.398647825001	"9"	185970.596666287	185948.770375381	1.5	0.1
0.01	1	0.237986118008848	1	106	NA	252.48099375001	0	0.49	2.98	1	250.633009345998	250.870995464007	"9"	185970.596666287	185948.770375381	1.5	0.1
0.01	1	0.258839877991704	1	106	NA	252.48099375001	0	0.49	2.98	1	251.100492397003	251.359332274995	"9"	185970.596666287	185948.770375381	1.5	0.1
0.01	1	0.894819162989734	2	106	NA	252.48099375001	0	0.49	2.98	1	251.584582283016	252.479401446006	"9"	185970.596666287	185948.770375381	1.5	0.1
0.01	1	0.434871982986806	1	21	269.133784114005	NA	1	0	2.98	1	254.522899094009	254.957771076995	"10"	185970.596666287	185948.770375381	1.5	0.1
0.01	1	0.304652525985148	1	21	269.133784114005	NA	1	0	2.98	1	255.190775794006	255.495428319991	"10"	185970.596666287	185948.770375381	1.5	0.1
0.01	1	0.354406745027518	1	21	269.133784114005	NA	1	0	2.98	1	255.724905493989	256.079312239017	"10"	185970.596666287	185948.770375381	1.5	0.1
0.01	1	0.456488143012393	1	21	269.133784114005	NA	1	0	2.98	1	256.309288193996	256.765776337008	"10"	185970.596666287	185948.770375381	1.5	0.1
0.01	1	1.08424133900553	1	21	269.133784114005	NA	1	0	2.98	1	256.993710684008	258.077952023013	"10"	185970.596666287	185948.770375381	1.5	0.1
0.01	1	0.541420188004849	1	21	269.133784114005	NA	1	0	2.98	1	258.312569466012	258.853989654017	"10"	185970.596666287	185948.770375381	1.5	0.1
0.01	1	0.44484978998662	1	21	269.133784114005	NA	1	0	2.98	1	259.080651276017	259.525501066004	"10"	185970.596666287	185948.770375381	1.5	0.1
0.01	1	0.32234974700259	1	21	269.133784114005	NA	1	0	2.98	1	259.748267268995	260.070617015997	"10"	185970.596666287	185948.770375381	1.5	0.1
0.01	1	0.307508750003763	1	21	269.133784114005	NA	1	0	2.98	1	260.299305219	260.606813969003	"10"	185970.596666287	185948.770375381	1.5	0.1
0.01	1	0.316611294983886	1	21	269.133784114005	NA	1	0	2.98	1	260.833482384012	261.150093678996	"10"	185970.596666287	185948.770375381	1.5	0.1
0.01	1	0.853837100003147	1	21	269.133784114005	NA	1	0	2.98	1	261.384411961015	262.238249061018	"10"	185970.596666287	185948.770375381	1.5	0.1
0.01	1	0.335917286982294	1	21	269.133784114005	NA	1	0	2.98	1	262.469598099007	262.80551538599	"10"	185970.596666287	185948.770375381	1.5	0.1
0.01	1	0.225873189017875	1	21	269.133784114005	NA	1	0	2.98	1	263.037254163995	263.263127353013	"10"	185970.596666287	185948.770375381	1.5	0.1
0.01	1	0.246119194984203	1	21	269.133784114005	NA	1	0	2.98	1	263.488020759018	263.734139954002	"10"	185970.596666287	185948.770375381	1.5	0.1
0.01	1	0.250949036999373	1	21	269.133784114005	NA	1	0	2.98	1	263.972063149005	264.223012186005	"10"	185970.596666287	185948.770375381	1.5	0.1
0.01	1	0.278750430996297	1	21	269.133784114005	NA	1	0	2.98	1	264.456257514015	264.735007945012	"10"	185970.596666287	185948.770375381	1.5	0.1
0.01	1	0.265830778022064	1	21	269.133784114005	NA	1	0	2.98	1	264.957101620996	265.222932399018	"10"	185970.596666287	185948.770375381	1.5	0.1
0.01	1	0.259867192013189	1	21	269.133784114005	NA	1	0	2.98	1	265.457894783991	265.717761976004	"10"	185970.596666287	185948.770375381	1.5	0.1
0.01	1	0.431247022002935	1	21	269.133784114005	NA	1	0	2.98	1	265.942219463992	266.373466485995	"10"	185970.596666287	185948.770375381	1.5	0.1
0.01	1	0.997175233002054	1	21	269.133784114005	NA	1	0	2.98	1	266.609816040989	267.606991273991	"10"	185970.596666287	185948.770375381	1.5	0.1
0.01	1	1.16923125600442	1	21	269.133784114005	NA	1	0	2.98	1	267.845247043006	269.01447829901	"10"	185970.596666287	185948.770375381	1.5	0.1
0.01	1	0.342180898005608	1	19	277.031244404003	NA	1	0	2.98	1	271.184282264003	271.526463162008	"11"	185970.596666287	185948.770375381	1.5	0.1
0.01	1	0.206014661001973	1	19	277.031244404003	NA	1	0	2.98	1	271.75187590401	271.957890565012	"11"	185970.596666287	185948.770375381	1.5	0.1
0.01	1	0.0754611729935277	1	19	277.031244404003	NA	1	0	2.98	1	272.185993616004	272.261454788997	"11"	185970.596666287	185948.770375381	1.5	0.1
0.01	1	0.0708670799795073	1	19	277.031244404003	NA	1	0	2.98	1	272.48645424901	272.55732132899	"11"	185970.596666287	185948.770375381	1.5	0.1
0.01	1	0.0672429259866476	1	19	277.031244404003	NA	1	0	2.98	1	272.786944321007	272.854187246994	"11"	185970.596666287	185948.770375381	1.5	0.1
0.01	1	0.0384793599951081	1	19	277.031244404003	NA	1	0	2.98	1	273.087499039015	273.12597839901	"11"	185970.596666287	185948.770375381	1.5	0.1
0.01	1	0.0362608709838241	1	19	277.031244404003	NA	1	0	2.98	1	273.354522931011	273.390783801995	"11"	185970.596666287	185948.770375381	1.5	0.1
0.01	1	0.0490890349901747	1	19	277.031244404003	NA	1	0	2.98	1	273.621726359008	273.670815393998	"11"	185970.596666287	185948.770375381	1.5	0.1
0.01	1	0.0926727829792071	1	19	277.031244404003	NA	1	0	2.98	1	273.905411439016	273.998084221996	"11"	185970.596666287	185948.770375381	1.5	0.1
0.01	1	0.0887287419755012	1	19	277.031244404003	NA	1	0	2.98	1	274.222651876014	274.31138061799	"11"	185970.596666287	185948.770375381	1.5	0.1
0.01	1	0.138148535013897	1	19	277.031244404003	NA	1	0	2.98	1	274.539854923991	274.678003459005	"11"	185970.596666287	185948.770375381	1.5	0.1
0.01	1	0.0672695229877718	1	19	277.031244404003	NA	1	0	2.98	1	274.907103959005	274.974373481993	"11"	185970.596666287	185948.770375381	1.5	0.1
0.01	1	0.0472091069968883	1	19	277.031244404003	NA	1	0	2.98	1	275.207605884003	275.254814991	"11"	185970.596666287	185948.770375381	1.5	0.1
0.01	1	0.0430750670202542	1	19	277.031244404003	NA	1	0	2.98	1	275.491493943991	275.534569011012	"11"	185970.596666287	185948.770375381	1.5	0.1
0.01	1	0.0557292200101074	1	19	277.031244404003	NA	1	0	2.98	1	275.758677364007	275.814406584017	"11"	185970.596666287	185948.770375381	1.5	0.1
0.01	1	0.0604264959983993	1	19	277.031244404003	NA	1	0	2.98	1	276.042496359005	276.102922855003	"11"	185970.596666287	185948.770375381	1.5	0.1
0.01	1	0.0404064239992294	1	19	277.031244404003	NA	1	0	2.98	1	276.326278908004	276.366685332003	"11"	185970.596666287	185948.770375381	1.5	0.1
0.01	1	0.0454110669961665	1	19	277.031244404003	NA	1	0	2.98	1	276.593304704002	276.638715770998	"11"	185970.596666287	185948.770375381	1.5	0.1
0.01	1	0.0336482479760889	1	19	277.031244404003	NA	1	0	2.98	1	276.877263074013	276.910911321989	"11"	185970.596666287	185948.770375381	1.5	0.1
0.01	1	0.270942220988218	1	63	NA	307.887043160998	0	0.59	3.57	1	279.064094521018	279.335036742006	"12"	185970.596666287	185948.770375381	1.5	0.1
0.01	1	0.00214475701795891	1	63	NA	307.887043160998	0	0.59	3.57	1	279.564972713997	279.567117471015	"12"	185970.596666287	185948.770375381	1.5	0.1
0.01	1	0.056343624019064	1	63	NA	307.887043160998	0	0.59	3.57	1	279.79869467899	279.855038303009	"12"	185970.596666287	185948.770375381	1.5	0.1
0.01	1	0.0511382280092221	1	63	NA	307.887043160998	0	0.59	3.57	1	280.082536014001	280.13367424201	"12"	185970.596666287	185948.770375381	1.5	0.1
0.01	1	0.0475668500002939	1	63	NA	307.887043160998	0	0.59	3.57	1	280.366363615991	280.413930465991	"12"	185970.596666287	185948.770375381	1.5	0.1
0.01	1	0.0674158239853568	1	63	NA	307.887043160998	0	0.59	3.57	1	280.650202524004	280.71761834799	"12"	185970.596666287	185948.770375381	1.5	0.1
0.01	1	0.0707602360052988	1	63	NA	307.887043160998	0	0.59	3.57	1	280.950702831004	281.021463067009	"12"	185970.596666287	185948.770375381	1.5	0.1
0.01	1	0.0675286149780732	1	63	NA	307.887043160998	0	0.59	3.57	1	281.251150624012	281.31867923899	"12"	185970.596666287	185948.770375381	1.5	0.1
0.01	1	0.0549005130014848	1	63	NA	307.887043160998	0	0.59	3.57	1	281.551724043995	281.606624556996	"12"	185970.596666287	185948.770375381	1.5	0.1
0.01	1	0.0742851600225549	1	63	NA	307.887043160998	0	0.59	3.57	1	281.835576090991	281.909861251013	"12"	185970.596666287	185948.770375381	1.5	0.1
0.01	1	0.143061376991682	1	63	NA	307.887043160998	0	0.59	3.57	1	282.135997591016	282.279058968008	"12"	185970.596666287	185948.770375381	1.5	0.1
0.01	1	0.0959193899761885	1	63	NA	307.887043160998	0	0.59	3.57	1	282.503253716015	282.599173105991	"12"	185970.596666287	185948.770375381	1.5	0.1
0.01	1	0.082056156010367	1	63	NA	307.887043160998	0	0.59	3.57	1	282.837111828994	282.919167985005	"12"	185970.596666287	185948.770375381	1.5	0.1
0.01	1	0.0278959830175154	1	63	NA	307.887043160998	0	0.59	3.57	1	283.154404456	283.182300439017	"12"	185970.596666287	185948.770375381	1.5	0.1
0.01	1	0.0733573570032604	1	63	NA	307.887043160998	0	0.59	3.57	1	283.404862611002	283.478219968005	"12"	185970.596666287	185948.770375381	1.5	0.1
0.01	1	0.061571815982461	1	63	NA	307.887043160998	0	0.59	3.57	1	283.705329354008	283.766901169991	"12"	185970.596666287	185948.770375381	1.5	0.1
0.01	1	0.0501035919878632	1	63	NA	307.887043160998	0	0.59	3.57	1	283.989149824018	284.039253416006	"12"	185970.596666287	185948.770375381	1.5	0.1
0.01	1	0.0379404389823321	1	63	NA	307.887043160998	0	0.59	3.57	1	284.273021630011	284.310962068994	"12"	185970.596666287	185948.770375381	1.5	0.1
0.01	1	0.0581458099768497	1	63	NA	307.887043160998	0	0.59	3.57	1	284.540087224013	284.59823303399	"12"	185970.596666287	185948.770375381	1.5	0.1
0.01	1	0.390982767014066	1	63	NA	307.887043160998	0	0.59	3.57	1	284.823882108991	285.214864876005	"12"	185970.596666287	185948.770375381	1.5	0.1
0.01	1	0.844045567006106	1	63	NA	307.887043160998	0	0.59	3.57	1	285.441639483994	286.285685051	"12"	185970.596666287	185948.770375381	1.5	0.1
0.01	1	0.454828112997347	1	63	NA	307.887043160998	0	0.59	3.57	1	286.526782447007	286.981610560004	"12"	185970.596666287	185948.770375381	1.5	0.1
0.01	1	0.139717066020239	1	63	NA	307.887043160998	0	0.59	3.57	1	287.211192535993	287.350909602013	"12"	185970.596666287	185948.770375381	1.5	0.1
0.01	1	0.140160156006459	1	63	NA	307.887043160998	0	0.59	3.57	1	287.578475143004	287.71863529901	"12"	185970.596666287	185948.770375381	1.5	0.1
0.01	1	0.292916801990941	1	63	NA	307.887043160998	0	0.59	3.57	1	287.945814230014	288.238731032005	"12"	185970.596666287	185948.770375381	1.5	0.1
0.01	1	0.390305125998566	1	63	NA	307.887043160998	0	0.59	3.57	1	288.463223441009	288.853528567008	"12"	185970.596666287	185948.770375381	1.5	0.1
0.01	1	0.388829581002938	1	63	NA	307.887043160998	0	0.59	3.57	1	289.081001329003	289.469830910006	"12"	185970.596666287	185948.770375381	1.5	0.1
0.01	1	0.282872334995773	1	63	NA	307.887043160998	0	0.59	3.57	1	289.698667913995	289.981540248991	"12"	185970.596666287	185948.770375381	1.5	0.1
0.01	1	0.294474869995611	1	63	NA	307.887043160998	0	0.59	3.57	1	290.216274281003	290.510749150999	"12"	185970.596666287	185948.770375381	1.5	0.1
0.01	1	0.30489530597697	1	63	NA	307.887043160998	0	0.59	3.57	1	290.733757194015	291.038652499992	"12"	185970.596666287	185948.770375381	1.5	0.1
0.01	1	0.322299596009543	1	63	NA	307.887043160998	0	0.59	3.57	1	291.268100835994	291.590400432004	"12"	185970.596666287	185948.770375381	1.5	0.1
0.01	1	0.332351859979099	1	63	NA	307.887043160998	0	0.59	3.57	1	291.819020154013	292.151372013992	"12"	185970.596666287	185948.770375381	1.5	0.1
0.01	1	0.27621324302163	1	63	NA	307.887043160998	0	0.59	3.57	1	292.386510818993	292.662724062015	"12"	185970.596666287	185948.770375381	1.5	0.1
0.01	1	0.319436274992768	1	63	NA	307.887043160998	0	0.59	3.57	1	292.887443120999	293.206879395992	"12"	185970.596666287	185948.770375381	1.5	0.1
0.01	1	0.337549760006368	1	63	NA	307.887043160998	0	0.59	3.57	1	293.438396996004	293.77594675601	"12"	185970.596666287	185948.770375381	1.5	0.1
0.01	1	0.312830059003318	1	63	NA	307.887043160998	0	0.59	3.57	1	294.005933275999	294.318763335003	"12"	185970.596666287	185948.770375381	1.5	0.1
0.01	1	0.313628859003074	1	63	NA	307.887043160998	0	0.59	3.57	1	294.556912041007	294.87054090001	"12"	185970.596666287	185948.770375381	1.5	0.1
0.01	1	0.291558127995813	1	63	NA	307.887043160998	0	0.59	3.57	1	295.107851259003	295.399409386999	"12"	185970.596666287	185948.770375381	1.5	0.1
0.01	1	0.31661213299958	1	63	NA	307.887043160998	0	0.59	3.57	1	295.625383636012	295.941995769012	"12"	185970.596666287	185948.770375381	1.5	0.1
0.01	1	0.3584564269986	1	63	NA	307.887043160998	0	0.59	3.57	1	296.176353749004	296.534810176003	"12"	185970.596666287	185948.770375381	1.5	0.1
0.01	1	0.357584189012414	1	63	NA	307.887043160998	0	0.59	3.57	1	296.760697538994	297.118281728006	"12"	185970.596666287	185948.770375381	1.5	0.1
0.01	1	0.301164637989132	1	63	NA	307.887043160998	0	0.59	3.57	1	297.344916784001	297.64608142199	"12"	185970.596666287	185948.770375381	1.5	0.1
0.01	1	0.358263097994495	1	63	NA	307.887043160998	0	0.59	3.57	1	297.879228294012	298.237491392007	"12"	185970.596666287	185948.770375381	1.5	0.1
0.01	1	0.295617791998666	1	63	NA	307.887043160998	0	0.59	3.57	1	298.463434189005	298.759051981004	"12"	185970.596666287	185948.770375381	1.5	0.1
0.01	1	0.360857922991272	1	63	NA	307.887043160998	0	0.59	3.57	1	298.981080204016	299.341938127007	"12"	185970.596666287	185948.770375381	1.5	0.1
0.01	1	0.312257785990369	1	63	NA	307.887043160998	0	0.59	3.57	1	299.565289254009	299.87754704	"12"	185970.596666287	185948.770375381	1.5	0.1
0.01	1	0.322128701984184	1	63	NA	307.887043160998	0	0.59	3.57	1	300.11627469401	300.438403395994	"12"	185970.596666287	185948.770375381	1.5	0.1
0.01	1	0.291471964999801	1	63	NA	307.887043160998	0	0.59	3.57	1	300.66727610401	300.95874806901	"12"	185970.596666287	185948.770375381	1.5	0.1
0.01	1	0.308600510994438	1	63	NA	307.887043160998	0	0.59	3.57	1	301.184770146006	301.493370657001	"12"	185970.596666287	185948.770375381	1.5	0.1
0.01	1	0.31909163101227	1	63	NA	307.887043160998	0	0.59	3.57	1	301.718885353999	302.037976985011	"12"	185970.596666287	185948.770375381	1.5	0.1
0.01	1	0.328047230985248	1	63	NA	307.887043160998	0	0.59	3.57	1	302.269821841008	302.597869071993	"12"	185970.596666287	185948.770375381	1.5	0.1
0.01	1	0.32903760301997	1	63	NA	307.887043160998	0	0.59	3.57	1	302.82087974099	303.14991734401	"12"	185970.596666287	185948.770375381	1.5	0.1
0.01	1	0.297138644004008	1	63	NA	307.887043160998	0	0.59	3.57	1	303.388406604005	303.685545248009	"12"	185970.596666287	185948.770375381	1.5	0.1
0.01	1	0.27468355599558	1	63	NA	307.887043160998	0	0.59	3.57	1	303.922666483995	304.197350039991	"12"	185970.596666287	185948.770375381	1.5	0.1
0.01	1	0.304079200985143	1	63	NA	307.887043160998	0	0.59	3.57	1	304.423516191018	304.727595392003	"12"	185970.596666287	185948.770375381	1.5	0.1
0.01	1	0.319902385992464	1	63	NA	307.887043160998	0	0.59	3.57	1	304.957760274003	305.277662659995	"12"	185970.596666287	185948.770375381	1.5	0.1
0.01	1	0.313453728012973	1	63	NA	307.887043160998	0	0.59	3.57	1	305.508573183994	305.822026912007	"12"	185970.596666287	185948.770375381	1.5	0.1
0.01	1	0.314124027994694	1	63	NA	307.887043160998	0	0.59	3.57	1	306.059537526016	306.373661554011	"12"	185970.596666287	185948.770375381	1.5	0.1
0.01	1	0.315201399003854	1	63	NA	307.887043160998	0	0.59	3.57	1	306.610490632011	306.925692031014	"12"	185970.596666287	185948.770375381	1.5	0.1
0.01	1	0.724028797005303	2	63	NA	307.887043160998	0	0.59	3.57	1	307.161474599008	307.885503396014	"12"	185970.596666287	185948.770375381	1.5	0.1
0.01	1	0.616923980996944	1	54	345.862770234002	NA	1	0	3.57	1	309.932819298992	310.549743279989	"13"	185970.596666287	185948.770375381	1.5	0.1
0.01	1	0.29452616799972	1	54	345.862770234002	NA	1	0	3.57	1	310.784122504003	311.078648672003	"13"	185970.596666287	185948.770375381	1.5	0.1
0.01	1	0.273435968992999	1	54	345.862770234002	NA	1	0	3.57	1	311.30170542901	311.575141398003	"13"	185970.596666287	185948.770375381	1.5	0.1
0.01	1	0.268131671007723	1	54	345.862770234002	NA	1	0	3.57	1	311.802632309002	312.070763980009	"13"	185970.596666287	185948.770375381	1.5	0.1
0.01	1	0.335666149010649	1	54	345.862770234002	NA	1	0	3.57	1	312.303439259005	312.639105408016	"13"	185970.596666287	185948.770375381	1.5	0.1
0.01	1	0.35962448301143	1	54	345.862770234002	NA	1	0	3.57	1	312.871046148997	313.230670632009	"13"	185970.596666287	185948.770375381	1.5	0.1
0.01	1	0.343104415980633	1	54	345.862770234002	NA	1	0	3.57	1	313.455279640009	313.79838405599	"13"	185970.596666287	185948.770375381	1.5	0.1
0.01	1	0.2618922360125	1	54	345.862770234002	NA	1	0	3.57	1	314.039629223989	314.301521460002	"13"	185970.596666287	185948.770375381	1.5	0.1
0.01	1	0.33156053602579	1	54	345.862770234002	NA	1	0	3.57	1	314.523744523991	314.855305060017	"13"	185970.596666287	185948.770375381	1.5	0.1
0.01	1	0.355781684978865	1	54	345.862770234002	NA	1	0	3.57	1	315.091462964017	315.447244648996	"13"	185970.596666287	185948.770375381	1.5	0.1
0.01	1	1.65135445899796	1	54	345.862770234002	NA	1	0	3.57	1	315.675784426014	317.327138885012	"13"	185970.596666287	185948.770375381	1.5	0.1
0.01	1	0.355418966995785	1	54	345.862770234002	NA	1	0	3.57	1	317.562295181007	317.917714148003	"13"	185970.596666287	185948.770375381	1.5	0.1
0.01	1	0.331665035017068	1	54	345.862770234002	NA	1	0	3.57	1	318.146573220991	318.478238256008	"13"	185970.596666287	185948.770375381	1.5	0.1
0.01	1	0.339757834008196	1	54	345.862770234002	NA	1	0	3.57	1	318.71425098399	319.054008817999	"13"	185970.596666287	185948.770375381	1.5	0.1
0.01	1	0.403892475995235	1	54	345.862770234002	NA	1	0	3.57	1	319.281911439	319.685803914996	"13"	185970.596666287	185948.770375381	1.5	0.1
0.01	1	0.369447169010527	1	54	345.862770234002	NA	1	0	3.57	1	319.916143445997	320.285590615007	"13"	185970.596666287	185948.770375381	1.5	0.1
0.01	1	0.377491866995115	1	54	345.862770234002	NA	1	0	3.57	1	320.517252579011	320.894744446006	"13"	185970.596666287	185948.770375381	1.5	0.1
0.01	1	0.36746957100695	1	54	345.862770234002	NA	1	0	3.57	1	321.118315400992	321.485784971999	"13"	185970.596666287	185948.770375381	1.5	0.1
0.01	1	0.575669790006941	1	54	345.862770234002	NA	1	0	3.57	1	321.719229301001	322.294899091008	"13"	185970.596666287	185948.770375381	1.5	0.1
0.01	1	3.0219201130094	1	54	345.862770234002	NA	1	0	3.57	1	322.520607498998	325.542527612008	"13"	185970.596666287	185948.770375381	1.5	0.1
0.01	1	0.566883380990475	1	54	345.862770234002	NA	1	0	3.57	1	325.776193589001	326.343076969992	"13"	185970.596666287	185948.770375381	1.5	0.1
0.01	1	0.317443008010741	1	54	345.862770234002	NA	1	0	3.57	1	326.577463255991	326.894906264002	"13"	185970.596666287	185948.770375381	1.5	0.1
0.01	1	0.310712735023117	1	54	345.862770234002	NA	1	0	3.57	1	327.128419293993	327.439132029016	"13"	185970.596666287	185948.770375381	1.5	0.1
0.01	1	0.272424426017096	1	54	345.862770234002	NA	1	0	3.57	1	327.662499355996	327.934923782013	"13"	185970.596666287	185948.770375381	1.5	0.1
0.01	1	0.322471969993785	1	54	345.862770234002	NA	1	0	3.57	1	328.163449621003	328.485921590996	"13"	185970.596666287	185948.770375381	1.5	0.1
0.01	1	0.307775304012466	1	54	345.862770234002	NA	1	0	3.57	1	328.714286820992	329.022062125005	"13"	185970.596666287	185948.770375381	1.5	0.1
0.01	1	0.28518265299499	1	54	345.862770234002	NA	1	0	3.57	1	329.248636744014	329.533819397009	"13"	185970.596666287	185948.770375381	1.5	0.1
0.01	1	0.255931722989772	1	54	345.862770234002	NA	1	0	3.57	1	329.766084431001	330.022016153991	"13"	185970.596666287	185948.770375381	1.5	0.1
0.01	1	0.339963780977996	1	54	345.862770234002	NA	1	0	3.57	1	330.250242714013	330.590206494991	"13"	185970.596666287	185948.770375381	1.5	0.1
0.01	1	0.4045214689977	1	54	345.862770234002	NA	1	0	3.57	1	330.817866513011	331.222387982009	"13"	185970.596666287	185948.770375381	1.5	0.1
0.01	1	0.401755480008433	1	54	345.862770234002	NA	1	0	3.57	1	331.452302329009	331.854057809018	"13"	185970.596666287	185948.770375381	1.5	0.1
0.01	1	0.304311348998453	1	54	345.862770234002	NA	1	0	3.57	1	332.086630131002	332.39094148	"13"	185970.596666287	185948.770375381	1.5	0.1
0.01	1	0.322134581016144	1	54	345.862770234002	NA	1	0	3.57	1	332.620961023989	332.943095605006	"13"	185970.596666287	185948.770375381	1.5	0.1
0.01	1	0.330911314988043	1	54	345.862770234002	NA	1	0	3.57	1	333.171791046014	333.502702361002	"13"	185970.596666287	185948.770375381	1.5	0.1
0.01	1	0.37079915398499	1	54	345.862770234002	NA	1	0	3.57	1	333.739448809007	334.110247962992	"13"	185970.596666287	185948.770375381	1.5	0.1
0.01	1	0.345336832018802	1	54	345.862770234002	NA	1	0	3.57	1	334.340512733994	334.685849566013	"13"	185970.596666287	185948.770375381	1.5	0.1
0.01	1	0.345421279984294	1	54	345.862770234002	NA	1	0	3.57	1	334.908134279016	335.253555559	"13"	185970.596666287	185948.770375381	1.5	0.1
0.01	1	0.370030837977538	1	54	345.862770234002	NA	1	0	3.57	1	335.475732654013	335.845763491991	"13"	185970.596666287	185948.770375381	1.5	0.1
0.01	1	0.377299788000528	1	54	345.862770234002	NA	1	0	3.57	1	336.076679524005	336.453979312006	"13"	185970.596666287	185948.770375381	1.5	0.1
0.01	1	1.24764230797882	1	54	345.862770234002	NA	1	0	3.57	1	336.694441349013	337.942083656992	"13"	185970.596666287	185948.770375381	1.5	0.1
0.01	1	0.338432485004887	1	54	345.862770234002	NA	1	0	3.57	1	338.180231573991	338.518664058996	"13"	185970.596666287	185948.770375381	1.5	0.1
0.01	1	0.249847444996703	1	54	345.862770234002	NA	1	0	3.57	1	338.747960220993	338.99780766599	"13"	185970.596666287	185948.770375381	1.5	0.1
0.01	1	0.285563563025789	1	54	345.862770234002	NA	1	0	3.57	1	339.232022718992	339.517586282018	"13"	185970.596666287	185948.770375381	1.5	0.1
0.01	1	0.296371457981877	1	54	345.862770234002	NA	1	0	3.57	1	339.74967273901	340.046044196992	"13"	185970.596666287	185948.770375381	1.5	0.1
0.01	1	0.329920259013306	1	54	345.862770234002	NA	1	0	3.57	1	340.283850084001	340.613770343014	"13"	185970.596666287	185948.770375381	1.5	0.1
0.01	1	0.314134232001379	1	54	345.862770234002	NA	1	0	3.57	1	340.851412904012	341.165547136014	"13"	185970.596666287	185948.770375381	1.5	0.1
0.01	1	0.284801813017111	1	54	345.862770234002	NA	1	0	3.57	1	341.402420831	341.687222644017	"13"	185970.596666287	185948.770375381	1.5	0.1
0.01	1	0.245738215977326	1	54	345.862770234002	NA	1	0	3.57	1	341.919924831018	342.165663046995	"13"	185970.596666287	185948.770375381	1.5	0.1
0.01	1	0.321443523018388	1	54	345.862770234002	NA	1	0	3.57	1	342.404016449	342.725459972018	"13"	185970.596666287	185948.770375381	1.5	0.1
0.01	1	0.298501810990274	1	54	345.862770234002	NA	1	0	3.57	1	342.954996229004	343.253498039994	"13"	185970.596666287	185948.770375381	1.5	0.1
0.01	1	0.340750822011614	1	54	345.862770234002	NA	1	0	3.57	1	343.489239079005	343.829989901016	"13"	185970.596666287	185948.770375381	1.5	0.1
0.01	1	0.366624357993715	1	54	345.862770234002	NA	1	0	3.57	1	344.056793280004	344.423417637998	"13"	185970.596666287	185948.770375381	1.5	0.1
0.01	1	0.293515216006199	1	54	345.862770234002	NA	1	0	3.57	1	344.657906751003	344.951421967009	"13"	185970.596666287	185948.770375381	1.5	0.1
0.01	1	0.574550004006596	1	54	345.862770234002	NA	1	0	3.57	1	345.175370581012	345.749920585018	"13"	185970.596666287	185948.770375381	1.5	0.1
0.01	1	0.517140613985248	1	103	NA	369.561161634017	0	0.44	4.01	1	347.89660811401	348.413748727995	"14"	185970.596666287	185948.770375381	1.5	0.1
0.01	1	0.277668872004142	1	103	NA	369.561161634017	0	0.44	4.01	1	348.647995369014	348.925664241018	"14"	185970.596666287	185948.770375381	1.5	0.1
0.01	1	0.00446551200002432	1	103	NA	369.561161634017	0	0.44	4.01	1	349.148716729018	349.153182241018	"14"	185970.596666287	185948.770375381	1.5	0.1
0.01	1	0.784512454993092	1	103	NA	369.561161634017	0	0.44	4.01	1	349.382530736009	350.167043191002	"14"	185970.596666287	185948.770375381	1.5	0.1
0.01	1	0.150121910002781	1	103	NA	369.561161634017	0	0.44	4.01	1	350.400809504004	350.550931414007	"14"	185970.596666287	185948.770375381	1.5	0.1
0.01	1	0.308784735010704	1	103	NA	369.561161634017	0	0.44	4.01	1	350.784811938996	351.093596674007	"14"	185970.596666287	185948.770375381	1.5	0.1
0.01	1	0.239774273999501	1	103	NA	369.561161634017	0	0.44	4.01	1	351.319072115992	351.558846389991	"14"	185970.596666287	185948.770375381	1.5	0.1
0.01	1	0.210929084976669	1	103	NA	369.561161634017	0	0.44	4.01	1	351.786611759017	351.997540843993	"14"	185970.596666287	185948.770375381	1.5	0.1
0.01	1	0.177018349990249	1	103	NA	369.561161634017	0	0.44	4.01	1	352.237275409017	352.414293759008	"14"	185970.596666287	185948.770375381	1.5	0.1
0.01	1	0.232086695992621	1	103	NA	369.561161634017	0	0.44	4.01	1	352.637945736002	352.870032431994	"14"	185970.596666287	185948.770375381	1.5	0.1
0.01	1	0.228081322973594	1	103	NA	369.561161634017	0	0.44	4.01	1	353.105400154018	353.333481476991	"14"	185970.596666287	185948.770375381	1.5	0.1
0.01	1	0.145338597998489	1	103	NA	369.561161634017	0	0.44	4.01	1	353.556160384003	353.701498982002	"14"	185970.596666287	185948.770375381	1.5	0.1
0.01	1	0.219528143003117	1	103	NA	369.561161634017	0	0.44	4.01	1	353.923449505994	354.142977648997	"14"	185970.596666287	185948.770375381	1.5	0.1
0.01	1	0.167909237992717	1	103	NA	369.561161634017	0	0.44	4.01	1	354.374274549016	354.542183787009	"14"	185970.596666287	185948.770375381	1.5	0.1
0.01	1	0.13577944599092	1	103	NA	369.561161634017	0	0.44	4.01	1	354.774876934011	354.910656380001	"14"	185970.596666287	185948.770375381	1.5	0.1
0.01	1	0.176070376997814	1	103	NA	369.561161634017	0	0.44	4.01	1	355.142163473996	355.318233850994	"14"	185970.596666287	185948.770375381	1.5	0.1
0.01	1	0.199275952007156	1	103	NA	369.561161634017	0	0.44	4.01	1	355.542807691003	355.74208364301	"14"	185970.596666287	185948.770375381	1.5	0.1
0.01	1	0.142460256000049	1	103	NA	369.561161634017	0	0.44	4.01	1	355.976880764007	356.119341020007	"14"	185970.596666287	185948.770375381	1.5	0.1
0.01	1	0.149267370987218	1	103	NA	369.561161634017	0	0.44	4.01	1	356.344158468011	356.493425838999	"14"	185970.596666287	185948.770375381	1.5	0.1
0.01	1	0.117449167009909	1	103	NA	369.561161634017	0	0.44	4.01	1	356.728170743998	356.845619911008	"14"	185970.596666287	185948.770375381	1.5	0.1
0.01	1	0.535779321013251	1	103	NA	369.561161634017	0	0.44	4.01	1	357.078651543998	357.614430865011	"14"	185970.596666287	185948.770375381	1.5	0.1
0.01	1	0.400447062012972	1	103	NA	369.561161634017	0	0.44	4.01	1	357.846666133992	358.247113196005	"14"	185970.596666287	185948.770375381	1.5	0.1
0.01	1	0.188728854991496	1	103	NA	369.561161634017	0	0.44	4.01	1	358.481141391007	358.669870245998	"14"	185970.596666287	185948.770375381	1.5	0.1
0.01	1	0.130909136001719	1	103	NA	369.561161634017	0	0.44	4.01	1	358.898439856013	359.029348992015	"14"	185970.596666287	185948.770375381	1.5	0.1
0.01	1	0.17998876600177	1	103	NA	369.561161634017	0	0.44	4.01	1	359.265767556004	359.445756322006	"14"	185970.596666287	185948.770375381	1.5	0.1
0.01	1	0.147933679982089	1	103	NA	369.561161634017	0	0.44	4.01	1	359.683104312018	359.831037992	"14"	185970.596666287	185948.770375381	1.5	0.1
0.01	1	0.139868414989905	1	103	NA	369.561161634017	0	0.44	4.01	1	360.067070904013	360.206939319003	"14"	185970.596666287	185948.770375381	1.5	0.1
0.01	1	0.132253910996951	1	103	NA	369.561161634017	0	0.44	4.01	1	360.434402248997	360.566656159994	"14"	185970.596666287	185948.770375381	1.5	0.1
0.01	1	0.141628629993647	1	103	NA	369.561161634017	0	0.44	4.01	1	360.801632281014	360.943260911008	"14"	185970.596666287	185948.770375381	1.5	0.1
0.01	1	0.15045247800299	1	103	NA	369.561161634017	0	0.44	4.01	1	361.169042171008	361.319494649011	"14"	185970.596666287	185948.770375381	1.5	0.1
0.01	1	0.156675286998507	1	103	NA	369.561161634017	0	0.44	4.01	1	361.552953300998	361.709628587996	"14"	185970.596666287	185948.770375381	1.5	0.1
0.01	1	0.165578412008472	1	103	NA	369.561161634017	0	0.44	4.01	1	361.936888664	362.102467076009	"14"	185970.596666287	185948.770375381	1.5	0.1
0.01	1	0.157017953984905	1	103	NA	369.561161634017	0	0.44	4.01	1	362.337573404016	362.494591358001	"14"	185970.596666287	185948.770375381	1.5	0.1
0.01	1	0.133224035002058	1	103	NA	369.561161634017	0	0.44	4.01	1	362.721568289009	362.854792324011	"14"	185970.596666287	185948.770375381	1.5	0.1
0.01	1	0.124826865008799	1	103	NA	369.561161634017	0	0.44	4.01	1	363.088807933993	363.213634799002	"14"	185970.596666287	185948.770375381	1.5	0.1
0.01	1	0.135048391995952	1	103	NA	369.561161634017	0	0.44	4.01	1	363.439419519011	363.574467911007	"14"	185970.596666287	185948.770375381	1.5	0.1
0.01	1	0.135495869006263	1	103	NA	369.561161634017	0	0.44	4.01	1	363.806888374005	363.942384243011	"14"	185970.596666287	185948.770375381	1.5	0.1
0.01	1	0.152463386009913	1	103	NA	369.561161634017	0	0.44	4.01	1	364.174019186001	364.326482572011	"14"	185970.596666287	185948.770375381	1.5	0.1
0.01	1	0.135945116984658	1	103	NA	369.561161634017	0	0.44	4.01	1	364.558006289008	364.693951405992	"14"	185970.596666287	185948.770375381	1.5	0.1
0.01	1	0.152630583004793	1	103	NA	369.561161634017	0	0.44	4.01	1	364.925312959007	365.077943542012	"14"	185970.596666287	185948.770375381	1.5	0.1
0.01	1	1.00151784799527	1	103	NA	369.561161634017	0	0.44	4.01	1	365.309156756004	366.310674603999	"14"	185970.596666287	185948.770375381	1.5	0.1
0.01	1	0.334219133015722	1	103	NA	369.561161634017	0	0.44	4.01	1	366.544693459	366.878912592016	"14"	185970.596666287	185948.770375381	1.5	0.1
0.01	1	0.117013892013347	1	103	NA	369.561161634017	0	0.44	4.01	1	367.112379933998	367.229393826012	"14"	185970.596666287	185948.770375381	1.5	0.1
0.01	1	0.439753913989989	1	103	NA	369.561161634017	0	0.44	4.01	1	367.46294694001	367.902700854	"14"	185970.596666287	185948.770375381	1.5	0.1
0.01	1	1.42892602900974	2	103	NA	369.561161634017	0	0.44	4.01	1	368.130672533996	369.559598563006	"14"	185970.596666287	185948.770375381	1.5	0.1
0.01	1	0.49230121599976	1	120	NA	388.608641603991	0	0.49	4.5	1	371.603163705993	372.095464921993	"15"	185970.596666287	185948.770375381	1.5	0.1
0.01	1	0.10822521900991	1	120	NA	388.608641603991	0	0.49	4.5	1	372.32105052899	372.429275748	"15"	185970.596666287	185948.770375381	1.5	0.1
0.01	1	0.0787583579949569	1	120	NA	388.608641603991	0	0.49	4.5	1	372.655015266006	372.733773624001	"15"	185970.596666287	185948.770375381	1.5	0.1
0.01	1	0.0819440449995454	1	120	NA	388.608641603991	0	0.49	4.5	1	372.972177184012	373.054121229012	"15"	185970.596666287	185948.770375381	1.5	0.1
0.01	1	0.133188605017494	1	120	NA	388.608641603991	0	0.49	4.5	1	373.289365103992	373.42255370901	"15"	185970.596666287	185948.770375381	1.5	0.1
0.01	1	0.125610813993262	1	120	NA	388.608641603991	0	0.49	4.5	1	373.656579308998	373.782190122991	"15"	185970.596666287	185948.770375381	1.5	0.1
0.01	1	0.1187592530041	1	120	NA	388.608641603991	0	0.49	4.5	1	374.007208169001	374.125967422005	"15"	185970.596666287	185948.770375381	1.5	0.1
0.01	1	0.0877693689835723	1	120	NA	388.608641603991	0	0.49	4.5	1	374.357772823016	374.445542191999	"15"	185970.596666287	185948.770375381	1.5	0.1
0.01	1	0.0984402920003049	1	120	NA	388.608641603991	0	0.49	4.5	1	374.675077663996	374.773517955997	"15"	185970.596666287	185948.770375381	1.5	0.1
0.01	1	0.0851763809914701	1	120	NA	388.608641603991	0	0.49	4.5	1	375.008941836015	375.094118217006	"15"	185970.596666287	185948.770375381	1.5	0.1
0.01	1	0.128167253016727	1	120	NA	388.608641603991	0	0.49	4.5	1	375.32611107899	375.454278332007	"15"	185970.596666287	185948.770375381	1.5	0.1
0.01	1	0.082100256026024	1	120	NA	388.608641603991	0	0.49	4.5	1	375.67671266399	375.758812920016	"15"	185970.596666287	185948.770375381	1.5	0.1
0.01	1	0.0913412889931351	1	120	NA	388.608641603991	0	0.49	4.5	1	375.994070759014	376.085412048007	"15"	185970.596666287	185948.770375381	1.5	0.1
0.01	1	0.104269278002903	1	120	NA	388.608641603991	0	0.49	4.5	1	376.311087873997	376.415357152	"15"	185970.596666287	185948.770375381	1.5	0.1
0.01	1	0.114688461006153	1	120	NA	388.608641603991	0	0.49	4.5	1	376.645003329002	376.759691790008	"15"	185970.596666287	185948.770375381	1.5	0.1
0.01	1	0.0905874010059051	1	120	NA	388.608641603991	0	0.49	4.5	1	376.995622841001	377.086210242007	"15"	185970.596666287	185948.770375381	1.5	0.1
0.01	1	0.0859474960016087	1	120	NA	388.608641603991	0	0.49	4.5	1	377.312783044006	377.398730540008	"15"	185970.596666287	185948.770375381	1.5	0.1
0.01	1	0.0959171860013157	1	120	NA	388.608641603991	0	0.49	4.5	1	377.630002056016	377.725919242017	"15"	185970.596666287	185948.770375381	1.5	0.1
0.01	1	0.081889703986235	1	120	NA	388.608641603991	0	0.49	4.5	1	377.963822396006	378.045712099993	"15"	185970.596666287	185948.770375381	1.5	0.1
0.01	1	0.0848798700026236	1	120	NA	388.608641603991	0	0.49	4.5	1	378.281046188989	378.365926058992	"15"	185970.596666287	185948.770375381	1.5	0.1
0.01	1	0.103089184005512	1	120	NA	388.608641603991	0	0.49	4.5	1	378.598341459001	378.701430643006	"15"	185970.596666287	185948.770375381	1.5	0.1
0.01	1	0.106496784021147	1	120	NA	388.608641603991	0	0.49	4.5	1	378.932259063993	379.038755848014	"15"	185970.596666287	185948.770375381	1.5	0.1
0.01	1	0.100262549007311	1	120	NA	388.608641603991	0	0.49	4.5	1	379.266052961	379.366315510008	"15"	185970.596666287	185948.770375381	1.5	0.1
0.01	1	0.102570310991723	1	120	NA	388.608641603991	0	0.49	4.5	1	379.599939089007	379.702509399998	"15"	185970.596666287	185948.770375381	1.5	0.1
0.01	1	0.0889570349827409	1	120	NA	388.608641603991	0	0.49	4.5	1	379.933876029012	380.022833063995	"15"	185970.596666287	185948.770375381	1.5	0.1
0.01	1	0.106307617999846	1	120	NA	388.608641603991	0	0.49	4.5	1	380.250985040999	380.357292658999	"15"	185970.596666287	185948.770375381	1.5	0.1
0.01	1	0.0860183020122349	1	120	NA	388.608641603991	0	0.49	4.5	1	380.584934523999	380.670952826011	"15"	185970.596666287	185948.770375381	1.5	0.1
0.01	1	0.105099647014868	1	120	NA	388.608641603991	0	0.49	4.5	1	380.902203798993	381.007303446007	"15"	185970.596666287	185948.770375381	1.5	0.1
0.01	1	0.0833012009970844	1	120	NA	388.608641603991	0	0.49	4.5	1	381.236028951011	381.319330152008	"15"	185970.596666287	185948.770375381	1.5	0.1
0.01	1	0.117034845025046	1	120	NA	388.608641603991	0	0.49	4.5	1	381.553331695992	381.670366541017	"15"	185970.596666287	185948.770375381	1.5	0.1
0.01	1	0.102703639975516	1	120	NA	388.608641603991	0	0.49	4.5	1	381.903883576015	382.00658721599	"15"	185970.596666287	185948.770375381	1.5	0.1
0.01	1	0.127980159973959	1	120	NA	388.608641603991	0	0.49	4.5	1	382.237715454015	382.365695613989	"15"	185970.596666287	185948.770375381	1.5	0.1
0.01	1	0.121695815003477	1	120	NA	388.608641603991	0	0.49	4.5	1	382.588364154013	382.710059969017	"15"	185970.596666287	185948.770375381	1.5	0.1
0.01	1	0.115093704982428	1	120	NA	388.608641603991	0	0.49	4.5	1	382.938923044014	383.054016748996	"15"	185970.596666287	185948.770375381	1.5	0.1
0.01	1	0.0920539770158939	1	120	NA	388.608641603991	0	0.49	4.5	1	383.289518183999	383.381572161015	"15"	185970.596666287	185948.770375381	1.5	0.1
0.01	1	0.120408251998015	1	120	NA	388.608641603991	0	0.49	4.5	1	383.606633368996	383.727041620994	"15"	185970.596666287	185948.770375381	1.5	0.1
0.01	1	0.0897256789903622	1	120	NA	388.608641603991	0	0.49	4.5	1	383.957353761012	384.047079440003	"15"	185970.596666287	185948.770375381	1.5	0.1
0.01	1	0.0846718699904159	1	120	NA	388.608641603991	0	0.49	4.5	1	384.274516024016	384.359187894006	"15"	185970.596666287	185948.770375381	1.5	0.1
0.01	1	0.0952631230175029	1	120	NA	388.608641603991	0	0.49	4.5	1	384.591735858994	384.686998982012	"15"	185970.596666287	185948.770375381	1.5	0.1
0.01	1	0.104251908021979	1	120	NA	388.608641603991	0	0.49	4.5	1	384.925609233993	385.029861142015	"15"	185970.596666287	185948.770375381	1.5	0.1
0.01	1	0.0839059739955701	1	120	NA	388.608641603991	0	0.49	4.5	1	385.259413549007	385.343319523003	"15"	185970.596666287	185948.770375381	1.5	0.1
0.01	1	0.110387775988784	1	120	NA	388.608641603991	0	0.49	4.5	1	385.576679766004	385.687067541992	"15"	185970.596666287	185948.770375381	1.5	0.1
0.01	1	0.112662280997029	1	120	NA	388.608641603991	0	0.49	4.5	1	385.910511658993	386.02317393999	"15"	185970.596666287	185948.770375381	1.5	0.1
0.01	1	0.0883499819901772	1	120	NA	388.608641603991	0	0.49	4.5	1	386.261213021004	386.349563002994	"15"	185970.596666287	185948.770375381	1.5	0.1
0.01	1	0.106855938007357	1	120	NA	388.608641603991	0	0.49	4.5	1	386.578429518995	386.685285457002	"15"	185970.596666287	185948.770375381	1.5	0.1
0.01	1	0.0774541299906559	1	120	NA	388.608641603991	0	0.49	4.5	1	386.912300969008	386.989755098999	"15"	185970.596666287	185948.770375381	1.5	0.1
0.01	1	0.0972271270002238	1	120	NA	388.608641603991	0	0.49	4.5	1	387.212837939005	387.310065066005	"15"	185970.596666287	185948.770375381	1.5	0.1
0.01	1	0.0670560889993794	1	120	NA	388.608641603991	0	0.49	4.5	1	387.546726909	387.613782998	"15"	185970.596666287	185948.770375381	1.5	0.1
0.01	1	0.0622540230106097	1	120	NA	388.608641603991	0	0.49	4.5	1	387.84721938899	387.909473412001	"15"	185970.596666287	185948.770375381	1.5	0.1
0.01	1	0.459577141009504	2	120	NA	388.608641603991	0	0.49	4.5	1	388.147618221003	388.607195362012	"15"	185970.596666287	185948.770375381	1.5	0.1
0.01	1	0.770909571001539	1	109	NA	417.640992499015	0	0.49	4.99	1	390.635219421005	391.406128992006	"16"	185970.596666287	185948.770375381	1.5	0.1
0.01	1	0.346377084992127	1	109	NA	417.640992499015	0	0.49	4.99	1	391.636894424009	391.983271509001	"16"	185970.596666287	185948.770375381	1.5	0.1
0.01	1	0.22507467502146	1	109	NA	417.640992499015	0	0.49	4.99	1	392.22120891299	392.446283588011	"16"	185970.596666287	185948.770375381	1.5	0.1
0.01	1	0.173914734012214	1	109	NA	417.640992499015	0	0.49	4.99	1	392.672073416004	392.845988150017	"16"	185970.596666287	185948.770375381	1.5	0.1
0.01	1	0.293312224996043	1	109	NA	417.640992499015	0	0.49	4.99	1	393.072603109002	393.365915333998	"16"	185970.596666287	185948.770375381	1.5	0.1
0.01	1	0.2714124500053	1	109	NA	417.640992499015	0	0.49	4.99	1	393.590149308991	393.861561758997	"16"	185970.596666287	185948.770375381	1.5	0.1
0.01	1	0.251978601008886	1	109	NA	417.640992499015	0	0.49	4.99	1	394.091058991005	394.343037592014	"16"	185970.596666287	185948.770375381	1.5	0.1
0.01	1	0.247038939007325	1	109	NA	417.640992499015	0	0.49	4.99	1	394.575203916	394.822242855007	"16"	185970.596666287	185948.770375381	1.5	0.1
0.01	1	0.219248882989632	1	109	NA	417.640992499015	0	0.49	4.99	1	395.05934592901	395.278594812	"16"	185970.596666287	185948.770375381	1.5	0.1
0.01	1	0.26321245500003	1	109	NA	417.640992499015	0	0.49	4.99	1	395.510100579006	395.773313034006	"16"	185970.596666287	185948.770375381	1.5	0.1
0.01	1	0.298771522007883	1	109	NA	417.640992499015	0	0.49	4.99	1	396.010860373994	396.309631896002	"16"	185970.596666287	185948.770375381	1.5	0.1
0.01	1	0.27778577801655	1	109	NA	417.640992499015	0	0.49	4.99	1	396.545088446001	396.822874224017	"16"	185970.596666287	185948.770375381	1.5	0.1
0.01	1	0.28751992402249	1	109	NA	417.640992499015	0	0.49	4.99	1	397.046087600989	397.333607525012	"16"	185970.596666287	185948.770375381	1.5	0.1
0.01	1	0.266307091980707	1	109	NA	417.640992499015	0	0.49	4.99	1	397.563519281015	397.829826372996	"16"	185970.596666287	185948.770375381	1.5	0.1
0.01	1	0.269269394979347	1	109	NA	417.640992499015	0	0.49	4.99	1	398.064310284011	398.333579678991	"16"	185970.596666287	185948.770375381	1.5	0.1
0.01	1	0.241052728990326	1	109	NA	417.640992499015	0	0.49	4.99	1	398.565189559013	398.806242288003	"16"	185970.596666287	185948.770375381	1.5	0.1
0.01	1	0.333888552995631	1	109	NA	417.640992499015	0	0.49	4.99	1	399.032758314017	399.366646867013	"16"	185970.596666287	185948.770375381	1.5	0.1
0.01	1	0.357466517976718	1	109	NA	417.640992499015	0	0.49	4.99	1	399.600339176017	399.957805693994	"16"	185970.596666287	185948.770375381	1.5	0.1
0.01	1	0.309785065997858	1	109	NA	417.640992499015	0	0.49	4.99	1	400.184599141008	400.494384207006	"16"	185970.596666287	185948.770375381	1.5	0.1
0.01	1	0.91798676099279	1	109	NA	417.640992499015	0	0.49	4.99	1	400.735526519013	401.653513280005	"16"	185970.596666287	185948.770375381	1.5	0.1
0.01	1	1.02413738198811	1	109	NA	417.640992499015	0	0.49	4.99	1	401.887376571016	402.911513953004	"16"	185970.596666287	185948.770375381	1.5	0.1
0.01	1	0.378659534006147	1	109	NA	417.640992499015	0	0.49	4.99	1	403.139603488991	403.518263022997	"16"	185970.596666287	185948.770375381	1.5	0.1
0.01	1	0.224434148985893	1	109	NA	417.640992499015	0	0.49	4.99	1	403.757196534018	403.981630683003	"16"	185970.596666287	185948.770375381	1.5	0.1
0.01	1	0.270337632013252	1	109	NA	417.640992499015	0	0.49	4.99	1	404.208036138996	404.47837377101	"16"	185970.596666287	185948.770375381	1.5	0.1
0.01	1	0.209865750017343	1	109	NA	417.640992499015	0	0.49	4.99	1	404.708867423993	404.91873317401	"16"	185970.596666287	185948.770375381	1.5	0.1
0.01	1	0.295802122011082	1	109	NA	417.640992499015	0	0.49	4.99	1	405.14285899399	405.438661116001	"16"	185970.596666287	185948.770375381	1.5	0.1
0.01	1	0.25652708200505	1	109	NA	417.640992499015	0	0.49	4.99	1	405.677089103992	405.933616185997	"16"	185970.596666287	185948.770375381	1.5	0.1
0.01	1	0.196848955005407	1	109	NA	417.640992499015	0	0.49	4.99	1	406.161268889002	406.358117844007	"16"	185970.596666287	185948.770375381	1.5	0.1
0.01	1	0.267171143001178	1	109	NA	417.640992499015	0	0.49	4.99	1	406.595343118999	406.862514262	"16"	185970.596666287	185948.770375381	1.5	0.1
0.01	1	0.230898338981206	1	109	NA	417.640992499015	0	0.49	4.99	1	407.096187059011	407.327085397992	"16"	185970.596666287	185948.770375381	1.5	0.1
0.01	1	0.291610836022301	1	109	NA	417.640992499015	0	0.49	4.99	1	407.563716495992	407.855327332014	"16"	185970.596666287	185948.770375381	1.5	0.1
0.01	1	0.261854078999022	1	109	NA	417.640992499015	0	0.49	4.99	1	408.081245701003	408.343099780002	"16"	185970.596666287	185948.770375381	1.5	0.1
0.01	1	0.297869506990537	1	109	NA	417.640992499015	0	0.49	4.99	1	408.565281206014	408.863150713005	"16"	185970.596666287	185948.770375381	1.5	0.1
0.01	1	0.218041558982804	1	109	NA	417.640992499015	0	0.49	4.99	1	409.099569564016	409.317611122999	"16"	185970.596666287	185948.770375381	1.5	0.1
0.01	1	0.265055197000038	1	109	NA	417.640992499015	0	0.49	4.99	1	409.550312456005	409.815367653006	"16"	185970.596666287	185948.770375381	1.5	0.1
0.01	1	0.274390676000621	1	109	NA	417.640992499015	0	0.49	4.99	1	410.051262034016	410.325652710017	"16"	185970.596666287	185948.770375381	1.5	0.1
0.01	1	0.278557473007822	1	109	NA	417.640992499015	0	0.49	4.99	1	410.551997795992	410.830555269	"16"	185970.596666287	185948.770375381	1.5	0.1
0.01	1	0.23430072501651	1	109	NA	417.640992499015	0	0.49	4.99	1	411.052953453996	411.287254179013	"16"	185970.596666287	185948.770375381	1.5	0.1
0.01	1	0.261386002996005	1	109	NA	417.640992499015	0	0.49	4.99	1	411.520416170999	411.781802173995	"16"	185970.596666287	185948.770375381	1.5	0.1
0.01	1	0.282429776008939	1	109	NA	417.640992499015	0	0.49	4.99	1	412.00438862099	412.286818396999	"16"	185970.596666287	185948.770375381	1.5	0.1
0.01	1	0.317509962012991	1	109	NA	417.640992499015	0	0.49	4.99	1	412.521998523996	412.839508486009	"16"	185970.596666287	185948.770375381	1.5	0.1
0.01	1	0.269764349999605	1	109	NA	417.640992499015	0	0.49	4.99	1	413.07301084901	413.342775199009	"16"	185970.596666287	185948.770375381	1.5	0.1
0.01	1	0.257286681997357	1	109	NA	417.640992499015	0	0.49	4.99	1	413.573747093993	413.83103377599	"16"	185970.596666287	185948.770375381	1.5	0.1
0.01	1	0.228701248997822	1	109	NA	417.640992499015	0	0.49	4.99	1	414.057932343014	414.286633592012	"16"	185970.596666287	185948.770375381	1.5	0.1
0.01	1	0.19376128501608	1	109	NA	417.640992499015	0	0.49	4.99	1	414.508612770995	414.702374056011	"16"	185970.596666287	185948.770375381	1.5	0.1
0.01	1	0.248552392004058	1	109	NA	417.640992499015	0	0.49	4.99	1	414.926062068989	415.174614460993	"16"	185970.596666287	185948.770375381	1.5	0.1
0.01	1	0.252923179010395	1	109	NA	417.640992499015	0	0.49	4.99	1	415.410322384007	415.663245563017	"16"	185970.596666287	185948.770375381	1.5	0.1
0.01	1	0.280084398022154	1	109	NA	417.640992499015	0	0.49	4.99	1	415.894317950995	416.174402349017	"16"	185970.596666287	185948.770375381	1.5	0.1
0.01	1	0.299218166997889	1	109	NA	417.640992499015	0	0.49	4.99	1	416.411890440999	416.711108607997	"16"	185970.596666287	185948.770375381	1.5	0.1
0.01	1	0.693166494980687	2	109	NA	417.640992499015	0	0.49	4.99	1	416.946187051013	417.639353545994	"16"	185970.596666287	185948.770375381	1.5	0.1
0.01	1	0.78647684500902	1	71	NA	445.822979212011	0	0.49	5.48	1	419.684003294009	420.470480139018	"17"	185970.596666287	185948.770375381	1.5	0.1
0.01	1	0.304736279998906	1	71	NA	445.822979212011	0	0.49	5.48	1	420.702497951017	421.007234231016	"17"	185970.596666287	185948.770375381	1.5	0.1
0.01	1	0.33722431701608	1	71	NA	445.822979212011	0	0.49	5.48	1	421.236675510998	421.573899828014	"17"	185970.596666287	185948.770375381	1.5	0.1
0.01	1	0.417709248984465	1	71	NA	445.822979212011	0	0.49	5.48	1	421.804329644016	422.222038893	"17"	185970.596666287	185948.770375381	1.5	0.1
0.01	1	0.51910298501025	1	71	NA	445.822979212011	0	0.49	5.48	1	422.455366740993	422.974469726003	"17"	185970.596666287	185948.770375381	1.5	0.1
0.01	1	0.582768068998121	1	71	NA	445.822979212011	0	0.49	5.48	1	423.206758651009	423.789526720007	"17"	185970.596666287	185948.770375381	1.5	0.1
0.01	1	0.382608106010593	1	71	NA	445.822979212011	0	0.49	5.48	1	424.024694463995	424.407302570005	"17"	185970.596666287	185948.770375381	1.5	0.1
0.01	1	0.29969526999048	1	71	NA	445.822979212011	0	0.49	5.48	1	424.642428524006	424.942123793997	"17"	185970.596666287	185948.770375381	1.5	0.1
0.01	1	0.350050488021225	1	71	NA	445.822979212011	0	0.49	5.48	1	425.17663365099	425.526684139011	"17"	185970.596666287	185948.770375381	1.5	0.1
0.01	1	0.324796899018111	1	71	NA	445.822979212011	0	0.49	5.48	1	425.760982773994	426.085779673012	"17"	185970.596666287	185948.770375381	1.5	0.1
0.01	1	0.327134448016295	1	71	NA	445.822979212011	0	0.49	5.48	1	426.311919783999	426.639054232015	"17"	185970.596666287	185948.770375381	1.5	0.1
0.01	1	0.279102375003276	1	71	NA	445.822979212011	0	0.49	5.48	1	426.862812036008	427.141914411011	"17"	185970.596666287	185948.770375381	1.5	0.1
0.01	1	0.27387002701289	1	71	NA	445.822979212011	0	0.49	5.48	1	427.380336778995	427.654206806008	"17"	185970.596666287	185948.770375381	1.5	0.1
0.01	1	0.293296189018292	1	71	NA	445.822979212011	0	0.49	5.48	1	427.881194451998	428.174490641017	"17"	185970.596666287	185948.770375381	1.5	0.1
0.01	1	0.256449170003179	1	71	NA	445.822979212011	0	0.49	5.48	1	428.398675778008	428.655124948011	"17"	185970.596666287	185948.770375381	1.5	0.1
0.01	1	0.195821300003445	1	71	NA	445.822979212011	0	0.49	5.48	1	428.882828378992	429.078649678995	"17"	185970.596666287	185948.770375381	1.5	0.1
0.01	1	0.216483922995394	1	71	NA	445.822979212011	0	0.49	5.48	1	429.316859179002	429.533343101997	"17"	185970.596666287	185948.770375381	1.5	0.1
0.01	1	0.215293496003142	1	71	NA	445.822979212011	0	0.49	5.48	1	429.767651614005	429.982945110009	"17"	185970.596666287	185948.770375381	1.5	0.1
0.01	1	0.219493415002944	1	71	NA	445.822979212011	0	0.49	5.48	1	430.218432130991	430.437925545993	"17"	185970.596666287	185948.770375381	1.5	0.1
0.01	1	0.265025444998173	1	71	NA	445.822979212011	0	0.49	5.48	1	430.669272833999	430.934298278997	"17"	185970.596666287	185948.770375381	1.5	0.1
0.01	1	0.315865573997144	1	71	NA	445.822979212011	0	0.49	5.48	1	431.170186609001	431.486052182998	"17"	185970.596666287	185948.770375381	1.5	0.1
0.01	1	0.285788707988104	1	71	NA	445.822979212011	0	0.49	5.48	1	431.72094156401	432.006730271998	"17"	185970.596666287	185948.770375381	1.5	0.1
0.01	1	0.256504994002171	1	71	NA	445.822979212011	0	0.49	5.48	1	432.238540474005	432.495045468007	"17"	185970.596666287	185948.770375381	1.5	0.1
0.01	1	0.220299917011289	1	71	NA	445.822979212011	0	0.49	5.48	1	432.722648844006	432.942948761018	"17"	185970.596666287	185948.770375381	1.5	0.1
0.01	1	0.208284681983059	1	71	NA	445.822979212011	0	0.49	5.48	1	433.173421214015	433.381705895998	"17"	185970.596666287	185948.770375381	1.5	0.1
0.01	1	0.270877029019175	1	71	NA	445.822979212011	0	0.49	5.48	1	433.607555313996	433.878432343015	"17"	185970.596666287	185948.770375381	1.5	0.1
0.01	1	0.232956126012141	1	71	NA	445.822979212011	0	0.49	5.48	1	434.108351756004	434.341307882016	"17"	185970.596666287	185948.770375381	1.5	0.1
0.01	1	0.237740223004948	1	71	NA	445.822979212011	0	0.49	5.48	1	434.575740158994	434.813480381999	"17"	185970.596666287	185948.770375381	1.5	0.1
0.01	1	0.259848843998043	1	71	NA	445.822979212011	0	0.49	5.48	1	435.043333959009	435.303182803007	"17"	185970.596666287	185948.770375381	1.5	0.1
0.01	1	0.230968179996125	1	71	NA	445.822979212011	0	0.49	5.48	1	435.527301410999	435.758269590995	"17"	185970.596666287	185948.770375381	1.5	0.1
0.01	1	0.274978444998851	1	71	NA	445.822979212011	0	0.49	5.48	1	435.994860794017	436.269839239016	"17"	185970.596666287	185948.770375381	1.5	0.1
0.01	1	0.271607333997963	1	71	NA	445.822979212011	0	0.49	5.48	1	436.495681408996	436.767288742994	"17"	185970.596666287	185948.770375381	1.5	0.1
0.01	1	0.265068063017679	1	71	NA	445.822979212011	0	0.49	5.48	1	436.996548408992	437.261616472009	"17"	185970.596666287	185948.770375381	1.5	0.1
0.01	1	0.228440492006484	1	71	NA	445.822979212011	0	0.49	5.48	1	437.497334293992	437.725774785999	"17"	185970.596666287	185948.770375381	1.5	0.1
0.01	1	0.26616919998196	1	71	NA	445.822979212011	0	0.49	5.48	1	437.948098779016	438.214267978998	"17"	185970.596666287	185948.770375381	1.5	0.1
0.01	1	0.236710341006983	1	71	NA	445.822979212011	0	0.49	5.48	1	438.448911615997	438.685621957004	"17"	185970.596666287	185948.770375381	1.5	0.1
