"payoff.level"	"balloon"	"rt"	"resp"	"explode.trial"	"explode.time"	"finish.time"	"exploded"	"trial.total"	"cumulative.total"	"finished"	"trial.start"	"trial.end"	"trial.num"	"secs"	"start.time"	"iti"	"isi"
0.01	1	1.77297490699857	1	64	NA	59.4501162849992	0	0.45	0.45	1	0.00861555799929192	1.78159046499786	"1"	45160.349224579	45153.478126956	1.5	0.1
0.01	1	1.83735143499507	1	64	NA	59.4501162849992	0	0.45	0.45	1	2.14545146500313	3.98280289999821	"1"	45160.349224579	45153.478126956	1.5	0.1
0.01	1	1.75947091099806	1	64	NA	59.4501162849992	0	0.45	0.45	1	4.21550676500192	5.97497767599998	"1"	45160.349224579	45153.478126956	1.5	0.1
0.01	1	1.81312163399707	1	64	NA	59.4501162849992	0	0.45	0.45	1	6.20222831200226	8.01534994599933	"1"	45160.349224579	45153.478126956	1.5	0.1
0.01	1	1.79943552299665	1	64	NA	59.4501162849992	0	0.45	0.45	1	8.25561440500314	10.0550499279998	"1"	45160.349224579	45153.478126956	1.5	0.1
0.01	1	1.54721225600224	1	64	NA	59.4501162849992	0	0.45	0.45	1	10.2923925950017	11.839604851004	"1"	45160.349224579	45153.478126956	1.5	0.1
0.01	1	1.46442193300027	1	64	NA	59.4501162849992	0	0.45	0.45	1	12.0787132550031	13.5431351880034	"1"	45160.349224579	45153.478126956	1.5	0.1
0.01	1	1.28154672500386	1	64	NA	59.4501162849992	0	0.45	0.45	1	13.7648941529987	15.0464408780026	"1"	45160.349224579	45153.478126956	1.5	0.1
0.01	1	1.55373253200378	1	64	NA	59.4501162849992	0	0.45	0.45	1	15.2841681369973	16.8379006690011	"1"	45160.349224579	45153.478126956	1.5	0.1
0.01	1	1.14423587900092	1	64	NA	59.4501162849992	0	0.45	0.45	1	17.0704144499978	18.2146503289987	"1"	45160.349224579	45153.478126956	1.5	0.1
0.01	1	3.71273002800444	1	64	NA	59.4501162849992	0	0.45	0.45	1	18.4561295099993	22.1688595380037	"1"	45160.349224579	45153.478126956	1.5	0.1
0.01	1	0.41322980899713	1	64	NA	59.4501162849992	0	0.45	0.45	1	22.3960520570035	22.8092818660007	"1"	45160.349224579	45153.478126956	1.5	0.1
0.01	1	0.418576553995081	1	64	NA	59.4501162849992	0	0.45	0.45	1	23.0472187690029	23.465795322998	"1"	45160.349224579	45153.478126956	1.5	0.1
0.01	1	0.318884774998878	1	64	NA	59.4501162849992	0	0.45	0.45	1	23.6982089220037	24.0170936970026	"1"	45160.349224579	45153.478126956	1.5	0.1
0.01	1	0.544718522003677	1	64	NA	59.4501162849992	0	0.45	0.45	1	24.2492858859987	24.7940044080024	"1"	45160.349224579	45153.478126956	1.5	0.1
0.01	1	2.00037245500425	1	64	NA	59.4501162849992	0	0.45	0.45	1	25.0171579419984	27.0175303970027	"1"	45160.349224579	45153.478126956	1.5	0.1
0.01	1	0.425927620999573	1	64	NA	59.4501162849992	0	0.45	0.45	1	27.2543096220033	27.6802372430029	"1"	45160.349224579	45153.478126956	1.5	0.1
0.01	1	0.440038139000535	1	64	NA	59.4501162849992	0	0.45	0.45	1	27.9053471599982	28.3453852989987	"1"	45160.349224579	45153.478126956	1.5	0.1
0.01	1	0.38878389599995	1	64	NA	59.4501162849992	0	0.45	0.45	1	28.5731994099988	28.9619833059987	"1"	45160.349224579	45153.478126956	1.5	0.1
0.01	1	0.522692151003866	1	64	NA	59.4501162849992	0	0.45	0.45	1	29.1909038550002	29.7135960060041	"1"	45160.349224579	45153.478126956	1.5	0.1
0.01	1	1.50695229799749	1	64	NA	59.4501162849992	0	0.45	0.45	1	29.9421353200014	31.4490876179989	"1"	45160.349224579	45153.478126956	1.5	0.1
0.01	1	0.41829457199492	1	64	NA	59.4501162849992	0	0.45	0.45	1	31.6783379800036	32.0966325519985	"1"	45160.349224579	45153.478126956	1.5	0.1
0.01	1	0.503713737001817	1	64	NA	59.4501162849992	0	0.45	0.45	1	32.3295242669992	32.833238004001	"1"	45160.349224579	45153.478126956	1.5	0.1
0.01	1	0.386097611997684	1	64	NA	59.4501162849992	0	0.45	0.45	1	33.0641057899993	33.450203401997	"1"	45160.349224579	45153.478126956	1.5	0.1
0.01	1	0.391979573003482	1	64	NA	59.4501162849992	0	0.45	0.45	1	33.6818310550007	34.0738106280041	"1"	45160.349224579	45153.478126956	1.5	0.1
0.01	1	3.866740999998	1	64	NA	59.4501162849992	0	0.45	0.45	1	34.299554407	38.166295406998	"1"	45160.349224579	45153.478126956	1.5	0.1
0.01	1	0.190341216999514	1	64	NA	59.4501162849992	0	0.45	0.45	1	38.4063615949999	38.5967028119994	"1"	45160.349224579	45153.478126956	1.5	0.1
0.01	1	0.214123349003785	1	64	NA	59.4501162849992	0	0.45	0.45	1	38.8237574649975	39.0378808140013	"1"	45160.349224579	45153.478126956	1.5	0.1
0.01	1	0.25941273799981	1	64	NA	59.4501162849992	0	0.45	0.45	1	39.2745360400004	39.5339487780002	"1"	45160.349224579	45153.478126956	1.5	0.1
0.01	1	0.262846685000113	1	64	NA	59.4501162849992	0	0.45	0.45	1	39.7586801670041	40.0215268520042	"1"	45160.349224579	45153.478126956	1.5	0.1
0.01	1	2.49753317199793	1	64	NA	59.4501162849992	0	0.45	0.45	1	40.2594021170007	42.7569352889986	"1"	45160.349224579	45153.478126956	1.5	0.1
0.01	1	0.335702496995509	1	64	NA	59.4501162849992	0	0.45	0.45	1	42.9974705150016	43.3331730119971	"1"	45160.349224579	45153.478126956	1.5	0.1
0.01	1	0.321533820999321	1	64	NA	59.4501162849992	0	0.45	0.45	1	43.5649829469985	43.8865167679978	"1"	45160.349224579	45153.478126956	1.5	0.1
0.01	1	0.306250929999806	1	64	NA	59.4501162849992	0	0.45	0.45	1	44.1160086320015	44.4222595620013	"1"	45160.349224579	45153.478126956	1.5	0.1
0.01	1	0.306496404002246	1	64	NA	59.4501162849992	0	0.45	0.45	1	44.650236524998	44.9567329290003	"1"	45160.349224579	45153.478126956	1.5	0.1
0.01	1	2.40486666699871	1	64	NA	59.4501162849992	0	0.45	0.45	1	45.184449942004	47.5893166090027	"1"	45160.349224579	45153.478126956	1.5	0.1
0.01	1	0.655270604001998	1	64	NA	59.4501162849992	0	0.45	0.45	1	47.8222088589973	48.4774794629993	"1"	45160.349224579	45153.478126956	1.5	0.1
0.01	1	0.354693975001283	1	64	NA	59.4501162849992	0	0.45	0.45	1	48.7070492670027	49.061743242004	"1"	45160.349224579	45153.478126956	1.5	0.1
0.01	1	0.170115497996449	1	64	NA	59.4501162849992	0	0.45	0.45	1	49.2914214800039	49.4615369780004	"1"	45160.349224579	45153.478126956	1.5	0.1
0.01	1	0.352495747996727	1	64	NA	59.4501162849992	0	0.45	0.45	1	49.6921297500012	50.0446254979979	"1"	45160.349224579	45153.478126956	1.5	0.1
0.01	1	5.10002721499768	1	64	NA	59.4501162849992	0	0.45	0.45	1	50.2763097999996	55.3763370149973	"1"	45160.349224579	45153.478126956	1.5	0.1
0.01	1	0.534747056000924	1	64	NA	59.4501162849992	0	0.45	0.45	1	55.601939567001	56.1366866230019	"1"	45160.349224579	45153.478126956	1.5	0.1
0.01	1	0.302326173994516	1	64	NA	59.4501162849992	0	0.45	0.45	1	56.3699331750031	56.6722593489976	"1"	45160.349224579	45153.478126956	1.5	0.1
0.01	1	0.385034842998721	1	64	NA	59.4501162849992	0	0.45	0.45	1	56.904091700002	57.2891265430007	"1"	45160.349224579	45153.478126956	1.5	0.1
0.01	1	0.119882397993933	1	64	NA	59.4501162849992	0	0.45	0.45	1	57.5218830220037	57.6417654199977	"1"	45160.349224579	45153.478126956	1.5	0.1
0.01	1	1.57604925100168	2	64	NA	59.4501162849992	0	0.45	0.45	1	57.8724090239994	59.448458275001	"1"	45160.349224579	45153.478126956	1.5	0.1
0.01	1	3.43727685799968	1	119	NA	89.3273704849998	0	0.43	0.88	1	61.4951951850016	64.9324720430013	"2"	45160.349224579	45153.478126956	1.5	0.1
0.01	1	0.61353559300187	1	119	NA	89.3273704849998	0	0.43	0.88	1	65.1681425770003	65.7816781700021	"2"	45160.349224579	45153.478126956	1.5	0.1
0.01	1	0.346270017995266	1	119	NA	89.3273704849998	0	0.43	0.88	1	66.0195298870021	66.3657999049974	"2"	45160.349224579	45153.478126956	1.5	0.1
0.01	1	0.352853686999879	1	119	NA	89.3273704849998	0	0.43	0.88	1	66.6038891920034	66.9567428790033	"2"	45160.349224579	45153.478126956	1.5	0.1
0.01	1	0.648585125003592	1	119	NA	89.3273704849998	0	0.43	0.88	1	67.1881680329971	67.8367531580006	"2"	45160.349224579	45153.478126956	1.5	0.1
0.01	1	1.87567551199754	1	119	NA	89.3273704849998	0	0.43	0.88	1	68.072989747001	69.9486652589985	"2"	45160.349224579	45153.478126956	1.5	0.1
0.01	1	0.23736969800666	1	119	NA	89.3273704849998	0	0.43	0.88	1	70.1765242999973	70.4138939980039	"2"	45160.349224579	45153.478126956	1.5	0.1
0.01	1	0.208867211003962	1	119	NA	89.3273704849998	0	0.43	0.88	1	70.6439208349984	70.8527880460024	"2"	45160.349224579	45153.478126956	1.5	0.1
0.01	1	0.287061687005917	1	119	NA	89.3273704849998	0	0.43	0.88	1	71.0779905469972	71.3650522340031	"2"	45160.349224579	45153.478126956	1.5	0.1
0.01	1	0.209793612004432	1	119	NA	89.3273704849998	0	0.43	0.88	1	71.5955161149977	71.8053097270022	"2"	45160.349224579	45153.478126956	1.5	0.1
0.01	1	1.58286029599549	1	119	NA	89.3273704849998	0	0.43	0.88	1	72.046193275004	73.6290535709995	"2"	45160.349224579	45153.478126956	1.5	0.1
0.01	1	0.211812342000485	1	119	NA	89.3273704849998	0	0.43	0.88	1	73.866015364998	74.0778277069985	"2"	45160.349224579	45153.478126956	1.5	0.1
0.01	1	0.280746651995287	1	119	NA	89.3273704849998	0	0.43	0.88	1	74.3000149220024	74.5807615739977	"2"	45160.349224579	45153.478126956	1.5	0.1
0.01	1	0.243593344996043	1	119	NA	89.3273704849998	0	0.43	0.88	1	74.8175597400041	75.0611530850001	"2"	45160.349224579	45153.478126956	1.5	0.1
0.01	1	0.182988468994154	1	119	NA	89.3273704849998	0	0.43	0.88	1	75.3016939150039	75.484682383998	"2"	45160.349224579	45153.478126956	1.5	0.1
0.01	1	0.134020910998515	1	119	NA	89.3273704849998	0	0.43	0.88	1	75.7190934169994	75.8531143279979	"2"	45160.349224579	45153.478126956	1.5	0.1
0.01	1	0.126835955998104	1	119	NA	89.3273704849998	0	0.43	0.88	1	76.086490366004	76.2133263220021	"2"	45160.349224579	45153.478126956	1.5	0.1
0.01	1	0.087630772999546	1	119	NA	89.3273704849998	0	0.43	0.88	1	76.4370562850017	76.5246870580013	"2"	45160.349224579	45153.478126956	1.5	0.1
0.01	1	0.171589844001574	1	119	NA	89.3273704849998	0	0.43	0.88	1	76.7541844070001	76.9257742510017	"2"	45160.349224579	45153.478126956	1.5	0.1
0.01	1	0.249465471999429	1	119	NA	89.3273704849998	0	0.43	0.88	1	77.1548680620035	77.4043335340029	"2"	45160.349224579	45153.478126956	1.5	0.1
0.01	1	1.54174718199647	1	119	NA	89.3273704849998	0	0.43	0.88	1	77.6390073400034	79.1807545219999	"2"	45160.349224579	45153.478126956	1.5	0.1
0.01	1	0.116239260998555	1	119	NA	89.3273704849998	0	0.43	0.88	1	79.4087325450018	79.5249718060004	"2"	45160.349224579	45153.478126956	1.5	0.1
0.01	1	0.0705979679987649	1	119	NA	89.3273704849998	0	0.43	0.88	1	79.7592679820009	79.8298659499997	"2"	45160.349224579	45153.478126956	1.5	0.1
0.01	1	0.0893921579991002	1	119	NA	89.3273704849998	0	0.43	0.88	1	80.0597219870033	80.1491141450024	"2"	45160.349224579	45153.478126956	1.5	0.1
0.01	1	0.0844924490011181	1	119	NA	89.3273704849998	0	0.43	0.88	1	80.3769240699985	80.4614165189996	"2"	45160.349224579	45153.478126956	1.5	0.1
0.01	1	0.063481324003078	1	119	NA	89.3273704849998	0	0.43	0.88	1	80.6941486799988	80.7576300040018	"2"	45160.349224579	45153.478126956	1.5	0.1
0.01	1	0.0585622090002289	1	119	NA	89.3273704849998	0	0.43	0.88	1	80.994638422002	81.0532006310023	"2"	45160.349224579	45153.478126956	1.5	0.1
0.01	1	0.0538002869943739	1	119	NA	89.3273704849998	0	0.43	0.88	1	81.278443535004	81.3322438219984	"2"	45160.349224579	45153.478126956	1.5	0.1
0.01	1	0.066147944999102	1	119	NA	89.3273704849998	0	0.43	0.88	1	81.5623097499993	81.6284576949984	"2"	45160.349224579	45153.478126956	1.5	0.1
0.01	1	0.0868063399975654	1	119	NA	89.3273704849998	0	0.43	0.88	1	81.8628193900004	81.9496257299979	"2"	45160.349224579	45153.478126956	1.5	0.1
0.01	1	2.20158565299789	1	119	NA	89.3273704849998	0	0.43	0.88	1	82.1800798370023	84.3816654900002	"2"	45160.349224579	45153.478126956	1.5	0.1
0.01	1	0.0754568400006974	1	119	NA	89.3273704849998	0	0.43	0.88	1	84.6174826170027	84.6929394570034	"2"	45160.349224579	45153.478126956	1.5	0.1
0.01	1	0.0873369029941387	1	119	NA	89.3273704849998	0	0.43	0.88	1	84.9178775390028	85.0052144419969	"2"	45160.349224579	45153.478126956	1.5	0.1
0.01	1	0.0498205369949574	1	119	NA	89.3273704849998	0	0.43	0.88	1	85.2352204370036	85.2850409739985	"2"	45160.349224579	45153.478126956	1.5	0.1
0.01	1	0.046826793004584	1	119	NA	89.3273704849998	0	0.43	0.88	1	85.5189332869995	85.5657600800041	"2"	45160.349224579	45153.478126956	1.5	0.1
0.01	1	0.0512539409974124	1	119	NA	89.3273704849998	0	0.43	0.88	1	85.8027875600019	85.8540415009993	"2"	45160.349224579	45153.478126956	1.5	0.1
0.01	1	0.0541648830039776	1	119	NA	89.3273704849998	0	0.43	0.88	1	86.0865346869978	86.1406995700017	"2"	45160.349224579	45153.478126956	1.5	0.1
0.01	1	0.11439992099622	1	119	NA	89.3273704849998	0	0.43	0.88	1	86.3703518370021	86.4847517579983	"2"	45160.349224579	45153.478126956	1.5	0.1
0.01	1	0.828329185998882	1	119	NA	89.3273704849998	0	0.43	0.88	1	86.7209588370024	87.5492880230013	"2"	45160.349224579	45153.478126956	1.5	0.1
0.01	1	0.00331712000479456	1	119	NA	89.3273704849998	0	0.43	0.88	1	87.7893330439983	87.7926501640031	"2"	45160.349224579	45153.478126956	1.5	0.1
0.01	1	0.00759793999895919	1	119	NA	89.3273704849998	0	0.43	0.88	1	88.0231828719989	88.0307808119978	"2"	45160.349224579	45153.478126956	1.5	0.1
0.01	1	0.0687869169996702	1	119	NA	89.3273704849998	0	0.43	0.88	1	88.2568820279994	88.3256689449991	"2"	45160.349224579	45153.478126956	1.5	0.1
0.01	1	0.0719106040050974	1	119	NA	89.3273704849998	0	0.43	0.88	1	88.5574352699987	88.6293458740038	"2"	45160.349224579	45153.478126956	1.5	0.1
0.01	1	0.467721197004721	2	119	NA	89.3273704849998	0	0.43	0.88	1	88.8579518749975	89.3256730720022	"2"	45160.349224579	45153.478126956	1.5	0.1
0.01	1	4.7104781060043	1	34	106.557269131998	NA	1	0	0.88	1	91.3787801049984	96.0892582110027	"3"	45160.349224579	45153.478126956	1.5	0.1
0.01	1	0.0570014669938246	1	34	106.557269131998	NA	1	0	0.88	1	96.3206228850031	96.3776243519969	"3"	45160.349224579	45153.478126956	1.5	0.1
0.01	1	0.0857473529977142	1	34	106.557269131998	NA	1	0	0.88	1	96.6041904820013	96.689937834999	"3"	45160.349224579	45153.478126956	1.5	0.1
0.01	1	0.0561575609972351	1	34	106.557269131998	NA	1	0	0.88	1	96.9214562470006	96.9776138079978	"3"	45160.349224579	45153.478126956	1.5	0.1
0.01	1	0.0527940749961999	1	34	106.557269131998	NA	1	0	0.88	1	97.2053339400009	97.2581280149971	"3"	45160.349224579	45153.478126956	1.5	0.1
0.01	1	0.0640955079943524	1	34	106.557269131998	NA	1	0	0.88	1	97.4890518320026	97.5531473399969	"3"	45160.349224579	45153.478126956	1.5	0.1
0.01	1	0.0203458209944074	1	34	106.557269131998	NA	1	0	0.88	1	97.789604880003	97.8099507009974	"3"	45160.349224579	45153.478126956	1.5	0.1
0.01	1	0.0572165080011473	1	34	106.557269131998	NA	1	0	0.88	1	98.039999255001	98.0972157630022	"3"	45160.349224579	45153.478126956	1.5	0.1
0.01	1	0.0622957040031906	1	34	106.557269131998	NA	1	0	0.88	1	98.3238297499993	98.3861254540025	"3"	45160.349224579	45153.478126956	1.5	0.1
0.01	1	0.0244545559980907	1	34	106.557269131998	NA	1	0	0.88	1	98.6243040420013	98.6487585979994	"3"	45160.349224579	45153.478126956	1.5	0.1
0.01	1	0.0947495399959735	1	34	106.557269131998	NA	1	0	0.88	1	98.8747666370036	98.9695161769996	"3"	45160.349224579	45153.478126956	1.5	0.1
0.01	1	0.0810203459986951	1	34	106.557269131998	NA	1	0	0.88	1	99.2086440170024	99.2896643630011	"3"	45160.349224579	45153.478126956	1.5	0.1
0.01	1	0.0842048210033681	1	34	106.557269131998	NA	1	0	0.88	1	99.5258479559998	99.6100527770031	"3"	45160.349224579	45153.478126956	1.5	0.1
0.01	1	0.07112653600052	1	34	106.557269131998	NA	1	0	0.88	1	99.84300945	99.9141359860005	"3"	45160.349224579	45153.478126956	1.5	0.1
0.01	1	0.0988658479982405	1	34	106.557269131998	NA	1	0	0.88	1	100.143531875001	100.242397722999	"3"	45160.349224579	45153.478126956	1.5	0.1
0.01	1	0.0603203979990212	1	34	106.557269131998	NA	1	0	0.88	1	100.477390216998	100.537710614997	"3"	45160.349224579	45153.478126956	1.5	0.1
0.01	1	0.0969897019967902	1	34	106.557269131998	NA	1	0	0.88	1	100.761298887002	100.858288588999	"3"	45160.349224579	45153.478126956	1.5	0.1
0.01	1	0.0493869080019067	1	34	106.557269131998	NA	1	0	0.88	1	101.09513786	101.144524768002	"3"	45160.349224579	45153.478126956	1.5	0.1
0.01	1	0.127001394997933	1	34	106.557269131998	NA	1	0	0.88	1	101.378905065001	101.505906459999	"3"	45160.349224579	45153.478126956	1.5	0.1
0.01	1	0.118786339997314	1	34	106.557269131998	NA	1	0	0.88	1	101.729501442001	101.848287781999	"3"	45160.349224579	45153.478126956	1.5	0.1
0.01	1	0.104767513999832	1	34	106.557269131998	NA	1	0	0.88	1	102.080092459	102.184859973	"3"	45160.349224579	45153.478126956	1.5	0.1
0.01	1	0.0829818170022918	1	34	106.557269131998	NA	1	0	0.88	1	102.414004890001	102.496986707003	"3"	45160.349224579	45153.478126956	1.5	0.1
0.01	1	0.0452531680057291	1	34	106.557269131998	NA	1	0	0.88	1	102.731198319998	102.776451488004	"3"	45160.349224579	45153.478126956	1.5	0.1
0.01	1	0.0672517040002276	1	34	106.557269131998	NA	1	0	0.88	1	103.015041402003	103.082293106003	"3"	45160.349224579	45153.478126956	1.5	0.1
0.01	1	0.086646682000719	1	34	106.557269131998	NA	1	0	0.88	1	103.315577936999	103.402224619	"3"	45160.349224579	45153.478126956	1.5	0.1
0.01	1	0.0482760290033184	1	34	106.557269131998	NA	1	0	0.88	1	103.632732336999	103.681008366002	"3"	45160.349224579	45153.478126956	1.5	0.1
0.01	1	0.0378356159999385	1	34	106.557269131998	NA	1	0	0.88	1	103.91652952	103.954365136	"3"	45160.349224579	45153.478126956	1.5	0.1
0.01	1	0.0490914819965838	1	34	106.557269131998	NA	1	0	0.88	1	104.183799065002	104.232890546999	"3"	45160.349224579	45153.478126956	1.5	0.1
0.01	1	0.101541953001288	1	34	106.557269131998	NA	1	0	0.88	1	104.467405360003	104.568947313004	"3"	45160.349224579	45153.478126956	1.5	0.1
0.01	1	0.0554583920020377	1	34	106.557269131998	NA	1	0	0.88	1	104.801341049999	104.856799442001	"3"	45160.349224579	45153.478126956	1.5	0.1
0.01	1	0.188868167999317	1	34	106.557269131998	NA	1	0	0.88	1	105.085157535003	105.274025703002	"3"	45160.349224579	45153.478126956	1.5	0.1
0.01	1	0.226749565001228	1	34	106.557269131998	NA	1	0	0.88	1	105.502635229997	105.729384794999	"3"	45160.349224579	45153.478126956	1.5	0.1
0.01	1	0.151244706998114	1	34	106.557269131998	NA	1	0	0.88	1	105.970007340002	106.121252047	"3"	45160.349224579	45153.478126956	1.5	0.1
0.01	1	0.0882300730008865	1	34	106.557269131998	NA	1	0	0.88	1	106.353938922002	106.442168995003	"3"	45160.349224579	45153.478126956	1.5	0.1
0.01	1	1.57901599999605	1	24	116.190245677004	NA	1	0	0.88	1	108.591083020001	110.170099019997	"4"	45160.349224579	45153.478126956	1.5	0.1
0.01	1	0.00370362399553414	1	24	116.190245677004	NA	1	0	0.88	1	110.410774410004	110.414478033999	"4"	45160.349224579	45153.478126956	1.5	0.1
0.01	1	0.00259375000314321	1	24	116.190245677004	NA	1	0	0.88	1	110.644558779997	110.64715253	"4"	45160.349224579	45153.478126956	1.5	0.1
0.01	1	0.0025019080057973	1	24	116.190245677004	NA	1	0	0.88	1	110.878270991998	110.880772900004	"4"	45160.349224579	45153.478126956	1.5	0.1
0.01	1	0.00207215100090252	1	24	116.190245677004	NA	1	0	0.88	1	111.112067536	111.114139687001	"4"	45160.349224579	45153.478126956	1.5	0.1
0.01	1	0.00389944099879358	1	24	116.190245677004	NA	1	0	0.88	1	111.345658037004	111.349557478003	"4"	45160.349224579	45153.478126956	1.5	0.1
0.01	1	0.00375299299776088	1	24	116.190245677004	NA	1	0	0.88	1	111.579409855003	111.583162848001	"4"	45160.349224579	45153.478126956	1.5	0.1
0.01	1	0.00380892999964999	1	24	116.190245677004	NA	1	0	0.88	1	111.813233221998	111.817042151997	"4"	45160.349224579	45153.478126956	1.5	0.1
0.01	1	0.00372170300397556	1	24	116.190245677004	NA	1	0	0.88	1	112.046865566997	112.050587270001	"4"	45160.349224579	45153.478126956	1.5	0.1
0.01	1	0.00399345500045456	1	24	116.190245677004	NA	1	0	0.88	1	112.280585027002	112.284578482002	"4"	45160.349224579	45153.478126956	1.5	0.1
0.01	1	0.00402310900244629	1	24	116.190245677004	NA	1	0	0.88	1	112.514310667	112.518333776003	"4"	45160.349224579	45153.478126956	1.5	0.1
0.01	1	0.00201243100309512	1	24	116.190245677004	NA	1	0	0.88	1	112.748132847999	112.750145279002	"4"	45160.349224579	45153.478126956	1.5	0.1
0.01	1	0.0352404000004753	1	24	116.190245677004	NA	1	0	0.88	1	112.981821975001	113.017062375002	"4"	45160.349224579	45153.478126956	1.5	0.1
0.01	1	0.0236837409975124	1	24	116.190245677004	NA	1	0	0.88	1	113.248845307004	113.272529048001	"4"	45160.349224579	45153.478126956	1.5	0.1
0.01	1	0.0308241820021067	1	24	116.190245677004	NA	1	0	0.88	1	113.499283691999	113.530107874001	"4"	45160.349224579	45153.478126956	1.5	0.1
0.01	1	0.00459648499963805	1	24	116.190245677004	NA	1	0	0.88	1	113.76639081	113.770987295	"4"	45160.349224579	45153.478126956	1.5	0.1
0.01	1	0.024666650002473	1	24	116.190245677004	NA	1	0	0.88	1	114.00020563	114.024872280002	"4"	45160.349224579	45153.478126956	1.5	0.1
0.01	1	0.0377561549976235	1	24	116.190245677004	NA	1	0	0.88	1	114.250631700001	114.288387854998	"4"	45160.349224579	45153.478126956	1.5	0.1
0.01	1	0.0908348730008584	1	24	116.190245677004	NA	1	0	0.88	1	114.517686835003	114.608521708004	"4"	45160.349224579	45153.478126956	1.5	0.1
0.01	1	0.0794214519992238	1	24	116.190245677004	NA	1	0	0.88	1	114.834855262001	114.914276714	"4"	45160.349224579	45153.478126956	1.5	0.1
0.01	1	0.0410334760017577	1	24	116.190245677004	NA	1	0	0.88	1	115.152102109998	115.193135586	"4"	45160.349224579	45153.478126956	1.5	0.1
0.01	1	0.0706175480008824	1	24	116.190245677004	NA	1	0	0.88	1	115.419237980001	115.489855528001	"4"	45160.349224579	45153.478126956	1.5	0.1
0.01	1	0.0586151639945456	1	24	116.190245677004	NA	1	0	0.88	1	115.719757140003	115.778372303997	"4"	45160.349224579	45153.478126956	1.5	0.1
0.01	1	0.0768696369996178	1	24	116.190245677004	NA	1	0	0.88	1	116.003544895	116.080414532	"4"	45160.349224579	45153.478126956	1.5	0.1
0.01	1	0.711929227996734	1	22	126.507425244999	NA	1	0	0.88	1	118.24062448	118.952553707997	"5"	45160.349224579	45153.478126956	1.5	0.1
0.01	1	0.0176439720016788	1	22	126.507425244999	NA	1	0	0.88	1	119.192295289999	119.209939262	"5"	45160.349224579	45153.478126956	1.5	0.1
0.01	1	0.0305416279952624	1	22	126.507425244999	NA	1	0	0.88	1	119.442691850003	119.473233477998	"5"	45160.349224579	45153.478126956	1.5	0.1
0.01	1	0.0122140690000379	1	22	126.507425244999	NA	1	0	0.88	1	119.709748565001	119.721962634001	"5"	45160.349224579	45153.478126956	1.5	0.1
0.01	1	0.0039929620033945	1	22	126.507425244999	NA	1	0	0.88	1	119.9600938	119.964086762004	"5"	45160.349224579	45153.478126956	1.5	0.1
0.01	1	0.00268525299907196	1	22	126.507425244999	NA	1	0	0.88	1	120.193932016002	120.196617269001	"5"	45160.349224579	45153.478126956	1.5	0.1
0.01	1	0.00212755399843445	1	22	126.507425244999	NA	1	0	0.88	1	120.427696213999	120.429823767998	"5"	45160.349224579	45153.478126956	1.5	0.1
0.01	1	0.00727975299378159	1	22	126.507425244999	NA	1	0	0.88	1	120.661496965004	120.668776717997	"5"	45160.349224579	45153.478126956	1.5	0.1
0.01	1	0.0345748750041821	1	22	126.507425244999	NA	1	0	0.88	1	120.895114569998	120.929689445002	"5"	45160.349224579	45153.478126956	1.5	0.1
0.01	1	0.0321156370046083	1	22	126.507425244999	NA	1	0	0.88	1	121.162256224998	121.194371862002	"5"	45160.349224579	45153.478126956	1.5	0.1
0.01	1	0.16376839500299	1	22	126.507425244999	NA	1	0	0.88	1	121.429394717001	121.593163112004	"5"	45160.349224579	45153.478126956	1.5	0.1
0.01	1	0.10676951300411	1	22	126.507425244999	NA	1	0	0.88	1	121.829974054999	121.936743568003	"5"	45160.349224579	45153.478126956	1.5	0.1
0.01	1	0.0621246939990669	1	22	126.507425244999	NA	1	0	0.88	1	122.163851099998	122.225975793997	"5"	45160.349224579	45153.478126956	1.5	0.1
0.01	1	0.0480845929996576	1	22	126.507425244999	NA	1	0	0.88	1	122.464472395004	122.512556988004	"5"	45160.349224579	45153.478126956	1.5	0.1
0.01	1	0.116988354995556	1	22	126.507425244999	NA	1	0	0.88	1	122.748183522002	122.865171876998	"5"	45160.349224579	45153.478126956	1.5	0.1
0.01	1	0.159070141999109	1	22	126.507425244999	NA	1	0	0.88	1	123.098767000003	123.257837142002	"5"	45160.349224579	45153.478126956	1.5	0.1
0.01	1	0.373996319998696	1	22	126.507425244999	NA	1	0	0.88	1	123.482819750003	123.856816070002	"5"	45160.349224579	45153.478126956	1.5	0.1
0.01	1	0.253619830000389	1	22	126.507425244999	NA	1	0	0.88	1	124.083806654999	124.337426484999	"5"	45160.349224579	45153.478126956	1.5	0.1
0.01	1	0.24934858999768	1	22	126.507425244999	NA	1	0	0.88	1	124.567938405002	124.817286994999	"5"	45160.349224579	45153.478126956	1.5	0.1
0.01	1	0.260416333003377	1	22	126.507425244999	NA	1	0	0.88	1	125.052114514998	125.312530848001	"5"	45160.349224579	45153.478126956	1.5	0.1
0.01	1	0.289185975001601	1	22	126.507425244999	NA	1	0	0.88	1	125.552849455002	125.842035430003	"5"	45160.349224579	45153.478126956	1.5	0.1
0.01	1	0.314877075994445	1	22	126.507425244999	NA	1	0	0.88	1	126.070435897003	126.385312972998	"5"	45160.349224579	45153.478126956	1.5	0.1
0.01	1	2.83526647200051	1	78	NA	149.176106464998	0	0.26	1.14	1	128.541243364998	131.376509836999	"6"	45160.349224579	45153.478126956	1.5	0.1
0.01	1	0.0504356960009318	1	78	NA	149.176106464998	0	0.26	1.14	1	131.613154669998	131.663590365999	"6"	45160.349224579	45153.478126956	1.5	0.1
0.01	1	0.0021183220014791	1	78	NA	149.176106464998	0	0.26	1.14	1	131.896923615001	131.899041937002	"6"	45160.349224579	45153.478126956	1.5	0.1
0.01	1	0.0445041610000771	1	78	NA	149.176106464998	0	0.26	1.14	1	132.130649085004	132.175153246004	"6"	45160.349224579	45153.478126956	1.5	0.1
0.01	1	0.0747142390027875	1	78	NA	149.176106464998	0	0.26	1.14	1	132.397729035001	132.472443274004	"6"	45160.349224579	45153.478126956	1.5	0.1
0.01	1	0.757211883996206	1	78	NA	149.176106464998	0	0.26	1.14	1	132.698329127001	133.455541010997	"6"	45160.349224579	45153.478126956	1.5	0.1
0.01	1	0.0839540810047765	1	78	NA	149.176106464998	0	0.26	1.14	1	133.683250845999	133.767204927004	"6"	45160.349224579	45153.478126956	1.5	0.1
0.01	1	0.062395483997534	1	78	NA	149.176106464998	0	0.26	1.14	1	134.000523565002	134.062919049	"6"	45160.349224579	45153.478126956	1.5	0.1
0.01	1	0.169842563002021	1	78	NA	149.176106464998	0	0.26	1.14	1	134.300918337001	134.470760900003	"6"	45160.349224579	45153.478126956	1.5	0.1
0.01	1	0.153892775000713	1	78	NA	149.176106464998	0	0.26	1.14	1	134.701730954999	134.85562373	"6"	45160.349224579	45153.478126956	1.5	0.1
0.01	1	0.922932339999534	1	78	NA	149.176106464998	0	0.26	1.14	1	135.085695319998	136.008627659998	"6"	45160.349224579	45153.478126956	1.5	0.1
0.01	1	0.138336117001018	1	78	NA	149.176106464998	0	0.26	1.14	1	136.237550625003	136.375886742004	"6"	45160.349224579	45153.478126956	1.5	0.1
0.01	1	0.0902098989972728	1	78	NA	149.176106464998	0	0.26	1.14	1	136.60484937	136.695059268997	"6"	45160.349224579	45153.478126956	1.5	0.1
0.01	1	0.0945273170000291	1	78	NA	149.176106464998	0	0.26	1.14	1	136.921990142	137.016517459	"6"	45160.349224579	45153.478126956	1.5	0.1
0.01	1	0.175491647001763	1	78	NA	149.176106464998	0	0.26	1.14	1	137.23926283	137.414754477002	"6"	45160.349224579	45153.478126956	1.5	0.1
0.01	1	3.11117991499486	1	78	NA	149.176106464998	0	0.26	1.14	1	137.639875450004	140.751055364999	"6"	45160.349224579	45153.478126956	1.5	0.1
0.01	1	0.236704469003598	1	78	NA	149.176106464998	0	0.26	1.14	1	140.978915159998	141.215619629002	"6"	45160.349224579	45153.478126956	1.5	0.1
0.01	1	0.272656817003735	1	78	NA	149.176106464998	0	0.26	1.14	1	141.446293499997	141.718950317001	"6"	45160.349224579	45153.478126956	1.5	0.1
0.01	1	0.21317412800272	1	78	NA	149.176106464998	0	0.26	1.14	1	141.947106539999	142.160280668002	"6"	45160.349224579	45153.478126956	1.5	0.1
0.01	1	0.209092167999188	1	78	NA	149.176106464998	0	0.26	1.14	1	142.397912109998	142.607004277997	"6"	45160.349224579	45153.478126956	1.5	0.1
0.01	1	2.60663291999663	1	78	NA	149.176106464998	0	0.26	1.14	1	142.832079277003	145.438712196999	"6"	45160.349224579	45153.478126956	1.5	0.1
0.01	1	0.313884404997225	1	78	NA	149.176106464998	0	0.26	1.14	1	145.670141815004	145.984026220001	"6"	45160.349224579	45153.478126956	1.5	0.1
0.01	1	0.0979895929995109	1	78	NA	149.176106464998	0	0.26	1.14	1	146.220986932	146.318976524999	"6"	45160.349224579	45153.478126956	1.5	0.1
0.01	1	0.0676008699956583	1	78	NA	149.176106464998	0	0.26	1.14	1	146.554968372002	146.622569241998	"6"	45160.349224579	45153.478126956	1.5	0.1
0.01	1	0.0712762680050218	1	78	NA	149.176106464998	0	0.26	1.14	1	146.855479974998	146.926756243003	"6"	45160.349224579	45153.478126956	1.5	0.1
0.01	1	0.0750209990001167	1	78	NA	149.176106464998	0	0.26	1.14	1	147.155969205	147.230990204	"6"	45160.349224579	45153.478126956	1.5	0.1
0.01	1	1.71800617300323	2	78	NA	149.176106464998	0	0.26	1.14	1	147.456516318998	149.174522492001	"6"	45160.349224579	45153.478126956	1.5	0.1
0.01	1	2.36353227400105	1	61	NA	181.250158108	0	0.33	1.47	1	151.229466675002	153.592998949003	"7"	45160.349224579	45153.478126956	1.5	0.1
0.01	1	0.430452972999774	1	61	NA	181.250158108	0	0.33	1.47	1	153.833898379002	154.264351352002	"7"	45160.349224579	45153.478126956	1.5	0.1
0.01	1	0.323629922000691	1	61	NA	181.250158108	0	0.33	1.47	1	154.501579226999	154.825209148999	"7"	45160.349224579	45153.478126956	1.5	0.1
0.01	1	0.307847545002005	1	61	NA	181.250158108	0	0.33	1.47	1	155.052625131997	155.360472676999	"7"	45160.349224579	45153.478126956	1.5	0.1
0.01	1	0.485816257001716	1	61	NA	181.250158108	0	0.33	1.47	1	155.586842999997	156.072659256999	"7"	45160.349224579	45153.478126956	1.5	0.1
0.01	1	0.128303329998744	1	61	NA	181.250158108	0	0.33	1.47	1	156.30468809	156.432991419999	"7"	45160.349224579	45153.478126956	1.5	0.1
0.01	1	0.368987100002414	1	61	NA	181.250158108	0	0.33	1.47	1	156.672001660001	157.040988760004	"7"	45160.349224579	45153.478126956	1.5	0.1
0.01	1	0.295524571003625	1	61	NA	181.250158108	0	0.33	1.47	1	157.272961577	157.568486148004	"7"	45160.349224579	45153.478126956	1.5	0.1
0.01	1	0.227358588002971	1	61	NA	181.250158108	0	0.33	1.47	1	157.790456700001	158.017815288003	"7"	45160.349224579	45153.478126956	1.5	0.1
0.01	1	0.215604999000789	1	61	NA	181.250158108	0	0.33	1.47	1	158.241193964997	158.456798963998	"7"	45160.349224579	45153.478126956	1.5	0.1
0.01	1	3.21223777500563	1	61	NA	181.250158108	0	0.33	1.47	1	158.692082784997	161.904320560003	"7"	45160.349224579	45153.478126956	1.5	0.1
0.01	1	0.654467938002199	1	61	NA	181.250158108	0	0.33	1.47	1	162.131163229998	162.785631168001	"7"	45160.349224579	45153.478126956	1.5	0.1
0.01	1	0.297653528999945	1	61	NA	181.250158108	0	0.33	1.47	1	163.015967165004	163.313620694003	"7"	45160.349224579	45153.478126956	1.5	0.1
0.01	1	0.322481404000428	1	61	NA	181.250158108	0	0.33	1.47	1	163.550256237002	163.872737641002	"7"	45160.349224579	45153.478126956	1.5	0.1
0.01	1	0.292274981999071	1	61	NA	181.250158108	0	0.33	1.47	1	164.10112811	164.393403091999	"7"	45160.349224579	45153.478126956	1.5	0.1
0.01	1	0.366958471000544	1	61	NA	181.250158108	0	0.33	1.47	1	164.618727200002	164.985685671003	"7"	45160.349224579	45153.478126956	1.5	0.1
0.01	1	0.317417438003758	1	61	NA	181.250158108	0	0.33	1.47	1	165.219721786998	165.537139225002	"7"	45160.349224579	45153.478126956	1.5	0.1
0.01	1	0.255313768997439	1	61	NA	181.250158108	0	0.33	1.47	1	165.770538805002	166.025852573999	"7"	45160.349224579	45153.478126956	1.5	0.1
0.01	1	0.242728725002962	1	61	NA	181.250158108	0	0.33	1.47	1	166.254702735001	166.497431460004	"7"	45160.349224579	45153.478126956	1.5	0.1
0.01	1	0.51093025800219	1	61	NA	181.250158108	0	0.33	1.47	1	166.738931141997	167.2498614	"7"	45160.349224579	45153.478126956	1.5	0.1
0.01	1	1.1188668820032	1	61	NA	181.250158108	0	0.33	1.47	1	167.473539259998	168.592406142001	"7"	45160.349224579	45153.478126956	1.5	0.1
0.01	1	0.727380794000055	1	61	NA	181.250158108	0	0.33	1.47	1	168.825785635003	169.553166429003	"7"	45160.349224579	45153.478126956	1.5	0.1
0.01	1	0.440080257001682	1	61	NA	181.250158108	0	0.33	1.47	1	169.794021244998	170.234101501999	"7"	45160.349224579	45153.478126956	1.5	0.1
0.01	1	0.386697269997967	1	61	NA	181.250158108	0	0.33	1.47	1	170.461770517002	170.848467787	"7"	45160.349224579	45153.478126956	1.5	0.1
0.01	1	0.384841259998211	1	61	NA	181.250158108	0	0.33	1.47	1	171.079544965003	171.464386225001	"7"	45160.349224579	45153.478126956	1.5	0.1
0.01	1	2.71095851700375	1	61	NA	181.250158108	0	0.33	1.47	1	171.697274416998	174.408232934002	"7"	45160.349224579	45153.478126956	1.5	0.1
0.01	1	0.462193387000298	1	61	NA	181.250158108	0	0.33	1.47	1	174.635446624998	175.097640011998	"7"	45160.349224579	45153.478126956	1.5	0.1
0.01	1	0.439490832999581	1	61	NA	181.250158108	0	0.33	1.47	1	175.336831875	175.776322707999	"7"	45160.349224579	45153.478126956	1.5	0.1
0.01	1	0.405708011996467	1	61	NA	181.250158108	0	0.33	1.47	1	176.004501337004	176.410209349	"7"	45160.349224579	45153.478126956	1.5	0.1
0.01	1	0.339205039999797	1	61	NA	181.250158108	0	0.33	1.47	1	176.638838849998	176.978043889998	"7"	45160.349224579	45153.478126956	1.5	0.1
0.01	1	1.15406904700649	1	61	NA	181.250158108	0	0.33	1.47	1	177.206496594998	178.360565642004	"7"	45160.349224579	45153.478126956	1.5	0.1
0.01	1	0.322074032003002	1	61	NA	181.250158108	0	0.33	1.47	1	178.592112774997	178.914186807	"7"	45160.349224579	45153.478126956	1.5	0.1
0.01	1	0.809606759001326	1	61	NA	181.250158108	0	0.33	1.47	1	179.143139931999	179.952746691	"7"	45160.349224579	45153.478126956	1.5	0.1
0.01	1	1.07043050899665	2	61	NA	181.250158108	0	0.33	1.47	1	180.178153517001	181.248584025998	"7"	45160.349224579	45153.478126956	1.5	0.1
0.01	1	2.71819381800015	1	39	NA	205.867171115002	0	0.29	1.76	1	183.300114780002	186.018308598002	"8"	45160.349224579	45153.478126956	1.5	0.1
0.01	1	0.370125788002042	1	39	NA	205.867171115002	0	0.29	1.76	1	186.255091109997	186.625216897999	"8"	45160.349224579	45153.478126956	1.5	0.1
0.01	1	1.3865144329975	1	39	NA	205.867171115002	0	0.29	1.76	1	186.856083279003	188.242597712	"8"	45160.349224579	45153.478126956	1.5	0.1
0.01	1	0.351359274005517	1	39	NA	205.867171115002	0	0.29	1.76	1	188.475477084998	188.826836359003	"8"	45160.349224579	45153.478126956	1.5	0.1
0.01	1	0.421837556998071	1	39	NA	205.867171115002	0	0.29	1.76	1	189.059813687003	189.481651244001	"8"	45160.349224579	45153.478126956	1.5	0.1
0.01	1	0.378376818000106	1	39	NA	205.867171115002	0	0.29	1.76	1	189.710920899997	190.089297717997	"8"	45160.349224579	45153.478126956	1.5	0.1
0.01	1	0.387376202997984	1	39	NA	205.867171115002	0	0.29	1.76	1	190.311861486	190.699237688998	"8"	45160.349224579	45153.478126956	1.5	0.1
0.01	1	0.575746850001451	1	39	NA	205.867171115002	0	0.29	1.76	1	190.929542106998	191.505288957	"8"	45160.349224579	45153.478126956	1.5	0.1
0.01	1	0.343452516004618	1	39	NA	205.867171115002	0	0.29	1.76	1	191.730844819998	192.074297336003	"8"	45160.349224579	45153.478126956	1.5	0.1
0.01	1	0.431385561998468	1	39	NA	205.867171115002	0	0.29	1.76	1	192.31528581	192.746671371999	"8"	45160.349224579	45153.478126956	1.5	0.1
0.01	1	0.460126256999501	1	39	NA	205.867171115002	0	0.29	1.76	1	192.983086480002	193.443212737002	"8"	45160.349224579	45153.478126956	1.5	0.1
0.01	1	0.327706448995741	1	39	NA	205.867171115002	0	0.29	1.76	1	193.667509705003	193.995216153999	"8"	45160.349224579	45153.478126956	1.5	0.1
0.01	1	0.328652352000063	1	39	NA	205.867171115002	0	0.29	1.76	1	194.218400723003	194.547053075003	"8"	45160.349224579	45153.478126956	1.5	0.1
0.01	1	0.536189418002323	1	39	NA	205.867171115002	0	0.29	1.76	1	194.769367909998	195.305557328	"8"	45160.349224579	45153.478126956	1.5	0.1
0.01	1	0.287986605995684	1	39	NA	205.867171115002	0	0.29	1.76	1	195.537236237004	195.825222842999	"8"	45160.349224579	45153.478126956	1.5	0.1
0.01	1	0.330902070003503	1	39	NA	205.867171115002	0	0.29	1.76	1	196.054819459998	196.385721530001	"8"	45160.349224579	45153.478126956	1.5	0.1
0.01	1	0.596586630003003	1	39	NA	205.867171115002	0	0.29	1.76	1	196.622464494998	197.219051125001	"8"	45160.349224579	45153.478126956	1.5	0.1
0.01	1	0.416537752003933	1	39	NA	205.867171115002	0	0.29	1.76	1	197.457142747	197.873680499004	"8"	45160.349224579	45153.478126956	1.5	0.1
0.01	1	0.445980752003379	1	39	NA	205.867171115002	0	0.29	1.76	1	198.108271336998	198.554252089001	"8"	45160.349224579	45153.478126956	1.5	0.1
0.01	1	0.617439772002399	1	39	NA	205.867171115002	0	0.29	1.76	1	198.792793369998	199.410233142	"8"	45160.349224579	45153.478126956	1.5	0.1
0.01	1	0.41362690400274	1	39	NA	205.867171115002	0	0.29	1.76	1	199.644216209999	200.057843114002	"8"	45160.349224579	45153.478126956	1.5	0.1
0.01	1	0.418589454995526	1	39	NA	205.867171115002	0	0.29	1.76	1	200.295343577003	200.713933031999	"8"	45160.349224579	45153.478126956	1.5	0.1
0.01	1	0.319737158002681	1	39	NA	205.867171115002	0	0.29	1.76	1	200.946342427	201.266079585002	"8"	45160.349224579	45153.478126956	1.5	0.1
0.01	1	0.929230681998888	1	39	NA	205.867171115002	0	0.29	1.76	1	201.497359293004	202.426589975003	"8"	45160.349224579	45153.478126956	1.5	0.1
0.01	1	0.439953779998177	1	39	NA	205.867171115002	0	0.29	1.76	1	202.666022379999	203.105976159997	"8"	45160.349224579	45153.478126956	1.5	0.1
0.01	1	0.307702224003151	1	39	NA	205.867171115002	0	0.29	1.76	1	203.333754166997	203.641456391	"8"	45160.349224579	45153.478126956	1.5	0.1
0.01	1	0.199141757999314	1	39	NA	205.867171115002	0	0.29	1.76	1	203.868018756999	204.067160514998	"8"	45160.349224579	45153.478126956	1.5	0.1
0.01	1	0.108517985005165	1	39	NA	205.867171115002	0	0.29	1.76	1	204.302082549999	204.410600535004	"8"	45160.349224579	45153.478126956	1.5	0.1
0.01	1	0.670447306001734	1	39	NA	205.867171115002	0	0.29	1.76	1	204.635850940002	205.306298246003	"8"	45160.349224579	45153.478126956	1.5	0.1
0.01	1	0.328068707000057	2	39	NA	205.867171115002	0	0.29	1.76	1	205.537488884998	205.865557591998	"8"	45160.349224579	45153.478126956	1.5	0.1
0.01	1	1.93232446099864	1	25	221.150069385003	NA	1	0	1.76	1	207.891360342001	209.823684802999	"9"	45160.349224579	45153.478126956	1.5	0.1
0.01	1	0.31416225299472	1	25	221.150069385003	NA	1	0	1.76	1	210.061749407003	210.375911659998	"9"	45160.349224579	45153.478126956	1.5	0.1
0.01	1	0.404165514999477	1	25	221.150069385003	NA	1	0	1.76	1	210.612745110004	211.016910625003	"9"	45160.349224579	45153.478126956	1.5	0.1
0.01	1	0.280363470999873	1	25	221.150069385003	NA	1	0	1.76	1	211.247065454998	211.527428925998	"9"	45160.349224579	45153.478126956	1.5	0.1
0.01	1	0.146777944995847	1	25	221.150069385003	NA	1	0	1.76	1	211.764641795002	211.911419739998	"9"	45160.349224579	45153.478126956	1.5	0.1
0.01	1	0.164041749005264	1	25	221.150069385003	NA	1	0	1.76	1	212.148647754999	212.312689504004	"9"	45160.349224579	45153.478126956	1.5	0.1
0.01	1	0.202309598003922	1	25	221.150069385003	NA	1	0	1.76	1	212.549319899997	212.751629498001	"9"	45160.349224579	45153.478126956	1.5	0.1
0.01	1	0.176198519999161	1	25	221.150069385003	NA	1	0	1.76	1	212.983326524998	213.159525044997	"9"	45160.349224579	45153.478126956	1.5	0.1
0.01	1	0.208075310998538	1	25	221.150069385003	NA	1	0	1.76	1	213.384049147004	213.592124458002	"9"	45160.349224579	45153.478126956	1.5	0.1
0.01	1	0.214364498999203	1	25	221.150069385003	NA	1	0	1.76	1	213.818092915004	214.032457414003	"9"	45160.349224579	45153.478126956	1.5	0.1
0.01	1	0.188450102003117	1	25	221.150069385003	NA	1	0	1.76	1	214.268831087	214.457281189003	"9"	45160.349224579	45153.478126956	1.5	0.1
0.01	1	0.209832022999763	1	25	221.150069385003	NA	1	0	1.76	1	214.686218315001	214.896050338	"9"	45160.349224579	45153.478126956	1.5	0.1
0.01	1	0.215484018001007	1	25	221.150069385003	NA	1	0	1.76	1	215.120237597002	215.335721615003	"9"	45160.349224579	45153.478126956	1.5	0.1
0.01	1	0.189901261001069	1	25	221.150069385003	NA	1	0	1.76	1	215.570939445002	215.760840706003	"9"	45160.349224579	45153.478126956	1.5	0.1
0.01	1	0.155264052002167	1	25	221.150069385003	NA	1	0	1.76	1	215.988379670001	216.143643722004	"9"	45160.349224579	45153.478126956	1.5	0.1
0.01	1	0.228099336003652	1	25	221.150069385003	NA	1	0	1.76	1	216.372348126999	216.600447463003	"9"	45160.349224579	45153.478126956	1.5	0.1
0.01	1	0.216732668995974	1	25	221.150069385003	NA	1	0	1.76	1	216.839859860003	217.056592528999	"9"	45160.349224579	45153.478126956	1.5	0.1
0.01	1	0.236739634994592	1	25	221.150069385003	NA	1	0	1.76	1	217.290484857003	217.527224491998	"9"	45160.349224579	45153.478126956	1.5	0.1
0.01	1	0.297568613001204	1	25	221.150069385003	NA	1	0	1.76	1	217.758001734997	218.055570347999	"9"	45160.349224579	45153.478126956	1.5	0.1
0.01	1	0.340383301998372	1	25	221.150069385003	NA	1	0	1.76	1	218.292270652004	218.632653954002	"9"	45160.349224579	45153.478126956	1.5	0.1
0.01	1	0.356191029000911	1	25	221.150069385003	NA	1	0	1.76	1	218.859836570002	219.216027599003	"9"	45160.349224579	45153.478126956	1.5	0.1
0.01	1	0.259275728996727	1	25	221.150069385003	NA	1	0	1.76	1	219.444127355004	219.703403084	"9"	45160.349224579	45153.478126956	1.5	0.1
0.01	1	0.190804240002763	1	25	221.150069385003	NA	1	0	1.76	1	219.944991484997	220.135795725	"9"	45160.349224579	45153.478126956	1.5	0.1
0.01	1	0.245840802002931	1	25	221.150069385003	NA	1	0	1.76	1	220.362456609997	220.608297412	"9"	45160.349224579	45153.478126956	1.5	0.1
0.01	1	0.186405477004882	1	25	221.150069385003	NA	1	0	1.76	1	220.846536721998	221.032942199003	"9"	45160.349224579	45153.478126956	1.5	0.1
0.01	1	0.520936217995768	1	27	NA	235.464995748	0	0.24	2	1	223.183810276001	223.704746493997	"10"	45160.349224579	45153.478126956	1.5	0.1
0.01	1	0.272573581998586	1	27	NA	235.464995748	0	0.24	2	1	223.935073995999	224.207647577998	"10"	45160.349224579	45153.478126956	1.5	0.1
0.01	1	0.173141374994884	1	27	NA	235.464995748	0	0.24	2	1	224.435859390003	224.609000764998	"10"	45160.349224579	45153.478126956	1.5	0.1
0.01	1	0.155835385005048	1	27	NA	235.464995748	0	0.24	2	1	224.836639465997	224.992474851002	"10"	45160.349224579	45153.478126956	1.5	0.1
0.01	1	0.0907922620026511	1	27	NA	235.464995748	0	0.24	2	1	225.220573890001	225.311366152004	"10"	45160.349224579	45153.478126956	1.5	0.1
0.01	1	0.133621405002486	1	27	NA	235.464995748	0	0.24	2	1	225.537845202001	225.671466607004	"10"	45160.349224579	45153.478126956	1.5	0.1
0.01	1	0.111707447998924	1	27	NA	235.464995748	0	0.24	2	1	225.905103019999	226.016810467998	"10"	45160.349224579	45153.478126956	1.5	0.1
0.01	1	0.130354736000299	1	27	NA	235.464995748	0	0.24	2	1	226.238888214997	226.369242950997	"10"	45160.349224579	45153.478126956	1.5	0.1
0.01	1	0.137735472999339	1	27	NA	235.464995748	0	0.24	2	1	226.606229805002	226.743965278001	"10"	45160.349224579	45153.478126956	1.5	0.1
0.01	1	0.227188644996204	1	27	NA	235.464995748	0	0.24	2	1	226.973644110003	227.200832754999	"10"	45160.349224579	45153.478126956	1.5	0.1
0.01	1	0.208671956999751	1	27	NA	235.464995748	0	0.24	2	1	227.424243326997	227.632915283997	"10"	45160.349224579	45153.478126956	1.5	0.1
0.01	1	0.174482713999168	1	27	NA	235.464995748	0	0.24	2	1	227.858374272	228.032856985999	"10"	45160.349224579	45153.478126956	1.5	0.1
0.01	1	0.340281884004071	1	27	NA	235.464995748	0	0.24	2	1	228.259043001999	228.599324886003	"10"	45160.349224579	45153.478126956	1.5	0.1
0.01	1	0.213354748004349	1	27	NA	235.464995748	0	0.24	2	1	228.826671659997	229.040026408002	"10"	45160.349224579	45153.478126956	1.5	0.1
0.01	1	0.219459100000677	1	27	NA	235.464995748	0	0.24	2	1	229.27734696	229.49680606	"10"	45160.349224579	45153.478126956	1.5	0.1
0.01	1	0.36869541300257	1	27	NA	235.464995748	0	0.24	2	1	229.728123654997	230.096819068	"10"	45160.349224579	45153.478126956	1.5	0.1
0.01	1	0.278429909005354	1	27	NA	235.464995748	0	0.24	2	1	230.329188304997	230.607618214002	"10"	45160.349224579	45153.478126956	1.5	0.1
0.01	1	0.187580092002463	1	27	NA	235.464995748	0	0.24	2	1	230.829901099998	231.017481192001	"10"	45160.349224579	45153.478126956	1.5	0.1
0.01	1	0.208144971002184	1	27	NA	235.464995748	0	0.24	2	1	231.247363214999	231.455508186002	"10"	45160.349224579	45153.478126956	1.5	0.1
0.01	1	0.215675116000057	1	27	NA	235.464995748	0	0.24	2	1	231.681467902003	231.897143018003	"10"	45160.349224579	45153.478126956	1.5	0.1
0.01	1	0.468261132002226	1	27	NA	235.464995748	0	0.24	2	1	232.132196940001	232.600458072004	"10"	45160.349224579	45153.478126956	1.5	0.1
0.01	1	0.373977584997192	1	27	NA	235.464995748	0	0.24	2	1	232.833438212001	233.207415796998	"10"	45160.349224579	45153.478126956	1.5	0.1
0.01	1	0.437413009000011	1	27	NA	235.464995748	0	0.24	2	1	233.434295295003	233.871708304003	"10"	45160.349224579	45153.478126956	1.5	0.1
0.01	1	0.562583760001871	1	27	NA	235.464995748	0	0.24	2	1	234.102218157001	234.664801917002	"10"	45160.349224579	45153.478126956	1.5	0.1
0.01	1	0.576517243003764	2	27	NA	235.464995748	0	0.24	2	1	234.886898042998	235.463415286002	"10"	45160.349224579	45153.478126956	1.5	0.1
0.01	1	2.89771986599953	1	113	NA	252.078653356002	0	0.25	2.25	1	237.507890549998	240.405610415997	"11"	45160.349224579	45153.478126956	1.5	0.1
0.01	1	0.125868035000167	1	113	NA	252.078653356002	0	0.25	2.25	1	240.646570914003	240.772438949003	"11"	45160.349224579	45153.478126956	1.5	0.1
0.01	1	0.159849769996072	1	113	NA	252.078653356002	0	0.25	2.25	1	240.997116108003	241.156965877999	"11"	45160.349224579	45153.478126956	1.5	0.1
0.01	1	0.200478008999198	1	113	NA	252.078653356002	0	0.25	2.25	1	241.381150820001	241.581628829001	"11"	45160.349224579	45153.478126956	1.5	0.1
0.01	1	0.157374151000113	1	113	NA	252.078653356002	0	0.25	2.25	1	241.815121195003	241.972495346003	"11"	45160.349224579	45153.478126956	1.5	0.1
0.01	1	0.17499021399999	1	113	NA	252.078653356002	0	0.25	2.25	1	242.199179525	242.374169739	"11"	45160.349224579	45153.478126956	1.5	0.1
0.01	1	0.20529597800487	1	113	NA	252.078653356002	0	0.25	2.25	1	242.599776399999	242.805072378003	"11"	45160.349224579	45153.478126956	1.5	0.1
0.01	1	0.10740865200205	1	113	NA	252.078653356002	0	0.25	2.25	1	243.033834055997	243.141242707999	"11"	45160.349224579	45153.478126956	1.5	0.1
0.01	1	0.149643752003612	1	113	NA	252.078653356002	0	0.25	2.25	1	243.367831329997	243.517475082001	"11"	45160.349224579	45153.478126956	1.5	0.1
0.01	1	0.366218023002148	1	113	NA	252.078653356002	0	0.25	2.25	1	243.751661536	244.117879559002	"11"	45160.349224579	45153.478126956	1.5	0.1
0.01	1	0.756372568997904	1	113	NA	252.078653356002	0	0.25	2.25	1	244.352722115	245.109094683998	"11"	45160.349224579	45153.478126956	1.5	0.1
0.01	1	0.106750463004573	1	113	NA	252.078653356002	0	0.25	2.25	1	245.337828839998	245.444579303003	"11"	45160.349224579	45153.478126956	1.5	0.1
0.01	1	0.0927532510031597	1	113	NA	252.078653356002	0	0.25	2.25	1	245.671587555	245.764340806003	"11"	45160.349224579	45153.478126956	1.5	0.1
0.01	1	0.136315185001877	1	113	NA	252.078653356002	0	0.25	2.25	1	245.988928327002	246.125243512004	"11"	45160.349224579	45153.478126956	1.5	0.1
0.01	1	0.0880036820017267	1	113	NA	252.078653356002	0	0.25	2.25	1	246.35606505	246.444068732002	"11"	45160.349224579	45153.478126956	1.5	0.1
0.01	1	0.0681539110009908	1	113	NA	252.078653356002	0	0.25	2.25	1	246.673343474999	246.741497386	"11"	45160.349224579	45153.478126956	1.5	0.1
0.01	1	0.064146783995966	1	113	NA	252.078653356002	0	0.25	2.25	1	246.973866680004	247.038013464	"11"	45160.349224579	45153.478126956	1.5	0.1
0.01	1	0.0752160209958674	1	113	NA	252.078653356002	0	0.25	2.25	1	247.274411117003	247.349627137999	"11"	45160.349224579	45153.478126956	1.5	0.1
0.01	1	0.0786159470007988	1	113	NA	252.078653356002	0	0.25	2.25	1	247.574906886999	247.653522834	"11"	45160.349224579	45153.478126956	1.5	0.1
0.01	1	0.057080954000412	1	113	NA	252.078653356002	0	0.25	2.25	1	247.892062339997	247.949143293998	"11"	45160.349224579	45153.478126956	1.5	0.1
0.01	1	0.685024432001228	1	113	NA	252.078653356002	0	0.25	2.25	1	248.175908245001	248.860932677002	"11"	45160.349224579	45153.478126956	1.5	0.1
0.01	1	0.224060764994647	1	113	NA	252.078653356002	0	0.25	2.25	1	249.094113475003	249.318174239997	"11"	45160.349224579	45153.478126956	1.5	0.1
0.01	1	0.340094346996921	1	113	NA	252.078653356002	0	0.25	2.25	1	249.544744430001	249.884838776998	"11"	45160.349224579	45153.478126956	1.5	0.1
0.01	1	0.372394650999922	1	113	NA	252.078653356002	0	0.25	2.25	1	250.112379799	250.48477445	"11"	45160.349224579	45153.478126956	1.5	0.1
0.01	1	0.643136989005143	1	113	NA	252.078653356002	0	0.25	2.25	1	250.713408821997	251.356545811002	"11"	45160.349224579	45153.478126956	1.5	0.1
0.01	1	0.495429413000238	2	113	NA	252.078653356002	0	0.25	2.25	1	251.581668550003	252.077097963003	"11"	45160.349224579	45153.478126956	1.5	0.1
0.01	1	0.493133847994613	1	109	NA	269.727584925	0	0.31	2.56	1	254.135829550003	254.628963397998	"12"	45160.349224579	45153.478126956	1.5	0.1
0.01	1	0.0953303080023034	1	109	NA	269.727584925	0	0.31	2.56	1	254.870498477001	254.965828785003	"12"	45160.349224579	45153.478126956	1.5	0.1
0.01	1	0.0481430069994531	1	109	NA	269.727584925	0	0.31	2.56	1	255.204340385004	255.252483392003	"12"	45160.349224579	45153.478126956	1.5	0.1
0.01	1	0.052479174999462	1	109	NA	269.727584925	0	0.31	2.56	1	255.488168659998	255.540647834998	"12"	45160.349224579	45153.478126956	1.5	0.1
0.01	1	0.0496035409960314	1	109	NA	269.727584925	0	0.31	2.56	1	255.771887697003	255.821491237999	"12"	45160.349224579	45153.478126956	1.5	0.1
0.01	1	0.0528528350041597	1	109	NA	269.727584925	0	0.31	2.56	1	256.055848684999	256.108701520003	"12"	45160.349224579	45153.478126956	1.5	0.1
0.01	1	0.0416656999950646	1	109	NA	269.727584925	0	0.31	2.56	1	256.339604045002	256.381269744998	"12"	45160.349224579	45153.478126956	1.5	0.1
0.01	1	0.0782467180033564	1	109	NA	269.727584925	0	0.31	2.56	1	256.606767256999	256.685013975002	"12"	45160.349224579	45153.478126956	1.5	0.1
0.01	1	0.0978057370011811	1	109	NA	269.727584925	0	0.31	2.56	1	256.907229623001	257.005035360002	"12"	45160.349224579	45153.478126956	1.5	0.1
0.01	1	0.0596921789983753	1	109	NA	269.727584925	0	0.31	2.56	1	257.241057915002	257.300750094	"12"	45160.349224579	45153.478126956	1.5	0.1
0.01	1	0.600137096000253	1	109	NA	269.727584925	0	0.31	2.56	1	257.524866514999	258.125003611	"12"	45160.349224579	45153.478126956	1.5	0.1
0.01	1	0.0688550139966537	1	109	NA	269.727584925	0	0.31	2.56	1	258.359621527001	258.428476540998	"12"	45160.349224579	45153.478126956	1.5	0.1
0.01	1	0.0654067829964333	1	109	NA	269.727584925	0	0.31	2.56	1	258.660124305003	258.725531087999	"12"	45160.349224579	45153.478126956	1.5	0.1
0.01	1	0.0531366599971079	1	109	NA	269.727584925	0	0.31	2.56	1	258.960607289002	259.013743948999	"12"	45160.349224579	45153.478126956	1.5	0.1
0.01	1	0.05694270299864	1	109	NA	269.727584925	0	0.31	2.56	1	259.244412587002	259.301355290001	"12"	45160.349224579	45153.478126956	1.5	0.1
0.01	1	0.0606925389947719	1	109	NA	269.727584925	0	0.31	2.56	1	259.528294105003	259.588986643997	"12"	45160.349224579	45153.478126956	1.5	0.1
0.01	1	0.0495673330005957	1	109	NA	269.727584925	0	0.31	2.56	1	259.812025974999	259.861593308	"12"	45160.349224579	45153.478126956	1.5	0.1
0.01	1	0.0528318630022113	1	109	NA	269.727584925	0	0.31	2.56	1	260.096030255001	260.148862118003	"12"	45160.349224579	45153.478126956	1.5	0.1
0.01	1	0.0579938180017052	1	109	NA	269.727584925	0	0.31	2.56	1	260.379691504997	260.437685322999	"12"	45160.349224579	45153.478126956	1.5	0.1
0.01	1	0.0288138609976158	1	109	NA	269.727584925	0	0.31	2.56	1	260.663523247	260.692337107997	"12"	45160.349224579	45153.478126956	1.5	0.1
0.01	1	1.04989009800192	1	109	NA	269.727584925	0	0.31	2.56	1	260.93056262	261.980452718002	"12"	45160.349224579	45153.478126956	1.5	0.1
0.01	1	0.165713258000324	1	109	NA	269.727584925	0	0.31	2.56	1	262.216134707	262.381847965	"12"	45160.349224579	45153.478126956	1.5	0.1
0.01	1	0.323593387998699	1	109	NA	269.727584925	0	0.31	2.56	1	262.61684558	262.940438967998	"12"	45160.349224579	45153.478126956	1.5	0.1
0.01	1	0.245059665998269	1	109	NA	269.727584925	0	0.31	2.56	1	263.167751961999	263.412811627997	"12"	45160.349224579	45153.478126956	1.5	0.1
0.01	1	0.361148135998519	1	109	NA	269.727584925	0	0.31	2.56	1	263.635117390004	263.996265526002	"12"	45160.349224579	45153.478126956	1.5	0.1
0.01	1	0.881126781998319	1	109	NA	269.727584925	0	0.31	2.56	1	264.219613225003	265.100740007001	"12"	45160.349224579	45153.478126956	1.5	0.1
0.01	1	0.587756769004045	1	109	NA	269.727584925	0	0.31	2.56	1	265.337976299998	265.925733069002	"12"	45160.349224579	45153.478126956	1.5	0.1
0.01	1	0.353713256001356	1	109	NA	269.727584925	0	0.31	2.56	1	266.156151686999	266.509864943	"12"	45160.349224579	45153.478126956	1.5	0.1
0.01	1	0.257660032999411	1	109	NA	269.727584925	0	0.31	2.56	1	266.740468902004	266.998128935003	"12"	45160.349224579	45153.478126956	1.5	0.1
0.01	1	0.221361372998217	1	109	NA	269.727584925	0	0.31	2.56	1	267.224607037002	267.44596841	"12"	45160.349224579	45153.478126956	1.5	0.1
0.01	1	1.40985897999781	1	109	NA	269.727584925	0	0.31	2.56	1	267.675354145002	269.085213124999	"12"	45160.349224579	45153.478126956	1.5	0.1
0.01	1	0.414684212002612	2	109	NA	269.727584925	0	0.31	2.56	1	269.311373461998	269.726057674001	"12"	45160.349224579	45153.478126956	1.5	0.1
0.01	1	3.28276175200153	1	29	294.573834797004	NA	1	0	2.56	1	271.782249650001	275.065011402003	"13"	45160.349224579	45153.478126956	1.5	0.1
0.01	1	0.160211310001614	1	29	294.573834797004	NA	1	0	2.56	1	275.304786105	275.464997415002	"13"	45160.349224579	45153.478126956	1.5	0.1
0.01	1	0.151991289996658	1	29	294.573834797004	NA	1	0	2.56	1	275.688741677004	275.840732967001	"13"	45160.349224579	45153.478126956	1.5	0.1
0.01	1	0.657065662002424	1	29	294.573834797004	NA	1	0	2.56	1	276.07278717	276.729852832003	"13"	45160.349224579	45153.478126956	1.5	0.1
0.01	1	0.420276336000825	1	29	294.573834797004	NA	1	0	2.56	1	276.957576847002	277.377853183003	"13"	45160.349224579	45153.478126956	1.5	0.1
0.01	1	0.217213988995354	1	29	294.573834797004	NA	1	0	2.56	1	277.608654460004	277.825868448999	"13"	45160.349224579	45153.478126956	1.5	0.1
0.01	1	0.348978571993939	1	29	294.573834797004	NA	1	0	2.56	1	278.059525317003	278.408503888997	"13"	45160.349224579	45153.478126956	1.5	0.1
0.01	1	0.364694910000253	1	29	294.573834797004	NA	1	0	2.56	1	278.643820625002	279.008515535003	"13"	45160.349224579	45153.478126956	1.5	0.1
0.01	1	0.22029630200268	1	29	294.573834797004	NA	1	0	2.56	1	279.244729614999	279.465025917001	"13"	45160.349224579	45153.478126956	1.5	0.1
0.01	1	0.21781114499754	1	29	294.573834797004	NA	1	0	2.56	1	279.695538557004	279.913349702001	"13"	45160.349224579	45153.478126956	1.5	0.1
0.01	1	0.35089098699973	1	29	294.573834797004	NA	1	0	2.56	1	280.146273867002	280.497164854001	"13"	45160.349224579	45153.478126956	1.5	0.1
0.01	1	0.166856497999106	1	29	294.573834797004	NA	1	0	2.56	1	280.730570042004	280.897426540003	"13"	45160.349224579	45153.478126956	1.5	0.1
0.01	1	0.0544315320003079	1	29	294.573834797004	NA	1	0	2.56	1	281.131259631999	281.185691163999	"13"	45160.349224579	45153.478126956	1.5	0.1
0.01	1	0.0263040560021182	1	29	294.573834797004	NA	1	0	2.56	1	281.415150802	281.441454858003	"13"	45160.349224579	45153.478126956	1.5	0.1
0.01	1	0.0546793480025372	1	29	294.573834797004	NA	1	0	2.56	1	281.682154855	281.736834203002	"13"	45160.349224579	45153.478126956	1.5	0.1
0.01	1	1.02734962600516	1	29	294.573834797004	NA	1	0	2.56	1	281.965948099998	282.993297726003	"13"	45160.349224579	45153.478126956	1.5	0.1
0.01	1	0.392344710002362	1	29	294.573834797004	NA	1	0	2.56	1	283.218080004997	283.610424715	"13"	45160.349224579	45153.478126956	1.5	0.1
0.01	1	0.340894968001521	1	29	294.573834797004	NA	1	0	2.56	1	283.835835425001	284.176730393003	"13"	45160.349224579	45153.478126956	1.5	0.1
0.01	1	0.31801265499962	1	29	294.573834797004	NA	1	0	2.56	1	284.40353086	284.721543514999	"13"	45160.349224579	45153.478126956	1.5	0.1
0.01	1	1.1916815020013	1	29	294.573834797004	NA	1	0	2.56	1	284.954359586998	286.146041088999	"13"	45160.349224579	45153.478126956	1.5	0.1
0.01	1	0.612839415996859	1	29	294.573834797004	NA	1	0	2.56	1	286.373497407003	286.986336823	"13"	45160.349224579	45153.478126956	1.5	0.1
0.01	1	1.55212499299523	1	29	294.573834797004	NA	1	0	2.56	1	287.224799645002	288.776924637998	"13"	45160.349224579	45153.478126956	1.5	0.1
0.01	1	0.550789663000614	1	29	294.573834797004	NA	1	0	2.56	1	289.011136344998	289.561926007998	"13"	45160.349224579	45153.478126956	1.5	0.1
0.01	1	1.03015376999974	1	29	294.573834797004	NA	1	0	2.56	1	289.795913784998	290.826067554997	"13"	45160.349224579	45153.478126956	1.5	0.1
0.01	1	1.16880282299826	1	29	294.573834797004	NA	1	0	2.56	1	291.064653355003	292.233456178001	"13"	45160.349224579	45153.478126956	1.5	0.1
0.01	1	0.309263574999932	1	29	294.573834797004	NA	1	0	2.56	1	292.467094801999	292.776358376999	"13"	45160.349224579	45153.478126956	1.5	0.1
0.01	1	0.265030898997793	1	29	294.573834797004	NA	1	0	2.56	1	293.001171722004	293.266202621002	"13"	45160.349224579	45153.478126956	1.5	0.1
0.01	1	0.371536448001279	1	29	294.573834797004	NA	1	0	2.56	1	293.502098015	293.873634463002	"13"	45160.349224579	45153.478126956	1.5	0.1
0.01	1	0.354809811004088	1	29	294.573834797004	NA	1	0	2.56	1	294.103128916999	294.457938728003	"13"	45160.349224579	45153.478126956	1.5	0.1
0.01	1	1.88069600100425	1	69	NA	316.035363412004	0	0.25	2.81	1	296.624054264998	298.504750266002	"14"	45160.349224579	45153.478126956	1.5	0.1
0.01	1	0.305372160997649	1	69	NA	316.035363412004	0	0.25	2.81	1	298.744200225003	299.049572386	"14"	45160.349224579	45153.478126956	1.5	0.1
0.01	1	0.195741028001066	1	69	NA	316.035363412004	0	0.25	2.81	1	299.278444659998	299.474185687999	"14"	45160.349224579	45153.478126956	1.5	0.1
0.01	1	0.224643898000068	1	69	NA	316.035363412004	0	0.25	2.81	1	299.712550885	299.937194783	"14"	45160.349224579	45153.478126956	1.5	0.1
0.01	1	0.318902271996194	1	69	NA	316.035363412004	0	0.25	2.81	1	300.163273805003	300.482176076999	"14"	45160.349224579	45153.478126956	1.5	0.1
0.01	1	0.263045617000898	1	69	NA	316.035363412004	0	0.25	2.81	1	300.714266360003	300.977311977003	"14"	45160.349224579	45153.478126956	1.5	0.1
0.01	1	0.354825372996856	1	69	NA	316.035363412004	0	0.25	2.81	1	301.215046880003	301.569872253	"14"	45160.349224579	45153.478126956	1.5	0.1
0.01	1	0.22640839000087	1	69	NA	316.035363412004	0	0.25	2.81	1	301.799333281997	302.025741671998	"14"	45160.349224579	45153.478126956	1.5	0.1
0.01	1	0.157845838002686	1	69	NA	316.035363412004	0	0.25	2.81	1	302.26680954	302.424655378003	"14"	45160.349224579	45153.478126956	1.5	0.1
0.01	1	0.173938842999632	1	69	NA	316.035363412004	0	0.25	2.81	1	302.650779475	302.824718317999	"14"	45160.349224579	45153.478126956	1.5	0.1
0.01	1	0.709813563000353	1	69	NA	316.035363412004	0	0.25	2.81	1	303.051552645004	303.761366208004	"14"	45160.349224579	45153.478126956	1.5	0.1
0.01	1	0.271228094999969	1	69	NA	316.035363412004	0	0.25	2.81	1	303.986295570001	304.257523665001	"14"	45160.349224579	45153.478126956	1.5	0.1
0.01	1	0.281263581993699	1	69	NA	316.035363412004	0	0.25	2.81	1	304.487259325004	304.768522906998	"14"	45160.349224579	45153.478126956	1.5	0.1
0.01	1	0.244364397003665	1	69	NA	316.035363412004	0	0.25	2.81	1	305.004649244998	305.249013642002	"14"	45160.349224579	45153.478126956	1.5	0.1
0.01	1	0.280636190000223	1	69	NA	316.035363412004	0	0.25	2.81	1	305.488904570004	305.769540760004	"14"	45160.349224579	45153.478126956	1.5	0.1
0.01	1	0.37881683500018	1	69	NA	316.035363412004	0	0.25	2.81	1	306.006422357001	306.385239192001	"14"	45160.349224579	45153.478126956	1.5	0.1
0.01	1	0.362455492002482	1	69	NA	316.035363412004	0	0.25	2.81	1	306.607389022	306.969844514002	"14"	45160.349224579	45153.478126956	1.5	0.1
0.01	1	1.86599500900047	1	69	NA	316.035363412004	0	0.25	2.81	1	307.208366464998	309.074361473999	"14"	45160.349224579	45153.478126956	1.5	0.1
0.01	1	0.561012507998385	1	69	NA	316.035363412004	0	0.25	2.81	1	309.312029817003	309.873042325002	"14"	45160.349224579	45153.478126956	1.5	0.1
0.01	1	0.39364356599981	1	69	NA	316.035363412004	0	0.25	2.81	1	310.096613000002	310.490256566001	"14"	45160.349224579	45153.478126956	1.5	0.1
0.01	1	1.11958934900031	1	69	NA	316.035363412004	0	0.25	2.81	1	310.714276489998	311.833865838998	"14"	45160.349224579	45153.478126956	1.5	0.1
0.01	1	2.20609411800251	1	69	NA	316.035363412004	0	0.25	2.81	1	312.066645847	314.272739965003	"14"	45160.349224579	45153.478126956	1.5	0.1
0.01	1	0.0342278860043734	1	69	NA	316.035363412004	0	0.25	2.81	1	314.504034056998	314.538261943002	"14"	45160.349224579	45153.478126956	1.5	0.1
0.01	1	0.25392950999958	1	69	NA	316.035363412004	0	0.25	2.81	1	314.771138065	315.025067574999	"14"	45160.349224579	45153.478126956	1.5	0.1
0.01	1	0.218362707004417	1	69	NA	316.035363412004	0	0.25	2.81	1	315.255321586999	315.473684294004	"14"	45160.349224579	45153.478126956	1.5	0.1
0.01	1	0.327701840004011	2	69	NA	316.035363412004	0	0.25	2.81	1	315.70610566	316.033807500004	"14"	45160.349224579	45153.478126956	1.5	0.1
0.01	1	2.47215744999994	1	56	NA	338.376310651001	0	0.31	3.12	1	318.076695495001	320.548852945001	"15"	45160.349224579	45153.478126956	1.5	0.1
0.01	1	0.471977825000067	1	56	NA	338.376310651001	0	0.31	3.12	1	320.781270749998	321.253248574998	"15"	45160.349224579	45153.478126956	1.5	0.1
0.01	1	0.339550384996983	1	56	NA	338.376310651001	0	0.31	3.12	1	321.482445130001	321.821995514998	"15"	45160.349224579	45153.478126956	1.5	0.1
0.01	1	0.339768325997284	1	56	NA	338.376310651001	0	0.31	3.12	1	322.050033352003	322.389801678	"15"	45160.349224579	45153.478126956	1.5	0.1
0.01	1	0.347916933002125	1	56	NA	338.376310651001	0	0.31	3.12	1	322.617680602001	322.965597535003	"15"	45160.349224579	45153.478126956	1.5	0.1
0.01	1	0.347172336005315	1	56	NA	338.376310651001	0	0.31	3.12	1	323.201908741998	323.549081078003	"15"	45160.349224579	45153.478126956	1.5	0.1
0.01	1	0.29222160000063	1	56	NA	338.376310651001	0	0.31	3.12	1	323.786406945001	324.078628545001	"15"	45160.349224579	45153.478126956	1.5	0.1
0.01	1	0.924763806004194	1	56	NA	338.376310651001	0	0.31	3.12	1	324.303997604999	325.228761411003	"15"	45160.349224579	45153.478126956	1.5	0.1
0.01	1	0.333230182004627	1	56	NA	338.376310651001	0	0.31	3.12	1	325.455841399998	325.789071582003	"15"	45160.349224579	45153.478126956	1.5	0.1
0.01	1	0.230742750994978	1	56	NA	338.376310651001	0	0.31	3.12	1	326.023409637004	326.254152387999	"15"	45160.349224579	45153.478126956	1.5	0.1
0.01	1	0.266030350998335	1	56	NA	338.376310651001	0	0.31	3.12	1	326.490848775	326.756879125998	"15"	45160.349224579	45153.478126956	1.5	0.1
0.01	1	2.08670513299876	1	56	NA	338.376310651001	0	0.31	3.12	1	326.991612317004	329.078317450003	"15"	45160.349224579	45153.478126956	1.5	0.1
0.01	1	0.124780302998261	1	56	NA	338.376310651001	0	0.31	3.12	1	329.312315565003	329.437095868001	"15"	45160.349224579	45153.478126956	1.5	0.1
0.01	1	0.157974431000184	1	56	NA	338.376310651001	0	0.31	3.12	1	329.662913291999	329.820887722999	"15"	45160.349224579	45153.478126956	1.5	0.1
0.01	1	0.142881564999698	1	56	NA	338.376310651001	0	0.31	3.12	1	330.046904870003	330.189786435003	"15"	45160.349224579	45153.478126956	1.5	0.1
0.01	1	0.462886358996911	1	56	NA	338.376310651001	0	0.31	3.12	1	330.430883385001	330.893769743998	"15"	45160.349224579	45153.478126956	1.5	0.1
0.01	1	0.369636063005601	1	56	NA	338.376310651001	0	0.31	3.12	1	331.132142144997	331.501778208003	"15"	45160.349224579	45153.478126956	1.5	0.1
0.01	1	0.271930746996077	1	56	NA	338.376310651001	0	0.31	3.12	1	331.733069325004	332.005000072	"15"	45160.349224579	45153.478126956	1.5	0.1
0.01	1	0.347465197999554	1	56	NA	338.376310651001	0	0.31	3.12	1	332.233818300003	332.581283498002	"15"	45160.349224579	45153.478126956	1.5	0.1
0.01	1	0.259818856000493	1	56	NA	338.376310651001	0	0.31	3.12	1	332.818176180001	333.077995036001	"15"	45160.349224579	45153.478126956	1.5	0.1
0.01	1	0.0700115189974895	1	56	NA	338.376310651001	0	0.31	3.12	1	333.318967077001	333.388978595998	"15"	45160.349224579	45153.478126956	1.5	0.1
0.01	1	0.0832450130037614	1	56	NA	338.376310651001	0	0.31	3.12	1	333.619473744999	333.702718758002	"15"	45160.349224579	45153.478126956	1.5	0.1
0.01	1	0.133398400997976	1	56	NA	338.376310651001	0	0.31	3.12	1	333.936750825	334.070149225998	"15"	45160.349224579	45153.478126956	1.5	0.1
0.01	1	0.206380433002778	1	56	NA	338.376310651001	0	0.31	3.12	1	334.304039814997	334.510420248	"15"	45160.349224579	45153.478126956	1.5	0.1
0.01	1	0.308443452006031	1	56	NA	338.376310651001	0	0.31	3.12	1	334.738061306998	335.046504759004	"15"	45160.349224579	45153.478126956	1.5	0.1
0.01	1	0.484874426001625	1	56	NA	338.376310651001	0	0.31	3.12	1	335.272204704997	335.757079130999	"15"	45160.349224579	45153.478126956	1.5	0.1
0.01	1	0.0464996630034875	1	56	NA	338.376310651001	0	0.31	3.12	1	335.990197924999	336.036697588002	"15"	45160.349224579	45153.478126956	1.5	0.1
0.01	1	0.0992950409927289	1	56	NA	338.376310651001	0	0.31	3.12	1	336.274062287004	336.373357327997	"15"	45160.349224579	45153.478126956	1.5	0.1
0.01	1	0.452764323999872	1	56	NA	338.376310651001	0	0.31	3.12	1	336.608022184999	337.060786508999	"15"	45160.349224579	45153.478126956	1.5	0.1
0.01	1	0.0100402750031208	1	56	NA	338.376310651001	0	0.31	3.12	1	337.292363706998	337.302403982001	"15"	45160.349224579	45153.478126956	1.5	0.1
0.01	1	0.00209503800579114	1	56	NA	338.376310651001	0	0.31	3.12	1	337.526156125998	337.528251164003	"15"	45160.349224579	45153.478126956	1.5	0.1
0.01	1	0.614880244997039	2	56	NA	338.376310651001	0	0.31	3.12	1	337.759888530003	338.374768775	"15"	45160.349224579	45153.478126956	1.5	0.1
0.01	1	4.77465238100558	1	80	NA	354.959701844004	0	0.3	3.42	1	340.430977509997	345.205629891003	"16"	45160.349224579	45153.478126956	1.5	0.1
0.01	1	0.0555009160016198	1	80	NA	354.959701844004	0	0.3	3.42	1	345.439422821997	345.494923737999	"16"	45160.349224579	45153.478126956	1.5	0.1
0.01	1	0.108317058999091	1	80	NA	354.959701844004	0	0.3	3.42	1	345.723133220003	345.831450279002	"16"	45160.349224579	45153.478126956	1.5	0.1
0.01	1	0.0938971740033594	1	80	NA	354.959701844004	0	0.3	3.42	1	346.057188829	346.151086003003	"16"	45160.349224579	45153.478126956	1.5	0.1
0.01	1	0.0792110570037039	1	80	NA	354.959701844004	0	0.3	3.42	1	346.374255994997	346.453467052001	"16"	45160.349224579	45153.478126956	1.5	0.1
0.01	1	0.0346198199986247	1	80	NA	354.959701844004	0	0.3	3.42	1	346.69151579	346.726135609999	"16"	45160.349224579	45153.478126956	1.5	0.1
0.01	1	0.054751233998104	1	80	NA	354.959701844004	0	0.3	3.42	1	346.958644165003	347.013395399001	"16"	45160.349224579	45153.478126956	1.5	0.1
0.01	1	0.0755975089996355	1	80	NA	354.959701844004	0	0.3	3.42	1	347.242498788	347.318096297	"16"	45160.349224579	45153.478126956	1.5	0.1
0.01	1	0.102607508997608	1	80	NA	354.959701844004	0	0.3	3.42	1	347.543027660002	347.645635168999	"16"	45160.349224579	45153.478126956	1.5	0.1
0.01	1	0.1224301809998	1	80	NA	354.959701844004	0	0.3	3.42	1	347.876874426998	347.999304607998	"16"	45160.349224579	45153.478126956	1.5	0.1
0.01	1	0.0979174980020616	1	80	NA	354.959701844004	0	0.3	3.42	1	348.227446780002	348.325364278004	"16"	45160.349224579	45153.478126956	1.5	0.1
0.01	1	0.100473587001034	1	80	NA	354.959701844004	0	0.3	3.42	1	348.561356049999	348.661829637	"16"	45160.349224579	45153.478126956	1.5	0.1
0.01	1	0.0880771219963208	1	80	NA	354.959701844004	0	0.3	3.42	1	348.895190517003	348.983267639	"16"	45160.349224579	45153.478126956	1.5	0.1
0.01	1	0.0892586319969269	1	80	NA	354.959701844004	0	0.3	3.42	1	349.21239624	349.301654871997	"16"	45160.349224579	45153.478126956	1.5	0.1
0.01	1	0.0606257559993537	1	80	NA	354.959701844004	0	0.3	3.42	1	349.529622038004	349.590247794004	"16"	45160.349224579	45153.478126956	1.5	0.1
0.01	1	0.0414082630013581	1	80	NA	354.959701844004	0	0.3	3.42	1	349.813410146999	349.85481841	"16"	45160.349224579	45153.478126956	1.5	0.1
0.01	1	0.0611575610018917	1	80	NA	354.959701844004	0	0.3	3.42	1	350.080570753002	350.141728314004	"16"	45160.349224579	45153.478126956	1.5	0.1
0.01	1	0.0653106870013289	1	80	NA	354.959701844004	0	0.3	3.42	1	350.364328124997	350.429638811998	"16"	45160.349224579	45153.478126956	1.5	0.1
0.01	1	0.070460146998812	1	80	NA	354.959701844004	0	0.3	3.42	1	350.664761680004	350.735221827003	"16"	45160.349224579	45153.478126956	1.5	0.1
0.01	1	0.0884788059993298	1	80	NA	354.959701844004	0	0.3	3.42	1	350.965346001998	351.053824807997	"16"	45160.349224579	45153.478126956	1.5	0.1
0.01	1	0.0914240359998075	1	80	NA	354.959701844004	0	0.3	3.42	1	351.282756703004	351.374180739003	"16"	45160.349224579	45153.478126956	1.5	0.1
0.01	1	0.101841707997664	1	80	NA	354.959701844004	0	0.3	3.42	1	351.599747259999	351.701588967997	"16"	45160.349224579	45153.478126956	1.5	0.1
0.01	1	0.0649557069991715	1	80	NA	354.959701844004	0	0.3	3.42	1	351.933608266998	351.998563973997	"16"	45160.349224579	45153.478126956	1.5	0.1
0.01	1	0.059449031999975	1	80	NA	354.959701844004	0	0.3	3.42	1	352.234181840002	352.293630872002	"16"	45160.349224579	45153.478126956	1.5	0.1
0.01	1	0.0646557479994954	1	80	NA	354.959701844004	0	0.3	3.42	1	352.517919735001	352.582575483	"16"	45160.349224579	45153.478126956	1.5	0.1
0.01	1	0.0437466430012137	1	80	NA	354.959701844004	0	0.3	3.42	1	352.818620644997	352.862367287998	"16"	45160.349224579	45153.478126956	1.5	0.1
0.01	1	0.0890291739997338	1	80	NA	354.959701844004	0	0.3	3.42	1	353.085524829999	353.174554003999	"16"	45160.349224579	45153.478126956	1.5	0.1
0.01	1	0.0915228119993117	1	80	NA	354.959701844004	0	0.3	3.42	1	353.402797369999	353.494320181999	"16"	45160.349224579	45153.478126956	1.5	0.1
0.01	1	0.0942294909982593	1	80	NA	354.959701844004	0	0.3	3.42	1	353.720029586002	353.814259077	"16"	45160.349224579	45153.478126956	1.5	0.1
0.01	1	0.128605488993344	1	80	NA	354.959701844004	0	0.3	3.42	1	354.037232405004	354.165837893997	"16"	45160.349224579	45153.478126956	1.5	0.1
0.01	1	0.570228545999271	2	80	NA	354.959701844004	0	0.3	3.42	1	354.387894104999	354.958122650998	"16"	45160.349224579	45153.478126956	1.5	0.1
0.01	1	0.685067439997511	1	30	366.661424575002	NA	1	0	3.42	1	357.008845267002	357.693912707	"17"	45160.349224579	45153.478126956	1.5	0.1
0.01	1	0.0236056040012045	1	30	366.661424575002	NA	1	0	3.42	1	357.927142004999	357.950747609	"17"	45160.349224579	45153.478126956	1.5	0.1
0.01	1	0.0612841170004685	1	30	366.661424575002	NA	1	0	3.42	1	358.177576424998	358.238860541998	"17"	45160.349224579	45153.478126956	1.5	0.1
0.01	1	0.0560471680000774	1	30	366.661424575002	NA	1	0	3.42	1	358.461304375	358.517351543	"17"	45160.349224579	45153.478126956	1.5	0.1
0.01	1	0.0445258479958284	1	30	366.661424575002	NA	1	0	3.42	1	358.745124075002	358.789649922997	"17"	45160.349224579	45153.478126956	1.5	0.1
0.01	1	0.0415236189946881	1	30	366.661424575002	NA	1	0	3.42	1	359.012317070003	359.053840688997	"17"	45160.349224579	45153.478126956	1.5	0.1
0.01	1	0.0624123349989532	1	30	366.661424575002	NA	1	0	3.42	1	359.279351080004	359.341763415003	"17"	45160.349224579	45153.478126956	1.5	0.1
0.01	1	0.0416664370059152	1	30	366.661424575002	NA	1	0	3.42	1	359.579791101998	359.621457539004	"17"	45160.349224579	45153.478126956	1.5	0.1
0.01	1	0.0547888769942801	1	30	366.661424575002	NA	1	0	3.42	1	359.846979200003	359.901768076998	"17"	45160.349224579	45153.478126956	1.5	0.1
0.01	1	0.0524448139985907	1	30	366.661424575002	NA	1	0	3.42	1	360.130806200003	360.183251014001	"17"	45160.349224579	45153.478126956	1.5	0.1
0.01	1	0.432746933001908	1	30	366.661424575002	NA	1	0	3.42	1	360.414593955	360.847340888002	"17"	45160.349224579	45153.478126956	1.5	0.1
0.01	1	0.0449902740001562	1	30	366.661424575002	NA	1	0	3.42	1	361.082405137	361.127395411	"17"	45160.349224579	45153.478126956	1.5	0.1
0.01	1	0.0318716600013431	1	30	366.661424575002	NA	1	0	3.42	1	361.349464722	361.381336382001	"17"	45160.349224579	45153.478126956	1.5	0.1
0.01	1	0.0615676490051555	1	30	366.661424575002	NA	1	0	3.42	1	361.616649739997	361.678217389002	"17"	45160.349224579	45153.478126956	1.5	0.1
0.01	1	0.0171784710037173	1	30	366.661424575002	NA	1	0	3.42	1	361.900452114998	361.917630586002	"17"	45160.349224579	45153.478126956	1.5	0.1
0.01	1	0.0469287980013178	1	30	366.661424575002	NA	1	0	3.42	1	362.150880189998	362.197808987999	"17"	45160.349224579	45153.478126956	1.5	0.1
0.01	1	0.0357696220016805	1	30	366.661424575002	NA	1	0	3.42	1	362.434689378002	362.470459000004	"17"	45160.349224579	45153.478126956	1.5	0.1
0.01	1	0.0314864250030951	1	30	366.661424575002	NA	1	0	3.42	1	362.701807687001	362.733294112004	"17"	45160.349224579	45153.478126956	1.5	0.1
0.01	1	0.0298371209937613	1	30	366.661424575002	NA	1	0	3.42	1	362.968846656004	362.998683776997	"17"	45160.349224579	45153.478126956	1.5	0.1
0.01	1	0.0338143230037531	1	30	366.661424575002	NA	1	0	3.42	1	363.235990239999	363.269804563002	"17"	45160.349224579	45153.478126956	1.5	0.1
0.01	1	0.582651349999651	1	30	366.661424575002	NA	1	0	3.42	1	363.503163335001	364.085814685001	"17"	45160.349224579	45153.478126956	1.5	0.1
0.01	1	0.0362231550025172	1	30	366.661424575002	NA	1	0	3.42	1	364.321170859999	364.357394015002	"17"	45160.349224579	45153.478126956	1.5	0.1
0.01	1	0.0270902179981931	1	30	366.661424575002	NA	1	0	3.42	1	364.588239967001	364.615330184999	"17"	45160.349224579	45153.478126956	1.5	0.1
0.01	1	0.0554492619994562	1	30	366.661424575002	NA	1	0	3.42	1	364.838664579001	364.894113841001	"17"	45160.349224579	45153.478126956	1.5	0.1
0.01	1	0.0353287719990476	1	30	366.661424575002	NA	1	0	3.42	1	365.122467522	365.157796293999	"17"	45160.349224579	45153.478126956	1.5	0.1
0.01	1	0.0491672729986021	1	30	366.661424575002	NA	1	0	3.42	1	365.389692101999	365.438859374997	"17"	45160.349224579	45153.478126956	1.5	0.1
0.01	1	0.0130996619991492	1	30	366.661424575002	NA	1	0	3.42	1	365.673399755004	365.686499417003	"17"	45160.349224579	45153.478126956	1.5	0.1
0.01	1	0.0352693790046033	1	30	366.661424575002	NA	1	0	3.42	1	365.923781689999	365.959051069003	"17"	45160.349224579	45153.478126956	1.5	0.1
0.01	1	0.0555160040021292	1	30	366.661424575002	NA	1	0	3.42	1	366.190976974998	366.246492979	"17"	45160.349224579	45153.478126956	1.5	0.1
0.01	1	0.0685646040001302	1	30	366.661424575002	NA	1	0	3.42	1	366.474808767001	366.543373371002	"17"	45160.349224579	45153.478126956	1.5	0.1
0.01	1	1.06963586399797	1	77	NA	382.528042857004	0	0.3	3.72	1	368.711909477002	369.781545341	"18"	45160.349224579	45153.478126956	1.5	0.1
0.01	1	0.145299812997109	1	77	NA	382.528042857004	0	0.3	3.72	1	370.014070545003	370.159370358	"18"	45160.349224579	45153.478126956	1.5	0.1
0.01	1	0.137803362995328	1	77	NA	382.528042857004	0	0.3	3.72	1	370.381280997004	370.519084359999	"18"	45160.349224579	45153.478126956	1.5	0.1
0.01	1	0.137894384999527	1	77	NA	382.528042857004	0	0.3	3.72	1	370.748675467003	370.886569852002	"18"	45160.349224579	45153.478126956	1.5	0.1
0.01	1	0.0909172549945652	1	77	NA	382.528042857004	0	0.3	3.72	1	371.115900570003	371.206817824997	"18"	45160.349224579	45153.478126956	1.5	0.1
0.01	1	0.0856811709963949	1	77	NA	382.528042857004	0	0.3	3.72	1	371.433100522001	371.518781692997	"18"	45160.349224579	45153.478126956	1.5	0.1
0.01	1	0.0327424099959899	1	77	NA	382.528042857004	0	0.3	3.72	1	371.750348555004	371.783090965	"18"	45160.349224579	45153.478126956	1.5	0.1
0.01	1	0.0617260180006269	1	77	NA	382.528042857004	0	0.3	3.72	1	372.017419976997	372.079145994998	"18"	45160.349224579	45153.478126956	1.5	0.1
0.01	1	0.0731441919997451	1	77	NA	382.528042857004	0	0.3	3.72	1	372.301207005003	372.374351197002	"18"	45160.349224579	45153.478126956	1.5	0.1
0.01	1	0.0695751840030425	1	77	NA	382.528042857004	0	0.3	3.72	1	372.601800582001	372.671375766004	"18"	45160.349224579	45153.478126956	1.5	0.1
0.01	1	0.66337218300032	1	77	NA	382.528042857004	0	0.3	3.72	1	372.902240634998	373.565612817998	"18"	45160.349224579	45153.478126956	1.5	0.1
0.01	1	0.10671273600019	1	77	NA	382.528042857004	0	0.3	3.72	1	373.803667929998	373.910380665999	"18"	45160.349224579	45153.478126956	1.5	0.1
0.01	1	0.133503867997206	1	77	NA	382.528042857004	0	0.3	3.72	1	374.137721215004	374.271225083001	"18"	45160.349224579	45153.478126956	1.5	0.1
0.01	1	0.165129780005373	1	77	NA	382.528042857004	0	0.3	3.72	1	374.504866964999	374.669996745004	"18"	45160.349224579	45153.478126956	1.5	0.1
0.01	1	0.0926936199975898	1	77	NA	382.528042857004	0	0.3	3.72	1	374.905652517002	374.998346136999	"18"	45160.349224579	45153.478126956	1.5	0.1
0.01	1	0.279750746994978	1	77	NA	382.528042857004	0	0.3	3.72	1	375.222882865004	375.502633611999	"18"	45160.349224579	45153.478126956	1.5	0.1
0.01	1	0.146349629001634	1	77	NA	382.528042857004	0	0.3	3.72	1	375.740424764997	375.886774393999	"18"	45160.349224579	45153.478126956	1.5	0.1
0.01	1	0.121930760004034	1	77	NA	382.528042857004	0	0.3	3.72	1	376.124365739997	376.246296500001	"18"	45160.349224579	45153.478126956	1.5	0.1
0.01	1	0.115095533998101	1	77	NA	382.528042857004	0	0.3	3.72	1	376.474989365001	376.590084898999	"18"	45160.349224579	45153.478126956	1.5	0.1
0.01	1	0.156745675994898	1	77	NA	382.528042857004	0	0.3	3.72	1	376.825582110003	376.982327785998	"18"	45160.349224579	45153.478126956	1.5	0.1
0.01	1	1.42154304300493	1	77	NA	382.528042857004	0	0.3	3.72	1	377.209568129998	378.631111173003	"18"	45160.349224579	45153.478126956	1.5	0.1
0.01	1	0.0961409480005386	1	77	NA	382.528042857004	0	0.3	3.72	1	378.862352459997	378.958493407998	"18"	45160.349224579	45153.478126956	1.5	0.1
0.01	1	0.050948210999195	1	77	NA	382.528042857004	0	0.3	3.72	1	379.196169447001	379.247117658	"18"	45160.349224579	45153.478126956	1.5	0.1
0.01	1	0.0458461969974451	1	77	NA	382.528042857004	0	0.3	3.72	1	379.480017775	379.525863971998	"18"	45160.349224579	45153.478126956	1.5	0.1
0.01	1	0.0746454940017429	1	77	NA	382.528042857004	0	0.3	3.72	1	379.763818259999	379.838463754	"18"	45160.349224579	45153.478126956	1.5	0.1
0.01	1	0.0867098289963906	1	77	NA	382.528042857004	0	0.3	3.72	1	380.064237110004	380.150946939	"18"	45160.349224579	45153.478126956	1.5	0.1
0.01	1	0.0492167159973178	1	77	NA	382.528042857004	0	0.3	3.72	1	380.381556532004	380.430773248001	"18"	45160.349224579	45153.478126956	1.5	0.1
0.01	1	0.0763624109968077	1	77	NA	382.528042857004	0	0.3	3.72	1	380.665348235001	380.741710645998	"18"	45160.349224579	45153.478126956	1.5	0.1
0.01	1	0.104080973003875	1	77	NA	382.528042857004	0	0.3	3.72	1	380.965810289999	381.069891263003	"18"	45160.349224579	45153.478126956	1.5	0.1
0.01	1	0.555522866998217	1	77	NA	382.528042857004	0	0.3	3.72	1	381.299692195003	381.855215062002	"18"	45160.349224579	45153.478126956	1.5	0.1
0.01	1	0.442138832004275	2	77	NA	382.528042857004	0	0.3	3.72	1	382.084355286999	382.526494119003	"18"	45160.349224579	45153.478126956	1.5	0.1
0.01	1	0.529485430000932	1	76	NA	400.551025538	0	0.28	4	1	384.571869885003	385.101355315004	"19"	45160.349224579	45153.478126956	1.5	0.1
0.01	1	0.378751477997866	1	76	NA	400.551025538	0	0.28	4	1	385.33985212	385.718603597998	"19"	45160.349224579	45153.478126956	1.5	0.1
0.01	1	0.337555308004085	1	76	NA	400.551025538	0	0.28	4	1	385.940812515997	386.278367824001	"19"	45160.349224579	45153.478126956	1.5	0.1
0.01	1	0.00378905900288373	1	76	NA	400.551025538	0	0.28	4	1	386.508468396998	386.512257456001	"19"	45160.349224579	45153.478126956	1.5	0.1
0.01	1	0.0957606680021854	1	76	NA	400.551025538	0	0.28	4	1	386.742158116998	386.837918785001	"19"	45160.349224579	45153.478126956	1.5	0.1
0.01	1	0.234777211997425	1	76	NA	400.551025538	0	0.28	4	1	387.076119055004	387.310896267001	"19"	45160.349224579	45153.478126956	1.5	0.1
0.01	1	0.142488835001132	1	76	NA	400.551025538	0	0.28	4	1	387.543544754997	387.686033589998	"19"	45160.349224579	45153.478126956	1.5	0.1
0.01	1	0.0961371059966041	1	76	NA	400.551025538	0	0.28	4	1	387.910788927002	388.006926032998	"19"	45160.349224579	45153.478126956	1.5	0.1
0.01	1	0.0982597279944457	1	76	NA	400.551025538	0	0.28	4	1	388.244694047004	388.342953774998	"19"	45160.349224579	45153.478126956	1.5	0.1
0.01	1	1.13176913300413	1	76	NA	400.551025538	0	0.28	4	1	388.578629354997	389.710398488001	"19"	45160.349224579	45153.478126956	1.5	0.1
0.01	1	0.251254641996638	1	76	NA	400.551025538	0	0.28	4	1	389.947663630002	390.198918271999	"19"	45160.349224579	45153.478126956	1.5	0.1
0.01	1	0.342030755004089	1	76	NA	400.551025538	0	0.28	4	1	390.431743244997	390.773774000001	"19"	45160.349224579	45153.478126956	1.5	0.1
0.01	1	0.319759516001795	1	76	NA	400.551025538	0	0.28	4	1	390.999364051997	391.319123567999	"19"	45160.349224579	45153.478126956	1.5	0.1
0.01	1	0.311550840000564	1	76	NA	400.551025538	0	0.28	4	1	391.550300144998	391.861850984998	"19"	45160.349224579	45153.478126956	1.5	0.1
0.01	1	0.305080819998693	1	76	NA	400.551025538	0	0.28	4	1	392.084438780003	392.389519600001	"19"	45160.349224579	45153.478126956	1.5	0.1
0.01	1	0.275023251997482	1	76	NA	400.551025538	0	0.28	4	1	392.618764446001	392.893787697998	"19"	45160.349224579	45153.478126956	1.5	0.1
0.01	1	0.25541276900185	1	76	NA	400.551025538	0	0.28	4	1	393.119571882999	393.374984652	"19"	45160.349224579	45153.478126956	1.5	0.1
0.01	1	0.23443492899969	1	76	NA	400.551025538	0	0.28	4	1	393.603805293002	393.838240222001	"19"	45160.349224579	45153.478126956	1.5	0.1
0.01	1	0.287063996001962	1	76	NA	400.551025538	0	0.28	4	1	394.071216554999	394.358280551001	"19"	45160.349224579	45153.478126956	1.5	0.1
0.01	1	0.736846922998666	1	76	NA	400.551025538	0	0.28	4	1	394.588640656999	395.325487579998	"19"	45160.349224579	45153.478126956	1.5	0.1
0.01	1	0.336660634995496	1	76	NA	400.551025538	0	0.28	4	1	395.557045205001	395.893705839997	"19"	45160.349224579	45153.478126956	1.5	0.1
0.01	1	0.232949612000084	1	76	NA	400.551025538	0	0.28	4	1	396.124566482002	396.357516094002	"19"	45160.349224579	45153.478126956	1.5	0.1
0.01	1	0.207317470994894	1	76	NA	400.551025538	0	0.28	4	1	396.592138607004	396.799456077999	"19"	45160.349224579	45153.478126956	1.5	0.1
0.01	1	0.203277217995492	1	76	NA	400.551025538	0	0.28	4	1	397.026161640002	397.229438857998	"19"	45160.349224579	45153.478126956	1.5	0.1
0.01	1	0.586550478998106	1	76	NA	400.551025538	0	0.28	4	1	397.460130890002	398.046681369	"19"	45160.349224579	45153.478126956	1.5	0.1
0.01	1	0.487845889001619	1	76	NA	400.551025538	0	0.28	4	1	398.278348879998	398.766194768999	"19"	45160.349224579	45153.478126956	1.5	0.1
0.01	1	0.354109228996094	1	76	NA	400.551025538	0	0.28	4	1	398.996093585003	399.350202813999	"19"	45160.349224579	45153.478126956	1.5	0.1
0.01	1	0.297360696997202	1	76	NA	400.551025538	0	0.28	4	1	399.580433722003	399.877794419001	"19"	45160.349224579	45153.478126956	1.5	0.1
0.01	1	0.434766447004222	2	76	NA	400.551025538	0	0.28	4	1	400.114685934997	400.549452382002	"19"	45160.349224579	45153.478126956	1.5	0.1
0.01	1	3.06222709299618	1	57	NA	418.002047993003	0	0.3	4.3	1	402.602199435001	405.664426527997	"20"	45160.349224579	45153.478126956	1.5	0.1
0.01	1	0.246822555993276	1	57	NA	418.002047993003	0	0.3	4.3	1	405.891124562004	406.137947117997	"20"	45160.349224579	45153.478126956	1.5	0.1
0.01	1	0.306986663999851	1	57	NA	418.002047993003	0	0.3	4.3	1	406.375230520003	406.682217184003	"20"	45160.349224579	45153.478126956	1.5	0.1
0.01	1	0.132073583998135	1	57	NA	418.002047993003	0	0.3	4.3	1	406.909529130004	407.041602714002	"20"	45160.349224579	45153.478126956	1.5	0.1
0.01	1	0.117068400002609	1	57	NA	418.002047993003	0	0.3	4.3	1	407.2767924	407.393860800003	"20"	45160.349224579	45153.478126956	1.5	0.1
0.01	1	0.119074187001388	1	57	NA	418.002047993003	0	0.3	4.3	1	407.627294644997	407.746368831999	"20"	45160.349224579	45153.478126956	1.5	0.1
0.01	1	0.0963832409979659	1	57	NA	418.002047993003	0	0.3	4.3	1	407.977968480001	408.074351720999	"20"	45160.349224579	45153.478126956	1.5	0.1
0.01	1	0.0725377179987845	1	57	NA	418.002047993003	0	0.3	4.3	1	408.311908907002	408.384446625001	"20"	45160.349224579	45153.478126956	1.5	0.1
0.01	1	0.0857221639962518	1	57	NA	418.002047993003	0	0.3	4.3	1	408.612331007003	408.698053171	"20"	45160.349224579	45153.478126956	1.5	0.1
0.01	1	0.0884825379980612	1	57	NA	418.002047993003	0	0.3	4.3	1	408.929439897001	409.017922434999	"20"	45160.349224579	45153.478126956	1.5	0.1
0.01	1	0.377551673002017	1	57	NA	418.002047993003	0	0.3	4.3	1	409.246812744997	409.624364417999	"20"	45160.349224579	45153.478126956	1.5	0.1
0.01	1	0.0262714830023469	1	57	NA	418.002047993003	0	0.3	4.3	1	409.847707041998	409.873978525	"20"	45160.349224579	45153.478126956	1.5	0.1
0.01	1	0.00377879900042899	1	57	NA	418.002047993003	0	0.3	4.3	1	410.098094134999	410.101872933999	"20"	45160.349224579	45153.478126956	1.5	0.1
0.01	1	0.092469761002576	1	57	NA	418.002047993003	0	0.3	4.3	1	410.331792826997	410.424262588	"20"	45160.349224579	45153.478126956	1.5	0.1
0.01	1	0.0636324099978083	1	57	NA	418.002047993003	0	0.3	4.3	1	410.648962147003	410.712594557001	"20"	45160.349224579	45153.478126956	1.5	0.1
0.01	1	0.035606227000244	1	57	NA	418.002047993003	0	0.3	4.3	1	410.949586125003	410.985192352004	"20"	45160.349224579	45153.478126956	1.5	0.1
0.01	1	0.0243073679957888	1	57	NA	418.002047993003	0	0.3	4.3	1	411.216723980004	411.241031348	"20"	45160.349224579	45153.478126956	1.5	0.1
0.01	1	0.03778176799824	1	57	NA	418.002047993003	0	0.3	4.3	1	411.467183927001	411.504965695	"20"	45160.349224579	45153.478126956	1.5	0.1
0.01	1	0.034299328995985	1	57	NA	418.002047993003	0	0.3	4.3	1	411.734174725003	411.768474053999	"20"	45160.349224579	45153.478126956	1.5	0.1
0.01	1	0.0473492429955513	1	57	NA	418.002047993003	0	0.3	4.3	1	412.001334557004	412.0486838	"20"	45160.349224579	45153.478126956	1.5	0.1
0.01	1	0.836156418998144	1	57	NA	418.002047993003	0	0.3	4.3	1	412.285155370002	413.121311789	"20"	45160.349224579	45153.478126956	1.5	0.1
0.01	1	0.0960708790007629	1	57	NA	418.002047993003	0	0.3	4.3	1	413.353636214997	413.449707093998	"20"	45160.349224579	45153.478126956	1.5	0.1
0.01	1	0.12155454599997	1	57	NA	418.002047993003	0	0.3	4.3	1	413.687466199997	413.809020745997	"20"	45160.349224579	45153.478126956	1.5	0.1
0.01	1	0.147731985001883	1	57	NA	418.002047993003	0	0.3	4.3	1	414.038144279999	414.185876265001	"20"	45160.349224579	45153.478126956	1.5	0.1
0.01	1	0.123432135995245	1	57	NA	418.002047993003	0	0.3	4.3	1	414.422085386002	414.545517521998	"20"	45160.349224579	45153.478126956	1.5	0.1
0.01	1	1.36451806699915	1	57	NA	418.002047993003	0	0.3	4.3	1	414.772629345003	416.137147412002	"20"	45160.349224579	45153.478126956	1.5	0.1
0.01	1	0.0910443159955321	1	57	NA	418.002047993003	0	0.3	4.3	1	416.375373820003	416.466418135999	"20"	45160.349224579	45153.478126956	1.5	0.1
0.01	1	0.117125518001558	1	57	NA	418.002047993003	0	0.3	4.3	1	416.692649987002	416.809775505004	"20"	45160.349224579	45153.478126956	1.5	0.1
0.01	1	0.102357966999989	1	57	NA	418.002047993003	0	0.3	4.3	1	417.043195060003	417.145553027003	"20"	45160.349224579	45153.478126956	1.5	0.1
0.01	1	0.0557922209991375	1	57	NA	418.002047993003	0	0.3	4.3	1	417.377006836999	417.432799057999	"20"	45160.349224579	45153.478126956	1.5	0.1
0.01	1	0.339521775000321	2	57	NA	418.002047993003	0	0.3	4.3	1	417.660909826001	418.000431601002	"20"	45160.349224579	45153.478126956	1.5	0.1
0.01	1	1.8955762580008	1	83	NA	433.537750545001	0	0.3	4.6	1	420.048129707	421.943705965001	"21"	45160.349224579	45153.478126956	1.5	0.1
0.01	1	0.174692848006089	1	83	NA	433.537750545001	0	0.3	4.6	1	422.185059249998	422.359752098004	"21"	45160.349224579	45153.478126956	1.5	0.1
0.01	1	0.270751829993969	1	83	NA	433.537750545001	0	0.3	4.6	1	422.585787007003	422.856538836997	"21"	45160.349224579	45153.478126956	1.5	0.1
0.01	1	0.168570023000939	1	83	NA	433.537750545001	0	0.3	4.6	1	423.086597674999	423.255167698	"21"	45160.349224579	45153.478126956	1.5	0.1
0.01	1	0.143141152999306	1	83	NA	433.537750545001	0	0.3	4.6	1	423.487425969004	423.630567122003	"21"	45160.349224579	45153.478126956	1.5	0.1
0.01	1	0.15243152200128	1	83	NA	433.537750545001	0	0.3	4.6	1	423.854589365001	424.007020887002	"21"	45160.349224579	45153.478126956	1.5	0.1
0.01	1	0.104073230002541	1	83	NA	433.537750545001	0	0.3	4.6	1	424.238550786999	424.342624017001	"21"	45160.349224579	45153.478126956	1.5	0.1
0.01	1	0.0676315789969522	1	83	NA	433.537750545001	0	0.3	4.6	1	424.572518770001	424.640150348998	"21"	45160.349224579	45153.478126956	1.5	0.1
0.01	1	0.102910058005364	1	83	NA	433.537750545001	0	0.3	4.6	1	424.872989404997	424.975899463003	"21"	45160.349224579	45153.478126956	1.5	0.1
0.01	1	0.0563537920024828	1	83	NA	433.537750545001	0	0.3	4.6	1	425.206857944999	425.263211737001	"21"	45160.349224579	45153.478126956	1.5	0.1
0.01	1	1.0457717140016	1	83	NA	433.537750545001	0	0.3	4.6	1	425.490672856002	426.536444570003	"21"	45160.349224579	45153.478126956	1.5	0.1
0.01	1	0.0715603819990065	1	83	NA	433.537750545001	0	0.3	4.6	1	426.759464834999	426.831025216998	"21"	45160.349224579	45153.478126956	1.5	0.1
0.01	1	0.074726176004333	1	83	NA	433.537750545001	0	0.3	4.6	1	427.060018689997	427.134744866002	"21"	45160.349224579	45153.478126956	1.5	0.1
0.01	1	0.0381253399973502	1	83	NA	433.537750545001	0	0.3	4.6	1	427.360532940002	427.398658279999	"21"	45160.349224579	45153.478126956	1.5	0.1
0.01	1	0.051706471000216	1	83	NA	433.537750545001	0	0.3	4.6	1	427.627605841997	427.679312312997	"21"	45160.349224579	45153.478126956	1.5	0.1
0.01	1	0.0648647130001336	1	83	NA	433.537750545001	0	0.3	4.6	1	427.911523522002	427.976388235002	"21"	45160.349224579	45153.478126956	1.5	0.1
0.01	1	0.0439857000019401	1	83	NA	433.537750545001	0	0.3	4.6	1	428.21199566	428.255981360002	"21"	45160.349224579	45153.478126956	1.5	0.1
0.01	1	0.0395975049978006	1	83	NA	433.537750545001	0	0.3	4.6	1	428.47897543	428.518572934998	"21"	45160.349224579	45153.478126956	1.5	0.1
0.01	1	0.0534917109980597	1	83	NA	433.537750545001	0	0.3	4.6	1	428.746104235004	428.799595946002	"21"	45160.349224579	45153.478126956	1.5	0.1
0.01	1	0.0816256149992114	1	83	NA	433.537750545001	0	0.3	4.6	1	429.030005209999	429.111630824998	"21"	45160.349224579	45153.478126956	1.5	0.1
0.01	1	0.659270691998245	1	83	NA	433.537750545001	0	0.3	4.6	1	429.347256000001	430.006526691999	"21"	45160.349224579	45153.478126956	1.5	0.1
0.01	1	0.0549356140036252	1	83	NA	433.537750545001	0	0.3	4.6	1	430.2319632	430.286898814004	"21"	45160.349224579	45153.478126956	1.5	0.1
0.01	1	0.0360228990030009	1	83	NA	433.537750545001	0	0.3	4.6	1	430.515880722	430.551903621003	"21"	45160.349224579	45153.478126956	1.5	0.1
0.01	1	0.0491771930028335	1	83	NA	433.537750545001	0	0.3	4.6	1	430.782882585001	430.832059778004	"21"	45160.349224579	45153.478126956	1.5	0.1
0.01	1	0.0454844229971059	1	83	NA	433.537750545001	0	0.3	4.6	1	431.066858807004	431.112343230001	"21"	45160.349224579	45153.478126956	1.5	0.1
0.01	1	0.0578533480002079	1	83	NA	433.537750545001	0	0.3	4.6	1	431.350571570001	431.408424918001	"21"	45160.349224579	45153.478126956	1.5	0.1
0.01	1	0.0297869159985567	1	83	NA	433.537750545001	0	0.3	4.6	1	431.634358802003	431.664145718001	"21"	45160.349224579	45153.478126956	1.5	0.1
0.01	1	0.0430471299987403	1	83	NA	433.537750545001	0	0.3	4.6	1	431.901513165001	431.944560295	"21"	45160.349224579	45153.478126956	1.5	0.1
0.01	1	0.174209067001357	1	83	NA	433.537750545001	0	0.3	4.6	1	432.168563856998	432.342772923999	"21"	45160.349224579	45153.478126956	1.5	0.1
0.01	1	0.398497260001022	1	83	NA	433.537750545001	0	0.3	4.6	1	432.569249485001	432.967746745002	"21"	45160.349224579	45153.478126956	1.5	0.1
0.01	1	0.332476281997515	2	83	NA	433.537750545001	0	0.3	4.6	1	433.203686410001	433.536162691998	"21"	45160.349224579	45153.478126956	1.5	0.1
0.01	1	0.831664730001648	1	104	NA	453.584889767997	0	0.29	4.89	1	435.590946411998	436.422611141999	"22"	45160.349224579	45153.478126956	1.5	0.1
0.01	1	0.0842794740019599	1	104	NA	453.584889767997	0	0.29	4.89	1	436.659561214998	436.743840689	"22"	45160.349224579	45153.478126956	1.5	0.1
0.01	1	0.166838906996418	1	104	NA	453.584889767997	0	0.29	4.89	1	436.976748330002	437.143587236998	"22"	45160.349224579	45153.478126956	1.5	0.1
0.01	1	0.183119789995544	1	104	NA	453.584889767997	0	0.29	4.89	1	437.377338097001	437.560457886997	"22"	45160.349224579	45153.478126956	1.5	0.1
0.01	1	5.1094684799973	1	104	NA	453.584889767997	0	0.29	4.89	1	437.794709175003	442.904177655	"22"	45160.349224579	45153.478126956	1.5	0.1
0.01	1	0.135009682002419	1	104	NA	453.584889767997	0	0.29	4.89	1	443.13708031	443.272089992002	"22"	45160.349224579	45153.478126956	1.5	0.1
0.01	1	0.111193937002099	1	104	NA	453.584889767997	0	0.29	4.89	1	443.504393210002	443.615587147004	"22"	45160.349224579	45153.478126956	1.5	0.1
0.01	1	0.122104602000036	1	104	NA	453.584889767997	0	0.29	4.89	1	443.838262129997	443.960366731997	"22"	45160.349224579	45153.478126956	1.5	0.1
0.01	1	0.138143329000741	1	104	NA	453.584889767997	0	0.29	4.89	1	444.188802005003	444.326945334004	"22"	45160.349224579	45153.478126956	1.5	0.1
0.01	1	0.116398106001725	1	104	NA	453.584889767997	0	0.29	4.89	1	444.556131999998	444.672530106	"22"	45160.349224579	45153.478126956	1.5	0.1
0.01	1	0.661448740997002	1	104	NA	453.584889767997	0	0.29	4.89	1	444.906667627001	445.568116367998	"22"	45160.349224579	45153.478126956	1.5	0.1
0.01	1	0.0876882059965283	1	104	NA	453.584889767997	0	0.29	4.89	1	445.791565020001	445.879253225998	"22"	45160.349224579	45153.478126956	1.5	0.1
0.01	1	0.0579700779999257	1	104	NA	453.584889767997	0	0.29	4.89	1	446.108751375999	446.166721453999	"22"	45160.349224579	45153.478126956	1.5	0.1
0.01	1	0.0860601219974342	1	104	NA	453.584889767997	0	0.29	4.89	1	446.392611310002	446.478671432	"22"	45160.349224579	45153.478126956	1.5	0.1
0.01	1	0.0341703700032667	1	104	NA	453.584889767997	0	0.29	4.89	1	446.709722822001	446.743893192004	"22"	45160.349224579	45153.478126956	1.5	0.1
0.01	1	0.0473363830024027	1	104	NA	453.584889767997	0	0.29	4.89	1	446.976897544999	447.024233928001	"22"	45160.349224579	45153.478126956	1.5	0.1
0.01	1	0.0584125870009302	1	104	NA	453.584889767997	0	0.29	4.89	1	447.260559779999	447.318972367	"22"	45160.349224579	45153.478126956	1.5	0.1
0.01	1	0.0227588339985232	1	104	NA	453.584889767997	0	0.29	4.89	1	447.544487300001	447.567246134	"22"	45160.349224579	45153.478126956	1.5	0.1
0.01	1	0.0768332919979002	1	104	NA	453.584889767997	0	0.29	4.89	1	447.794875740001	447.871709031999	"22"	45160.349224579	45153.478126956	1.5	0.1
0.01	1	0.097092119998706	1	104	NA	453.584889767997	0	0.29	4.89	1	448.095270365004	448.192362485002	"22"	45160.349224579	45153.478126956	1.5	0.1
0.01	1	1.07377331300086	1	104	NA	453.584889767997	0	0.29	4.89	1	448.42924641	449.503019723001	"22"	45160.349224579	45153.478126956	1.5	0.1
0.01	1	0.0608084020059323	1	104	NA	453.584889767997	0	0.29	4.89	1	449.731415955997	449.792224358003	"22"	45160.349224579	45153.478126956	1.5	0.1
0.01	1	0.0237197859969456	1	104	NA	453.584889767997	0	0.29	4.89	1	450.031942355003	450.055662141	"22"	45160.349224579	45153.478126956	1.5	0.1
0.01	1	0.0292275440006051	1	104	NA	453.584889767997	0	0.29	4.89	1	450.282379397002	450.311606941003	"22"	45160.349224579	45153.478126956	1.5	0.1
0.01	1	0.032983138000418	1	104	NA	453.584889767997	0	0.29	4.89	1	450.549469505	450.582452643001	"22"	45160.349224579	45153.478126956	1.5	0.1
0.01	1	0.0311534959982964	1	104	NA	453.584889767997	0	0.29	4.89	1	450.816580762003	450.847734258001	"22"	45160.349224579	45153.478126956	1.5	0.1
0.01	1	0.0359116549952887	1	104	NA	453.584889767997	0	0.29	4.89	1	451.083703540004	451.119615194999	"22"	45160.349224579	45153.478126956	1.5	0.1
0.01	1	0.136464040995634	1	104	NA	453.584889767997	0	0.29	4.89	1	451.350806597002	451.487270637997	"22"	45160.349224579	45153.478126956	1.5	0.1
0.01	1	0.953816380002536	1	104	NA	453.584889767997	0	0.29	4.89	1	451.718109515001	452.671925895003	"22"	45160.349224579	45153.478126956	1.5	0.1
0.01	1	0.679866755999683	2	104	NA	453.584889767997	0	0.29	4.89	1	452.903444554999	453.583311310998	"22"	45160.349224579	45153.478126956	1.5	0.1
0.01	1	0.776316335999581	1	15	460.920420021997	NA	1	0	4.89	1	455.60795605	456.384272386	"23"	45160.349224579	45153.478126956	1.5	0.1
0.01	1	0.0454054220026592	1	15	460.920420021997	NA	1	0	4.89	1	456.609773566997	456.655178989	"23"	45160.349224579	45153.478126956	1.5	0.1
0.01	1	0.0171554039989132	1	15	460.920420021997	NA	1	0	4.89	1	456.893493262003	456.910648666002	"23"	45160.349224579	45153.478126956	1.5	0.1
0.01	1	0.0324096010008361	1	15	460.920420021997	NA	1	0	4.89	1	457.143951154998	457.176360755999	"23"	45160.349224579	45153.478126956	1.5	0.1
0.01	1	0.0281739980055136	1	15	460.920420021997	NA	1	0	4.89	1	457.411091809998	457.439265808003	"23"	45160.349224579	45153.478126956	1.5	0.1
0.01	1	0.0825774269978865	1	15	460.920420021997	NA	1	0	4.89	1	457.661465620004	457.744043047001	"23"	45160.349224579	45153.478126956	1.5	0.1
0.01	1	0.0289308530045673	1	15	460.920420021997	NA	1	0	4.89	1	457.978691251999	458.007622105004	"23"	45160.349224579	45153.478126956	1.5	0.1
0.01	1	0.0505244430023595	1	15	460.920420021997	NA	1	0	4.89	1	458.245728777001	458.296253220004	"23"	45160.349224579	45153.478126956	1.5	0.1
0.01	1	0.0615274650044739	1	15	460.920420021997	NA	1	0	4.89	1	458.529620629997	458.591148095002	"23"	45160.349224579	45153.478126956	1.5	0.1
0.01	1	0.0818202420050511	1	15	460.920420021997	NA	1	0	4.89	1	458.813373379999	458.895193622004	"23"	45160.349224579	45153.478126956	1.5	0.1
0.01	1	0.588767029003066	1	15	460.920420021997	NA	1	0	4.89	1	459.130540001999	459.719307031002	"23"	45160.349224579	45153.478126956	1.5	0.1
0.01	1	0.0516043059978983	1	15	460.920420021997	NA	1	0	4.89	1	459.948576820003	460.000181126001	"23"	45160.349224579	45153.478126956	1.5	0.1
0.01	1	0.0701325730042299	1	15	460.920420021997	NA	1	0	4.89	1	460.232435254999	460.302567828003	"23"	45160.349224579	45153.478126956	1.5	0.1
0.01	1	0.0270744060035213	1	15	460.920420021997	NA	1	0	4.89	1	460.533025789999	460.560100196002	"23"	45160.349224579	45153.478126956	1.5	0.1
0.01	1	0.0245102379994933	1	15	460.920420021997	NA	1	0	4.89	1	460.783354662002	460.807864900002	"23"	45160.349224579	45153.478126956	1.5	0.1
0.01	1	0.605302376003237	1	53	NA	474.209541509998	0	0.3	5.19	1	462.953729829998	463.559032206002	"24"	45160.349224579	45153.478126956	1.5	0.1
0.01	1	0.13040151700261	1	53	NA	474.209541509998	0	0.3	5.19	1	463.788483457	463.918884974002	"24"	45160.349224579	45153.478126956	1.5	0.1
0.01	1	0.107897668996884	1	53	NA	474.209541509998	0	0.3	5.19	1	464.155704310004	464.263601979001	"24"	45160.349224579	45153.478126956	1.5	0.1
0.01	1	0.0781256440022844	1	53	NA	474.209541509998	0	0.3	5.19	1	464.489644909998	464.567770554	"24"	45160.349224579	45153.478126956	1.5	0.1
0.01	1	0.0328430160006974	1	53	NA	474.209541509998	0	0.3	5.19	1	464.790136194999	464.822979211	"24"	45160.349224579	45153.478126956	1.5	0.1
0.01	1	0.0381145119972643	1	53	NA	474.209541509998	0	0.3	5.19	1	465.057209225	465.095323736998	"24"	45160.349224579	45153.478126956	1.5	0.1
0.01	1	0.0661393759946804	1	53	NA	474.209541509998	0	0.3	5.19	1	465.324456455004	465.390595830999	"24"	45160.349224579	45153.478126956	1.5	0.1
0.01	1	0.0616187190025812	1	53	NA	474.209541509998	0	0.3	5.19	1	465.624891027001	465.686509746003	"24"	45160.349224579	45153.478126956	1.5	0.1
0.01	1	0.0586879690017668	1	53	NA	474.209541509998	0	0.3	5.19	1	465.908609919999	465.967297889001	"24"	45160.349224579	45153.478126956	1.5	0.1
0.01	1	0.0712331760005327	1	53	NA	474.209541509998	0	0.3	5.19	1	466.192410650001	466.263643826001	"24"	45160.349224579	45153.478126956	1.5	0.1
0.01	1	0.481582496002375	1	53	NA	474.209541509998	0	0.3	5.19	1	466.492899318	466.974481814003	"24"	45160.349224579	45153.478126956	1.5	0.1
0.01	1	0.0294985479995375	1	53	NA	474.209541509998	0	0.3	5.19	1	467.210852707001	467.240351255001	"24"	45160.349224579	45153.478126956	1.5	0.1
0.01	1	0.0243702299994766	1	53	NA	474.209541509998	0	0.3	5.19	1	467.478053810002	467.502424040002	"24"	45160.349224579	45153.478126956	1.5	0.1
0.01	1	0.0621083220030414	1	53	NA	474.209541509998	0	0.3	5.19	1	467.728485339998	467.790593662001	"24"	45160.349224579	45153.478126956	1.5	0.1
0.01	1	0.0266524709950318	1	53	NA	474.209541509998	0	0.3	5.19	1	468.028854205004	468.055506675999	"24"	45160.349224579	45153.478126956	1.5	0.1
0.01	1	0.0797698680034955	1	53	NA	474.209541509998	0	0.3	5.19	1	468.279389559997	468.359159428001	"24"	45160.349224579	45153.478126956	1.5	0.1
0.01	1	0.0507133009959944	1	53	NA	474.209541509998	0	0.3	5.19	1	468.596439177003	468.647152477999	"24"	45160.349224579	45153.478126956	1.5	0.1
0.01	1	0.054810024004837	1	53	NA	474.209541509998	0	0.3	5.19	1	468.880340964999	468.935150989004	"24"	45160.349224579	45153.478126956	1.5	0.1
0.01	1	0.0835655929986387	1	53	NA	474.209541509998	0	0.3	5.19	1	469.164115662003	469.247681255001	"24"	45160.349224579	45153.478126956	1.5	0.1
0.01	1	0.0775479479998467	1	53	NA	474.209541509998	0	0.3	5.19	1	469.481302512002	469.558850460002	"24"	45160.349224579	45153.478126956	1.5	0.1
0.01	1	0.62649547100591	1	53	NA	474.209541509998	0	0.3	5.19	1	469.781826364997	470.408321836003	"24"	45160.349224579	45153.478126956	1.5	0.1
0.01	1	0.0863829820009414	1	53	NA	474.209541509998	0	0.3	5.19	1	470.633306529999	470.719689512	"24"	45160.349224579	45153.478126956	1.5	0.1
0.01	1	0.064488297997741	1	53	NA	474.209541509998	0	0.3	5.19	1	470.950517636003	471.015005934001	"24"	45160.349224579	45153.478126956	1.5	0.1
0.01	1	0.0289012349967379	1	53	NA	474.209541509998	0	0.3	5.19	1	471.250914597003	471.279815832	"24"	45160.349224579	45153.478126956	1.5	0.1
0.01	1	0.0569442959968001	1	53	NA	474.209541509998	0	0.3	5.19	1	471.518019665004	471.574963961	"24"	45160.349224579	45153.478126956	1.5	0.1
0.01	1	0.0451543259987375	1	53	NA	474.209541509998	0	0.3	5.19	1	471.801943605002	471.847097931	"24"	45160.349224579	45153.478126956	1.5	0.1
