"payoff.level"	"balloon"	"rt"	"resp"	"explode.trial"	"explode.time"	"finish.time"	"exploded"	"trial.total"	"cumulative.total"	"finished"	"trial.start"	"trial.end"	"trial.num"	"secs"	"start.time"	"iti"	"isi"
0.01	1	0.620128059999843	1	64	26.2173932020014	NA	1	0	0	1	0.0191246700014744	0.639252730001317	"1"	12059.542888365	12011.079044097	1.5	0.1
0.01	1	0.352002306999566	1	64	26.2173932020014	NA	1	0	0	1	0.937169205000828	1.28917151200039	"1"	12059.542888365	12011.079044097	1.5	0.1
0.01	1	0.286307671000031	1	64	26.2173932020014	NA	1	0	0	1	1.52166986300108	1.80797753400111	"1"	12059.542888365	12011.079044097	1.5	0.1
0.01	1	0.200880853999479	1	64	26.2173932020014	NA	1	0	0	1	2.03917212000124	2.24005297400072	"1"	12059.542888365	12011.079044097	1.5	0.1
0.01	1	0.149218766000558	1	64	26.2173932020014	NA	1	0	0	1	2.4731328350008	2.62235160100136	"1"	12059.542888365	12011.079044097	1.5	0.1
0.01	1	0.199377200000526	1	64	26.2173932020014	NA	1	0	0	1	2.85704967700076	3.05642687700129	"1"	12059.542888365	12011.079044097	1.5	0.1
0.01	1	0.163739693000025	1	64	26.2173932020014	NA	1	0	0	1	3.29120188700108	3.4549415800011	"1"	12059.542888365	12011.079044097	1.5	0.1
0.01	1	0.211656850000509	1	64	26.2173932020014	NA	1	0	0	1	3.69180120700003	3.90345805700053	"1"	12059.542888365	12011.079044097	1.5	0.1
0.01	1	0.137230411999553	1	64	26.2173932020014	NA	1	0	0	1	4.14265890100069	4.27988931300024	"1"	12059.542888365	12011.079044097	1.5	0.1
0.01	1	0.216914836999422	1	64	26.2173932020014	NA	1	0	0	1	4.50988579300065	4.72680063000007	"1"	12059.542888365	12011.079044097	1.5	0.1
0.01	1	0.142371488000208	1	64	26.2173932020014	NA	1	0	0	1	4.96062641900062	5.10299790700083	"1"	12059.542888365	12011.079044097	1.5	0.1
0.01	1	0.143178456999522	1	64	26.2173932020014	NA	1	0	0	1	5.32790746300088	5.47108592000041	"1"	12059.542888365	12011.079044097	1.5	0.1
0.01	1	0.161177350000798	1	64	26.2173932020014	NA	1	0	0	1	5.69520240400016	5.85637975400095	"1"	12059.542888365	12011.079044097	1.5	0.1
0.01	1	0.137167095999757	1	64	26.2173932020014	NA	1	0	0	1	6.07917526900019	6.21634236499995	"1"	12059.542888365	12011.079044097	1.5	0.1
0.01	1	0.121838634000596	1	64	26.2173932020014	NA	1	0	0	1	6.44650250999985	6.56834114400044	"1"	12059.542888365	12011.079044097	1.5	0.1
0.01	1	0.154224836000139	1	64	26.2173932020014	NA	1	0	0	1	6.79706523999994	6.95129007600008	"1"	12059.542888365	12011.079044097	1.5	0.1
0.01	1	0.201950102999035	1	64	26.2173932020014	NA	1	0	0	1	7.18103246900137	7.3829825720004	"1"	12059.542888365	12011.079044097	1.5	0.1
0.01	1	0.136055295000915	1	64	26.2173932020014	NA	1	0	0	1	7.61511343600068	7.7511687310016	"1"	12059.542888365	12011.079044097	1.5	0.1
0.01	1	0.201716809000573	1	64	26.2173932020014	NA	1	0	0	1	7.9823095440006	8.18402635300117	"1"	12059.542888365	12011.079044097	1.5	0.1
0.01	1	0.253943585001252	1	64	26.2173932020014	NA	1	0	0	1	8.41654388200004	8.67048746700129	"1"	12059.542888365	12011.079044097	1.5	0.1
0.01	1	0.162345531000028	1	64	26.2173932020014	NA	1	0	0	1	8.90059510100036	9.06294063200039	"1"	12059.542888365	12011.079044097	1.5	0.1
0.01	1	0.16287284200007	1	64	26.2173932020014	NA	1	0	0	1	9.28458812999997	9.44746097200004	"1"	12059.542888365	12011.079044097	1.5	0.1
0.01	1	0.129354594000688	1	64	26.2173932020014	NA	1	0	0	1	9.6853640520003	9.81471864600098	"1"	12059.542888365	12011.079044097	1.5	0.1
0.01	1	0.163402829999541	1	64	26.2173932020014	NA	1	0	0	1	10.0525808780003	10.2159837079998	"1"	12059.542888365	12011.079044097	1.5	0.1
0.01	1	0.137444256999515	1	64	26.2173932020014	NA	1	0	0	1	10.4532894920012	10.5907337490007	"1"	12059.542888365	12011.079044097	1.5	0.1
0.01	1	0.121853238999392	1	64	26.2173932020014	NA	1	0	0	1	10.820518898001	10.9423721370003	"1"	12059.542888365	12011.079044097	1.5	0.1
0.01	1	0.163939473000937	1	64	26.2173932020014	NA	1	0	0	1	11.1711092700007	11.3350487430016	"1"	12059.542888365	12011.079044097	1.5	0.1
0.01	1	0.17207484499886	1	64	26.2173932020014	NA	1	0	0	1	11.571675692001	11.7437505369999	"1"	12059.542888365	12011.079044097	1.5	0.1
0.01	1	0.155640318998849	1	64	26.2173932020014	NA	1	0	0	1	11.9724271650011	12.128067484	"1"	12059.542888365	12011.079044097	1.5	0.1
0.01	1	0.186956620000274	1	64	26.2173932020014	NA	1	0	0	1	12.3564780200013	12.5434346400016	"1"	12059.542888365	12011.079044097	1.5	0.1
0.01	1	0.122761833001277	1	64	26.2173932020014	NA	1	0	0	1	12.773735105	12.8964969380013	"1"	12059.542888365	12011.079044097	1.5	0.1
0.01	1	0.195273425999403	1	64	26.2173932020014	NA	1	0	0	1	13.1244786470015	13.3197520730009	"1"	12059.542888365	12011.079044097	1.5	0.1
0.01	1	0.184407241000372	1	64	26.2173932020014	NA	1	0	0	1	13.558432494001	13.7428397350013	"1"	12059.542888365	12011.079044097	1.5	0.1
0.01	1	0.143293164001079	1	64	26.2173932020014	NA	1	0	0	1	13.9758745529998	14.1191677170009	"1"	12059.542888365	12011.079044097	1.5	0.1
0.01	1	0.0963132470005803	1	64	26.2173932020014	NA	1	0	0	1	14.3430890020009	14.4394022490014	"1"	12059.542888365	12011.079044097	1.5	0.1
0.01	1	0.0665303870009666	1	64	26.2173932020014	NA	1	0	0	1	14.6769411080004	14.7434714950014	"1"	12059.542888365	12011.079044097	1.5	0.1
0.01	1	0.110850024999309	1	64	26.2173932020014	NA	1	0	0	1	14.9774126870016	15.0882627120009	"1"	12059.542888365	12011.079044097	1.5	0.1
0.01	1	0.0961532130004343	1	64	26.2173932020014	NA	1	0	0	1	15.3114917710009	15.4076449840013	"1"	12059.542888365	12011.079044097	1.5	0.1
0.01	1	0.113371641000413	1	64	26.2173932020014	NA	1	0	0	1	15.6452408620007	15.7586125030011	"1"	12059.542888365	12011.079044097	1.5	0.1
0.01	1	0.196295339001153	1	64	26.2173932020014	NA	1	0	0	1	15.9959457610003	16.1922411000014	"1"	12059.542888365	12011.079044097	1.5	0.1
0.01	1	0.0820946730000287	1	64	26.2173932020014	NA	1	0	0	1	16.4298677920015	16.5119624650015	"1"	12059.542888365	12011.079044097	1.5	0.1
0.01	1	0.179913920001127	1	64	26.2173932020014	NA	1	0	0	1	16.747176326	16.9270902460012	"1"	12059.542888365	12011.079044097	1.5	0.1
0.01	1	0.0984373009996489	1	64	26.2173932020014	NA	1	0	0	1	17.1646248610014	17.263062162001	"1"	12059.542888365	12011.079044097	1.5	0.1
0.01	1	0.101599407000322	1	64	26.2173932020014	NA	1	0	0	1	17.4983697770003	17.5999691840007	"1"	12059.542888365	12011.079044097	1.5	0.1
0.01	1	0.135835563000001	1	64	26.2173932020014	NA	1	0	0	1	17.832336902	17.968172465	"1"	12059.542888365	12011.079044097	1.5	0.1
0.01	1	0.144653504001326	1	64	26.2173932020014	NA	1	0	0	1	18.1996407229999	18.3442942270012	"1"	12059.542888365	12011.079044097	1.5	0.1
0.01	1	0.13620840799922	1	64	26.2173932020014	NA	1	0	0	1	18.5669193890008	18.703127797	"1"	12059.542888365	12011.079044097	1.5	0.1
0.01	1	0.121130394998545	1	64	26.2173932020014	NA	1	0	0	1	18.9341036550013	19.0552340499999	"1"	12059.542888365	12011.079044097	1.5	0.1
0.01	1	0.113780562000102	1	64	26.2173932020014	NA	1	0	0	1	19.2848391520001	19.3986197140002	"1"	12059.542888365	12011.079044097	1.5	0.1
0.01	1	0.131664340000498	1	64	26.2173932020014	NA	1	0	0	1	19.635445164	19.7671095040005	"1"	12059.542888365	12011.079044097	1.5	0.1
0.01	1	0.260322486001314	1	64	26.2173932020014	NA	1	0	0	1	20.0026641200002	20.2629866060015	"1"	12059.542888365	12011.079044097	1.5	0.1
0.01	1	0.233528161001232	1	64	26.2173932020014	NA	1	0	0	1	20.4868057820004	20.7203339430016	"1"	12059.542888365	12011.079044097	1.5	0.1
0.01	1	0.29399125999953	1	64	26.2173932020014	NA	1	0	0	1	20.9541961200011	21.2481873800007	"1"	12059.542888365	12011.079044097	1.5	0.1
0.01	1	0.215586267999242	1	64	26.2173932020014	NA	1	0	0	1	21.4717929520011	21.6873792200004	"1"	12059.542888365	12011.079044097	1.5	0.1
0.01	1	0.236123489999954	1	64	26.2173932020014	NA	1	0	0	1	21.9225397500013	22.1586632400013	"1"	12059.542888365	12011.079044097	1.5	0.1
0.01	1	0.233672350001143	1	64	26.2173932020014	NA	1	0	0	1	22.3901326100004	22.6238049600015	"1"	12059.542888365	12011.079044097	1.5	0.1
0.01	1	0.23773215700021	1	64	26.2173932020014	NA	1	0	0	1	22.8574981720012	23.0952303290014	"1"	12059.542888365	12011.079044097	1.5	0.1
0.01	1	0.225884117000533	1	64	26.2173932020014	NA	1	0	0	1	23.3248856000009	23.5507697170015	"1"	12059.542888365	12011.079044097	1.5	0.1
0.01	1	0.247376778001126	1	64	26.2173932020014	NA	1	0	0	1	23.7757131050002	24.0230898830014	"1"	12059.542888365	12011.079044097	1.5	0.1
0.01	1	0.244363944000725	1	64	26.2173932020014	NA	1	0	0	1	24.2598550900002	24.5042190340009	"1"	12059.542888365	12011.079044097	1.5	0.1
0.01	1	0.121063959999447	1	64	26.2173932020014	NA	1	0	0	1	24.7273539750004	24.8484179349998	"1"	12059.542888365	12011.079044097	1.5	0.1
0.01	1	0.209174433999578	1	64	26.2173932020014	NA	1	0	0	1	25.0779668550003	25.2871412889999	"1"	12059.542888365	12011.079044097	1.5	0.1
0.01	1	0.208012183000392	1	64	26.2173932020014	NA	1	0	0	1	25.5119866000005	25.7199987830008	"1"	12059.542888365	12011.079044097	1.5	0.1
0.01	1	0.156215330000123	1	64	26.2173932020014	NA	1	0	0	1	25.9461535150003	26.1023688450005	"1"	12059.542888365	12011.079044097	1.5	0.1
0.01	1	0.50022832600007	1	68	59.3719074770015	NA	1	0	0	1	28.266626640001	28.7668549660011	"2"	12059.542888365	12011.079044097	1.5	0.1
0.01	1	0.230164295999202	1	68	59.3719074770015	NA	1	0	0	1	29.0012223210015	29.2313866170007	"2"	12059.542888365	12011.079044097	1.5	0.1
0.01	1	0.147084848998929	1	68	59.3719074770015	NA	1	0	0	1	29.468622755001	29.6157076039999	"2"	12059.542888365	12011.079044097	1.5	0.1
0.01	1	0.178740344001199	1	68	59.3719074770015	NA	1	0	0	1	29.8526978720001	30.0314382160013	"2"	12059.542888365	12011.079044097	1.5	0.1
0.01	1	0.153353290999803	1	68	59.3719074770015	NA	1	0	0	1	30.26992857	30.4232818609999	"2"	12059.542888365	12011.079044097	1.5	0.1
0.01	1	0.0495857309997518	1	68	59.3719074770015	NA	1	0	0	1	30.6539572520014	30.7035429830012	"2"	12059.542888365	12011.079044097	1.5	0.1
0.01	1	0.149986902999444	1	68	59.3719074770015	NA	1	0	0	1	30.9378709700013	31.0878578730008	"2"	12059.542888365	12011.079044097	1.5	0.1
0.01	1	0.189353690000644	1	68	59.3719074770015	NA	1	0	0	1	31.3217632220003	31.5111169120009	"2"	12059.542888365	12011.079044097	1.5	0.1
0.01	1	0.180482315001427	1	68	59.3719074770015	NA	1	0	0	1	31.7391724919999	31.9196548070013	"2"	12059.542888365	12011.079044097	1.5	0.1
0.01	1	0.163535303001481	1	68	59.3719074770015	NA	1	0	0	1	32.156463022	32.3199983250015	"2"	12059.542888365	12011.079044097	1.5	0.1
0.01	1	0.161880282001221	1	68	59.3719074770015	NA	1	0	0	1	32.5571625299999	32.7190428120011	"2"	12059.542888365	12011.079044097	1.5	0.1
0.01	1	0.19354494000072	1	68	59.3719074770015	NA	1	0	0	1	32.9411381200007	33.1346830600014	"2"	12059.542888365	12011.079044097	1.5	0.1
0.01	1	0.201451172000816	1	68	59.3719074770015	NA	1	0	0	1	33.3585329870002	33.559984159001	"2"	12059.542888365	12011.079044097	1.5	0.1
0.01	1	0.199038106000444	1	68	59.3719074770015	NA	1	0	0	1	33.7926354430001	33.9916735490006	"2"	12059.542888365	12011.079044097	1.5	0.1
0.01	1	0.244690456000171	1	68	59.3719074770015	NA	1	0	0	1	34.2265489600013	34.4712394160015	"2"	12059.542888365	12011.079044097	1.5	0.1
0.01	1	0.200701760999436	1	68	59.3719074770015	NA	1	0	0	1	34.6940351170015	34.8947368780009	"2"	12059.542888365	12011.079044097	1.5	0.1
0.01	1	0.215221915999791	1	68	59.3719074770015	NA	1	0	0	1	35.1282583950015	35.3434803110013	"2"	12059.542888365	12011.079044097	1.5	0.1
0.01	1	0.108004161000281	1	68	59.3719074770015	NA	1	0	0	1	35.5789473920013	35.6869515530016	"2"	12059.542888365	12011.079044097	1.5	0.1
0.01	1	0.278346373999739	1	68	59.3719074770015	NA	1	0	0	1	35.9127844250015	36.1911307990013	"2"	12059.542888365	12011.079044097	1.5	0.1
0.01	1	0.146164014999158	1	68	59.3719074770015	NA	1	0	0	1	36.4136453950014	36.5598094100005	"2"	12059.542888365	12011.079044097	1.5	0.1
0.01	1	0.185334909998346	1	68	59.3719074770015	NA	1	0	0	1	36.7976551420015	36.9829900519999	"2"	12059.542888365	12011.079044097	1.5	0.1
0.01	1	0.120859668999401	1	68	59.3719074770015	NA	1	0	0	1	37.2149881450005	37.3358478139999	"2"	12059.542888365	12011.079044097	1.5	0.1
0.01	1	0.185009834000084	1	68	59.3719074770015	NA	1	0	0	1	37.5656165150012	37.7506263490013	"2"	12059.542888365	12011.079044097	1.5	0.1
0.01	1	0.193281546000435	1	68	59.3719074770015	NA	1	0	0	1	37.9829493020006	38.1762308480011	"2"	12059.542888365	12011.079044097	1.5	0.1
0.01	1	0.173643744999936	1	68	59.3719074770015	NA	1	0	0	1	38.4170152900006	38.5906590350005	"2"	12059.542888365	12011.079044097	1.5	0.1
0.01	1	0.158007116999215	1	68	59.3719074770015	NA	1	0	0	1	38.8177222600007	38.9757293769999	"2"	12059.542888365	12011.079044097	1.5	0.1
0.01	1	0.197361930000625	1	68	59.3719074770015	NA	1	0	0	1	39.2017240370005	39.3990859670012	"2"	12059.542888365	12011.079044097	1.5	0.1
0.01	1	0.179152517001057	1	68	59.3719074770015	NA	1	0	0	1	39.635832938	39.8149854550011	"2"	12059.542888365	12011.079044097	1.5	0.1
0.01	1	0.177321897999718	1	68	59.3719074770015	NA	1	0	0	1	40.0531302550007	40.2304521530004	"2"	12059.542888365	12011.079044097	1.5	0.1
0.01	1	0.209408667000389	1	68	59.3719074770015	NA	1	0	0	1	40.4538487400005	40.6632574070009	"2"	12059.542888365	12011.079044097	1.5	0.1
0.01	1	0.279209715999968	1	68	59.3719074770015	NA	1	0	0	1	40.8877974900006	41.1670072060006	"2"	12059.542888365	12011.079044097	1.5	0.1
0.01	1	0.178842181001528	1	68	59.3719074770015	NA	1	0	0	1	41.4053625289998	41.5842047100014	"2"	12059.542888365	12011.079044097	1.5	0.1
0.01	1	0.729690813999696	1	68	59.3719074770015	NA	1	0	0	1	41.8227227900006	42.5524136040003	"2"	12059.542888365	12011.079044097	1.5	0.1
0.01	1	2.16088693999882	1	68	59.3719074770015	NA	1	0	0	1	42.7743703770011	44.9352573169999	"2"	12059.542888365	12011.079044097	1.5	0.1
0.01	1	0.10886087200015	1	68	59.3719074770015	NA	1	0	0	1	45.1617109520012	45.2705718240013	"2"	12059.542888365	12011.079044097	1.5	0.1
0.01	1	0.1275692349991	1	68	59.3719074770015	NA	1	0	0	1	45.4955921400015	45.6231613750006	"2"	12059.542888365	12011.079044097	1.5	0.1
0.01	1	0.168469067999467	1	68	59.3719074770015	NA	1	0	0	1	45.8628890050004	46.0313580729999	"2"	12059.542888365	12011.079044097	1.5	0.1
0.01	1	0.144523240998751	1	68	59.3719074770015	NA	1	0	0	1	46.2635474650015	46.4080707060002	"2"	12059.542888365	12011.079044097	1.5	0.1
0.01	1	0.151604881999447	1	68	59.3719074770015	NA	1	0	0	1	46.6308858450011	46.7824907270005	"2"	12059.542888365	12011.079044097	1.5	0.1
0.01	1	0.168325864000508	1	68	59.3719074770015	NA	1	0	0	1	47.0149672500011	47.1832931140016	"2"	12059.542888365	12011.079044097	1.5	0.1
0.01	1	0.152597735001109	1	68	59.3719074770015	NA	1	0	0	1	47.4154622599999	47.568059995001	"2"	12059.542888365	12011.079044097	1.5	0.1
0.01	1	0.216617221998604	1	68	59.3719074770015	NA	1	0	0	1	47.7994607640012	48.0160779859998	"2"	12059.542888365	12011.079044097	1.5	0.1
0.01	1	0.157404269000835	1	68	59.3719074770015	NA	1	0	0	1	48.2502964949999	48.4077007640008	"2"	12059.542888365	12011.079044097	1.5	0.1
0.01	1	0.205036597000799	1	68	59.3719074770015	NA	1	0	0	1	48.6341969519999	48.8392335490007	"2"	12059.542888365	12011.079044097	1.5	0.1
0.01	1	0.203934486000435	1	68	59.3719074770015	NA	1	0	0	1	49.068267351	49.2722018370005	"2"	12059.542888365	12011.079044097	1.5	0.1
0.01	1	0.167989968000256	1	68	59.3719074770015	NA	1	0	0	1	49.5024497100003	49.6704396780005	"2"	12059.542888365	12011.079044097	1.5	0.1
0.01	1	0.152769107000495	1	68	59.3719074770015	NA	1	0	0	1	49.9030559920011	50.0558250990016	"2"	12059.542888365	12011.079044097	1.5	0.1
0.01	1	0.14418040199962	1	68	59.3719074770015	NA	1	0	0	1	50.2870363220009	50.4312167240005	"2"	12059.542888365	12011.079044097	1.5	0.1
0.01	1	0.16987900300046	1	68	59.3719074770015	NA	1	0	0	1	50.6543096950008	50.8241886980013	"2"	12059.542888365	12011.079044097	1.5	0.1
0.01	1	0.105193508999946	1	68	59.3719074770015	NA	1	0	0	1	51.0549738950012	51.1601674040012	"2"	12059.542888365	12011.079044097	1.5	0.1
0.01	1	0.185729257000276	1	68	59.3719074770015	NA	1	0	0	1	51.388856775	51.5745860320003	"2"	12059.542888365	12011.079044097	1.5	0.1
0.01	1	0.192702376001762	1	68	59.3719074770015	NA	1	0	0	1	51.8062462819998	51.9989486580016	"2"	12059.542888365	12011.079044097	1.5	0.1
0.01	1	0.0872291399991809	1	68	59.3719074770015	NA	1	0	0	1	52.2236047950009	52.3108339350001	"2"	12059.542888365	12011.079044097	1.5	0.1
0.01	1	0.153604787001314	1	68	59.3719074770015	NA	1	0	0	1	52.5408016199999	52.6944064070012	"2"	12059.542888365	12011.079044097	1.5	0.1
0.01	1	0.235419135999109	1	68	59.3719074770015	NA	1	0	0	1	52.9247772320014	53.1601963680005	"2"	12059.542888365	12011.079044097	1.5	0.1
0.01	1	0.199492839001323	1	68	59.3719074770015	NA	1	0	0	1	53.3922979899999	53.5917908290012	"2"	12059.542888365	12011.079044097	1.5	0.1
0.01	1	0.253759477000131	1	68	59.3719074770015	NA	1	0	0	1	53.8262620920013	54.0800215690015	"2"	12059.542888365	12011.079044097	1.5	0.1
0.01	1	0.288205496999581	1	68	59.3719074770015	NA	1	0	0	1	54.3104753620009	54.5986808590005	"2"	12059.542888365	12011.079044097	1.5	0.1
0.01	1	0.21246813900143	1	68	59.3719074770015	NA	1	0	0	1	54.827932921	55.0404010600014	"2"	12059.542888365	12011.079044097	1.5	0.1
0.01	1	0.273569330998725	1	68	59.3719074770015	NA	1	0	0	1	55.2787401720016	55.5523095030003	"2"	12059.542888365	12011.079044097	1.5	0.1
0.01	1	0.290971080001327	1	68	59.3719074770015	NA	1	0	0	1	55.7796054179998	56.0705764980012	"2"	12059.542888365	12011.079044097	1.5	0.1
0.01	1	0.198925730001065	1	68	59.3719074770015	NA	1	0	0	1	56.2971254570002	56.4960511870013	"2"	12059.542888365	12011.079044097	1.5	0.1
0.01	1	0.179291772999932	1	68	59.3719074770015	NA	1	0	0	1	56.731305157	56.9105969299999	"2"	12059.542888365	12011.079044097	1.5	0.1
0.01	1	0.242171864998454	1	68	59.3719074770015	NA	1	0	0	1	57.1485083470016	57.390680212	"2"	12059.542888365	12011.079044097	1.5	0.1
0.01	1	0.215140173000691	1	68	59.3719074770015	NA	1	0	0	1	57.6159973970007	57.8311375700014	"2"	12059.542888365	12011.079044097	1.5	0.1
0.01	1	0.252516575999834	1	68	59.3719074770015	NA	1	0	0	1	58.0668232000007	58.3193397760006	"2"	12059.542888365	12011.079044097	1.5	0.1
0.01	1	0.29720423300023	1	68	59.3719074770015	NA	1	0	0	1	58.5508726200005	58.8480768530007	"2"	12059.542888365	12011.079044097	1.5	0.1
0.01	1	0.178546496001218	1	68	59.3719074770015	NA	1	0	0	1	59.0850714850003	59.2636179810015	"2"	12059.542888365	12011.079044097	1.5	0.1
0.01	1	0.00396717900002841	1	33	75.9164116950014	NA	1	0	0	1	61.4223908519998	61.4263580309998	"3"	12059.542888365	12011.079044097	1.5	0.1
0.01	1	0.0562480019998475	1	33	75.9164116950014	NA	1	0	0	1	61.6560617250016	61.7123097270014	"3"	12059.542888365	12011.079044097	1.5	0.1
0.01	1	0.499703882000176	1	33	75.9164116950014	NA	1	0	0	1	61.9399718370005	62.4396757190007	"3"	12059.542888365	12011.079044097	1.5	0.1
0.01	1	0.156872293000561	1	33	75.9164116950014	NA	1	0	0	1	62.6744491549998	62.8313214480004	"3"	12059.542888365	12011.079044097	1.5	0.1
0.01	1	0.14188601999922	1	33	75.9164116950014	NA	1	0	0	1	63.0585499750014	63.2004359950006	"3"	12059.542888365	12011.079044097	1.5	0.1
0.01	1	0.252736499998719	1	33	75.9164116950014	NA	1	0	0	1	63.4257964920016	63.6785329920003	"3"	12059.542888365	12011.079044097	1.5	0.1
0.01	1	0.145416459001353	1	33	75.9164116950014	NA	1	0	0	1	63.909890162	64.0553066210014	"3"	12059.542888365	12011.079044097	1.5	0.1
0.01	1	0.185033296000256	1	33	75.9164116950014	NA	1	0	0	1	64.2939319270008	64.4789652230011	"3"	12059.542888365	12011.079044097	1.5	0.1
0.01	1	0.209182062999389	1	33	75.9164116950014	NA	1	0	0	1	64.7113021350015	64.9204841980008	"3"	12059.542888365	12011.079044097	1.5	0.1
0.01	1	0.214114427000823	1	33	75.9164116950014	NA	1	0	0	1	65.1453006800002	65.359415107001	"3"	12059.542888365	12011.079044097	1.5	0.1
0.01	1	0.21099446199878	1	33	75.9164116950014	NA	1	0	0	1	65.596122025001	65.8071164869998	"3"	12059.542888365	12011.079044097	1.5	0.1
0.01	1	0.21026032699956	1	33	75.9164116950014	NA	1	0	0	1	66.0301598450005	66.2404201720001	"3"	12059.542888365	12011.079044097	1.5	0.1
0.01	1	0.206312729000274	1	33	75.9164116950014	NA	1	0	0	1	66.4641813520011	66.6704940810014	"3"	12059.542888365	12011.079044097	1.5	0.1
0.01	1	0.197919077001643	1	33	75.9164116950014	NA	1	0	0	1	66.8982450399999	67.0961641170015	"3"	12059.542888365	12011.079044097	1.5	0.1
0.01	1	0.21207070499986	1	33	75.9164116950014	NA	1	0	0	1	67.3323832820006	67.5444539870005	"3"	12059.542888365	12011.079044097	1.5	0.1
0.01	1	0.224768570999004	1	33	75.9164116950014	NA	1	0	0	1	67.7664882550016	67.9912568260006	"3"	12059.542888365	12011.079044097	1.5	0.1
0.01	1	0.238978547000443	1	33	75.9164116950014	NA	1	0	0	1	68.2170861499999	68.4560646970003	"3"	12059.542888365	12011.079044097	1.5	0.1
0.01	1	0.194583125999998	1	33	75.9164116950014	NA	1	0	0	1	68.6845319700005	68.8791150960005	"3"	12059.542888365	12011.079044097	1.5	0.1
0.01	1	0.168170216000362	1	33	75.9164116950014	NA	1	0	0	1	69.1186598730001	69.2868300890004	"3"	12059.542888365	12011.079044097	1.5	0.1
0.01	1	0.208037042000797	1	33	75.9164116950014	NA	1	0	0	1	69.5193168330006	69.7273538750014	"3"	12059.542888365	12011.079044097	1.5	0.1
0.01	1	0.182951835000495	1	33	75.9164116950014	NA	1	0	0	1	69.9534247150004	70.1363765500009	"3"	12059.542888365	12011.079044097	1.5	0.1
0.01	1	0.149585506000221	1	33	75.9164116950014	NA	1	0	0	1	70.370771715001	70.5203572210012	"3"	12059.542888365	12011.079044097	1.5	0.1
0.01	1	0.212492063999889	1	33	75.9164116950014	NA	1	0	0	1	70.7547432620013	70.9672353260012	"3"	12059.542888365	12011.079044097	1.5	0.1
0.01	1	0.186406336999426	1	33	75.9164116950014	NA	1	0	0	1	71.2054671920014	71.3918735290008	"3"	12059.542888365	12011.079044097	1.5	0.1
0.01	1	0.207903874999829	1	33	75.9164116950014	NA	1	0	0	1	71.6229540620006	71.8308579370005	"3"	12059.542888365	12011.079044097	1.5	0.1
0.01	1	0.191200594999827	1	33	75.9164116950014	NA	1	0	0	1	72.0570558750005	72.2482564700003	"3"	12059.542888365	12011.079044097	1.5	0.1
0.01	1	0.19591754800058	1	33	75.9164116950014	NA	1	0	0	1	72.4744281900003	72.6703457380008	"3"	12059.542888365	12011.079044097	1.5	0.1
0.01	1	0.162726754000687	1	33	75.9164116950014	NA	1	0	0	1	72.9083566429999	73.0710833970006	"3"	12059.542888365	12011.079044097	1.5	0.1
0.01	1	0.226273996999225	1	33	75.9164116950014	NA	1	0	0	1	73.2923189700014	73.5185929670006	"3"	12059.542888365	12011.079044097	1.5	0.1
0.01	1	0.639280941999459	1	33	75.9164116950014	NA	1	0	0	1	73.7431982300004	74.3824791719999	"3"	12059.542888365	12011.079044097	1.5	0.1
0.01	1	0.275528649000989	1	33	75.9164116950014	NA	1	0	0	1	74.6112156460003	74.8867442950013	"3"	12059.542888365	12011.079044097	1.5	0.1
0.01	1	0.216036235000502	1	33	75.9164116950014	NA	1	0	0	1	75.1120189320009	75.3280551670014	"3"	12059.542888365	12011.079044097	1.5	0.1
0.01	1	0.243934447000356	1	33	75.9164116950014	NA	1	0	0	1	75.5628094849999	75.8067439320002	"3"	12059.542888365	12011.079044097	1.5	0.1
0.01	1	0.943283454000266	1	105	NA	111.793933052	0	0.7	0.7	1	77.9669969820006	78.9102804360009	"4"	12059.542888365	12011.079044097	1.5	0.1
0.01	1	0.248725868999827	1	105	NA	111.793933052	0	0.7	0.7	1	79.1355405200011	79.3842663890009	"4"	12059.542888365	12011.079044097	1.5	0.1
0.01	1	0.163703741000063	1	105	NA	111.793933052	0	0.7	0.7	1	79.619714415001	79.7834181560011	"4"	12059.542888365	12011.079044097	1.5	0.1
0.01	1	0.14601114800098	1	105	NA	111.793933052	0	0.7	0.7	1	80.0204184800004	80.1664296280014	"4"	12059.542888365	12011.079044097	1.5	0.1
0.01	1	0.164029179000863	1	105	NA	111.793933052	0	0.7	0.7	1	80.4042886040006	80.5683177830015	"4"	12059.542888365	12011.079044097	1.5	0.1
0.01	1	0.162416670000312	1	105	NA	111.793933052	0	0.7	0.7	1	80.8049997350008	80.9674164050011	"4"	12059.542888365	12011.079044097	1.5	0.1
0.01	1	0.145184672001051	1	105	NA	111.793933052	0	0.7	0.7	1	81.2057395600004	81.3509242320015	"4"	12059.542888365	12011.079044097	1.5	0.1
0.01	1	0.146137215999261	1	105	NA	111.793933052	0	0.7	0.7	1	81.5729776700009	81.7191148860002	"4"	12059.542888365	12011.079044097	1.5	0.1
0.01	1	0.138419057000647	1	105	NA	111.793933052	0	0.7	0.7	1	81.9568734050008	82.0952924620015	"4"	12059.542888365	12011.079044097	1.5	0.1
0.01	1	0.162862271999984	1	105	NA	111.793933052	0	0.7	0.7	1	82.3243320350011	82.4871943070011	"4"	12059.542888365	12011.079044097	1.5	0.1
0.01	1	0.139506806999634	1	105	NA	111.793933052	0	0.7	0.7	1	82.7248555120004	82.8643623190001	"4"	12059.542888365	12011.079044097	1.5	0.1
0.01	1	0.196157963000587	1	105	NA	111.793933052	0	0.7	0.7	1	83.0922076000006	83.2883655630012	"4"	12059.542888365	12011.079044097	1.5	0.1
0.01	1	0.177722106998772	1	105	NA	111.793933052	0	0.7	0.7	1	83.5261894530013	83.7039115600001	"4"	12059.542888365	12011.079044097	1.5	0.1
0.01	1	0.191716534998704	1	105	NA	111.793933052	0	0.7	0.7	1	83.9268863320012	84.1186028669999	"4"	12059.542888365	12011.079044097	1.5	0.1
0.01	1	0.19815790299981	1	105	NA	111.793933052	0	0.7	0.7	1	84.3444018800001	84.5425597829999	"4"	12059.542888365	12011.079044097	1.5	0.1
0.01	1	0.14901582299899	1	105	NA	111.793933052	0	0.7	0.7	1	84.7783819600008	84.9273977829998	"4"	12059.542888365	12011.079044097	1.5	0.1
0.01	1	0.22103390600023	1	105	NA	111.793933052	0	0.7	0.7	1	85.1624138120005	85.3834477180008	"4"	12059.542888365	12011.079044097	1.5	0.1
0.01	1	0.201796233001005	1	105	NA	111.793933052	0	0.7	0.7	1	85.6130926530004	85.8148888860014	"4"	12059.542888365	12011.079044097	1.5	0.1
0.01	1	0.151632715000233	1	105	NA	111.793933052	0	0.7	0.7	1	86.0472585050011	86.1988912200013	"4"	12059.542888365	12011.079044097	1.5	0.1
0.01	1	0.232132428998739	1	105	NA	111.793933052	0	0.7	0.7	1	86.4311979120012	86.6633303409999	"4"	12059.542888365	12011.079044097	1.5	0.1
0.01	1	0.220623975999843	1	105	NA	111.793933052	0	0.7	0.7	1	86.8986355410016	87.1192595170014	"4"	12059.542888365	12011.079044097	1.5	0.1
0.01	1	0.169959640001252	1	105	NA	111.793933052	0	0.7	0.7	1	87.3494212570004	87.5193808970016	"4"	12059.542888365	12011.079044097	1.5	0.1
0.01	1	0.217236197000602	1	105	NA	111.793933052	0	0.7	0.7	1	87.7500289420004	87.967265139001	"4"	12059.542888365	12011.079044097	1.5	0.1
0.01	1	0.214093942000545	1	105	NA	111.793933052	0	0.7	0.7	1	88.2007433020008	88.4148372440013	"4"	12059.542888365	12011.079044097	1.5	0.1
0.01	1	0.196483485000499	1	105	NA	111.793933052	0	0.7	0.7	1	88.6515943930008	88.8480778780013	"4"	12059.542888365	12011.079044097	1.5	0.1
0.01	1	0.113475107998966	1	105	NA	111.793933052	0	0.7	0.7	1	89.0856033150012	89.1990784230002	"4"	12059.542888365	12011.079044097	1.5	0.1
0.01	1	0.210453869998673	1	105	NA	111.793933052	0	0.7	0.7	1	89.4361906370013	89.646644507	"4"	12059.542888365	12011.079044097	1.5	0.1
0.01	1	0.209991196001283	1	105	NA	111.793933052	0	0.7	0.7	1	89.8702658450002	90.0802570410015	"4"	12059.542888365	12011.079044097	1.5	0.1
0.01	1	0.231259318999946	1	105	NA	111.793933052	0	0.7	0.7	1	90.3042873080012	90.5355466270012	"4"	12059.542888365	12011.079044097	1.5	0.1
0.01	1	0.235582858998896	1	105	NA	111.793933052	0	0.7	0.7	1	90.7717547910015	91.0073376500004	"4"	12059.542888365	12011.079044097	1.5	0.1
0.01	1	0.392480282000179	1	105	NA	111.793933052	0	0.7	0.7	1	91.2393542200007	91.6318345020009	"4"	12059.542888365	12011.079044097	1.5	0.1
0.01	1	0.24643736300095	1	105	NA	111.793933052	0	0.7	0.7	1	91.8569068699999	92.1033442330008	"4"	12059.542888365	12011.079044097	1.5	0.1
0.01	1	0.219490040000892	1	105	NA	111.793933052	0	0.7	0.7	1	92.3411343650005	92.5606244050014	"4"	12059.542888365	12011.079044097	1.5	0.1
0.01	1	0.24002205800025	1	105	NA	111.793933052	0	0.7	0.7	1	92.7918906049999	93.0319126630002	"4"	12059.542888365	12011.079044097	1.5	0.1
0.01	1	0.284529439000835	1	105	NA	111.793933052	0	0.7	0.7	1	93.2592795950004	93.5438090340012	"4"	12059.542888365	12011.079044097	1.5	0.1
0.01	1	0.222700031999921	1	105	NA	111.793933052	0	0.7	0.7	1	93.776834145001	93.9995341770009	"4"	12059.542888365	12011.079044097	1.5	0.1
0.01	1	0.203240274999189	1	105	NA	111.793933052	0	0.7	0.7	1	94.227626965001	94.4308672400002	"4"	12059.542888365	12011.079044097	1.5	0.1
0.01	1	0.177156170000671	1	105	NA	111.793933052	0	0.7	0.7	1	94.661774225	94.8389303950007	"4"	12059.542888365	12011.079044097	1.5	0.1
0.01	1	0.209018405001189	1	105	NA	111.793933052	0	0.7	0.7	1	95.0623678230004	95.2713862280016	"4"	12059.542888365	12011.079044097	1.5	0.1
0.01	1	0.23873042500054	1	105	NA	111.793933052	0	0.7	0.7	1	95.4964043	95.7351347250005	"4"	12059.542888365	12011.079044097	1.5	0.1
0.01	1	0.235649717000342	1	105	NA	111.793933052	0	0.7	0.7	1	95.9638616299999	96.1995113470002	"4"	12059.542888365	12011.079044097	1.5	0.1
0.01	1	0.223833672998808	1	105	NA	111.793933052	0	0.7	0.7	1	96.4312576000011	96.6550912729999	"4"	12059.542888365	12011.079044097	1.5	0.1
0.01	1	0.205468782000025	1	105	NA	111.793933052	0	0.7	0.7	1	96.8820489000009	97.0875176820009	"4"	12059.542888365	12011.079044097	1.5	0.1
0.01	1	0.236332218000825	1	105	NA	111.793933052	0	0.7	0.7	1	97.3161591850003	97.5524914030011	"4"	12059.542888365	12011.079044097	1.5	0.1
0.01	1	0.207532611000715	1	105	NA	111.793933052	0	0.7	0.7	1	97.7836459549999	97.9911785660006	"4"	12059.542888365	12011.079044097	1.5	0.1
0.01	1	0.213032189998557	1	105	NA	111.793933052	0	0.7	0.7	1	98.2176371270016	98.4306693170001	"4"	12059.542888365	12011.079044097	1.5	0.1
0.01	1	0.178620446999048	1	105	NA	111.793933052	0	0.7	0.7	1	98.6684167600015	98.8470372070005	"4"	12059.542888365	12011.079044097	1.5	0.1
0.01	1	0.202907471999424	1	105	NA	111.793933052	0	0.7	0.7	1	99.0690242950004	99.2719317669998	"4"	12059.542888365	12011.079044097	1.5	0.1
0.01	1	0.288849696999023	1	105	NA	111.793933052	0	0.7	0.7	1	99.5033271610009	99.7921768579999	"4"	12059.542888365	12011.079044097	1.5	0.1
0.01	1	0.194391317998452	1	105	NA	111.793933052	0	0.7	0.7	1	100.020757445001	100.215148763	"4"	12059.542888365	12011.079044097	1.5	0.1
0.01	1	0.249687079000068	1	105	NA	111.793933052	0	0.7	0.7	1	100.437974093	100.687661172	"4"	12059.542888365	12011.079044097	1.5	0.1
0.01	1	0.213100848999602	1	105	NA	111.793933052	0	0.7	0.7	1	100.922098757001	101.135199606	"4"	12059.542888365	12011.079044097	1.5	0.1
0.01	1	0.225503153998943	1	105	NA	111.793933052	0	0.7	0.7	1	101.372932281001	101.598435435	"4"	12059.542888365	12011.079044097	1.5	0.1
0.01	1	0.255464824000228	1	105	NA	111.793933052	0	0.7	0.7	1	101.823602280001	102.079067104001	"4"	12059.542888365	12011.079044097	1.5	0.1
0.01	1	0.212241503999394	1	105	NA	111.793933052	0	0.7	0.7	1	102.307803182	102.520044686	"4"	12059.542888365	12011.079044097	1.5	0.1
0.01	1	0.200848137999856	1	105	NA	111.793933052	0	0.7	0.7	1	102.741852520001	102.942700658001	"4"	12059.542888365	12011.079044097	1.5	0.1
0.01	1	0.167077270998561	1	105	NA	111.793933052	0	0.7	0.7	1	103.175914561001	103.342991832	"4"	12059.542888365	12011.079044097	1.5	0.1
0.01	1	0.215192355000909	1	105	NA	111.793933052	0	0.7	0.7	1	103.576651948	103.791844303001	"4"	12059.542888365	12011.079044097	1.5	0.1
0.01	1	0.243465948000448	1	105	NA	111.793933052	0	0.7	0.7	1	104.027372418001	104.270838366001	"4"	12059.542888365	12011.079044097	1.5	0.1
0.01	1	0.247559486999307	1	105	NA	111.793933052	0	0.7	0.7	1	104.494808041001	104.742367528001	"4"	12059.542888365	12011.079044097	1.5	0.1
0.01	1	0.293168824999157	1	105	NA	111.793933052	0	0.7	0.7	1	104.978932695001	105.27210152	"4"	12059.542888365	12011.079044097	1.5	0.1
0.01	1	0.223210292999283	1	105	NA	111.793933052	0	0.7	0.7	1	105.496644897001	105.71985519	"4"	12059.542888365	12011.079044097	1.5	0.1
0.01	1	0.267543583000588	1	105	NA	111.793933052	0	0.7	0.7	1	105.947411015	106.214954598001	"4"	12059.542888365	12011.079044097	1.5	0.1
0.01	1	0.320201091999479	1	105	NA	111.793933052	0	0.7	0.7	1	106.448142405001	106.768343497	"4"	12059.542888365	12011.079044097	1.5	0.1
0.01	1	0.216587177999827	1	105	NA	111.793933052	0	0.7	0.7	1	106.999099419001	107.215686597001	"4"	12059.542888365	12011.079044097	1.5	0.1
0.01	1	0.262435795999409	1	105	NA	111.793933052	0	0.7	0.7	1	107.449794297001	107.712230093	"4"	12059.542888365	12011.079044097	1.5	0.1
0.01	1	0.247944583999924	1	105	NA	111.793933052	0	0.7	0.7	1	107.950784942001	108.198729526001	"4"	12059.542888365	12011.079044097	1.5	0.1
0.01	1	0.228946496999924	1	105	NA	111.793933052	0	0.7	0.7	1	108.434940215	108.663886712	"4"	12059.542888365	12011.079044097	1.5	0.1
0.01	1	0.31283436800004	1	105	NA	111.793933052	0	0.7	0.7	1	108.902257991002	109.215092359002	"4"	12059.542888365	12011.079044097	1.5	0.1
0.01	1	0.562881947000278	1	105	NA	111.793933052	0	0.7	0.7	1	109.453190137001	110.016072084001	"4"	12059.542888365	12011.079044097	1.5	0.1
0.01	1	1.55459448500005	2	105	NA	111.793933052	0	0.7	0.7	1	110.237772807001	111.792367292001	"4"	12059.542888365	12011.079044097	1.5	0.1
0.01	1	0.0829485320009553	1	73	NA	144.689555019	0	0.7	1.4	1	113.844048183	113.926996715001	"5"	12059.542888365	12011.079044097	1.5	0.1
0.01	1	0.19002230300066	1	73	NA	144.689555019	0	0.7	1.4	1	114.161108890001	114.351131193001	"5"	12059.542888365	12011.079044097	1.5	0.1
0.01	1	0.100010463000217	1	73	NA	144.689555019	0	0.7	1.4	1	114.578397641	114.678408104	"5"	12059.542888365	12011.079044097	1.5	0.1
0.01	1	0.134916320999764	1	73	NA	144.689555019	0	0.7	1.4	1	114.912413830001	115.047330151001	"5"	12059.542888365	12011.079044097	1.5	0.1
0.01	1	0.144652938000945	1	73	NA	144.689555019	0	0.7	1.4	1	115.279724022001	115.424376960002	"5"	12059.542888365	12011.079044097	1.5	0.1
0.01	1	0.168593184000201	1	73	NA	144.689555019	0	0.7	1.4	1	115.64692067	115.815513854001	"5"	12059.542888365	12011.079044097	1.5	0.1
0.01	1	0.152009768000426	1	73	NA	144.689555019	0	0.7	1.4	1	116.047680505	116.199690273001	"5"	12059.542888365	12011.079044097	1.5	0.1
0.01	1	0.119456746000651	1	73	NA	144.689555019	0	0.7	1.4	1	116.431596098	116.551052844001	"5"	12059.542888365	12011.079044097	1.5	0.1
0.01	1	0.137312851000388	1	73	NA	144.689555019	0	0.7	1.4	1	116.782160789	116.91947364	"5"	12059.542888365	12011.079044097	1.5	0.1
0.01	1	0.113960560000123	1	73	NA	144.689555019	0	0.7	1.4	1	117.149425277001	117.263385837001	"5"	12059.542888365	12011.079044097	1.5	0.1
0.01	1	0.147834157000034	1	73	NA	144.689555019	0	0.7	1.4	1	117.500093437	117.647927594	"5"	12059.542888365	12011.079044097	1.5	0.1
0.01	1	0.172006329999931	1	73	NA	144.689555019	0	0.7	1.4	1	117.884110097	118.056116427	"5"	12059.542888365	12011.079044097	1.5	0.1
0.01	1	0.202869978998933	1	73	NA	144.689555019	0	0.7	1.4	1	118.284768500002	118.487638479	"5"	12059.542888365	12011.079044097	1.5	0.1
0.01	1	0.169452707999881	1	73	NA	144.689555019	0	0.7	1.4	1	118.718814790001	118.888267498001	"5"	12059.542888365	12011.079044097	1.5	0.1
0.01	1	0.176846622000085	1	73	NA	144.689555019	0	0.7	1.4	1	119.119481275	119.296327897	"5"	12059.542888365	12011.079044097	1.5	0.1
0.01	1	0.215392100000827	1	73	NA	144.689555019	0	0.7	1.4	1	119.520079479	119.735471579001	"5"	12059.542888365	12011.079044097	1.5	0.1
0.01	1	0.235466370000722	1	73	NA	144.689555019	0	0.7	1.4	1	119.970885750001	120.206352120002	"5"	12059.542888365	12011.079044097	1.5	0.1
0.01	1	0.200480120000066	1	73	NA	144.689555019	0	0.7	1.4	1	120.438279017	120.638759137	"5"	12059.542888365	12011.079044097	1.5	0.1
0.01	1	0.118266089999452	1	73	NA	144.689555019	0	0.7	1.4	1	120.872535422001	120.990801512	"5"	12059.542888365	12011.079044097	1.5	0.1
0.01	1	0.208944907999467	1	73	NA	144.689555019	0	0.7	1.4	1	121.223048662001	121.43199357	"5"	12059.542888365	12011.079044097	1.5	0.1
0.01	1	0.214527158999772	1	73	NA	144.689555019	0	0.7	1.4	1	121.657153822001	121.871680981001	"5"	12059.542888365	12011.079044097	1.5	0.1
0.01	1	0.139717119000125	1	73	NA	144.689555019	0	0.7	1.4	1	122.107814061001	122.247531180001	"5"	12059.542888365	12011.079044097	1.5	0.1
0.01	1	0.179574693000177	1	73	NA	144.689555019	0	0.7	1.4	1	122.475179557001	122.654754250001	"5"	12059.542888365	12011.079044097	1.5	0.1
0.01	1	0.203706066999075	1	73	NA	144.689555019	0	0.7	1.4	1	122.892451453001	123.09615752	"5"	12059.542888365	12011.079044097	1.5	0.1
0.01	1	0.241825025001162	1	73	NA	144.689555019	0	0.7	1.4	1	123.32649741	123.568322435001	"5"	12059.542888365	12011.079044097	1.5	0.1
0.01	1	0.212565315001484	1	73	NA	144.689555019	0	0.7	1.4	1	123.794007032	124.006572347002	"5"	12059.542888365	12011.079044097	1.5	0.1
0.01	1	0.193775532001382	1	73	NA	144.689555019	0	0.7	1.4	1	124.244769457	124.438544989001	"5"	12059.542888365	12011.079044097	1.5	0.1
0.01	1	0.225570743001299	1	73	NA	144.689555019	0	0.7	1.4	1	124.662159055	124.887729798002	"5"	12059.542888365	12011.079044097	1.5	0.1
0.01	1	0.213974423000764	1	73	NA	144.689555019	0	0.7	1.4	1	125.112956252	125.326930675001	"5"	12059.542888365	12011.079044097	1.5	0.1
0.01	1	0.196336398001222	1	73	NA	144.689555019	0	0.7	1.4	1	125.563655922	125.759992320001	"5"	12059.542888365	12011.079044097	1.5	0.1
0.01	1	0.201229435999267	1	73	NA	144.689555019	0	0.7	1.4	1	125.997723631001	126.198953067	"5"	12059.542888365	12011.079044097	1.5	0.1
0.01	1	0.215829028998996	1	73	NA	144.689555019	0	0.7	1.4	1	126.431719498001	126.647548527	"5"	12059.542888365	12011.079044097	1.5	0.1
0.01	1	0.141522672000065	1	73	NA	144.689555019	0	0.7	1.4	1	126.882528521	127.024051193001	"5"	12059.542888365	12011.079044097	1.5	0.1
0.01	1	0.254194138999082	1	73	NA	144.689555019	0	0.7	1.4	1	127.249772815001	127.503966954	"5"	12059.542888365	12011.079044097	1.5	0.1
0.01	1	0.178455657000086	1	73	NA	144.689555019	0	0.7	1.4	1	127.733860983	127.91231664	"5"	12059.542888365	12011.079044097	1.5	0.1
0.01	1	0.193481066000459	1	73	NA	144.689555019	0	0.7	1.4	1	128.134576800001	128.328057866001	"5"	12059.542888365	12011.079044097	1.5	0.1
0.01	1	0.206981326999085	1	73	NA	144.689555019	0	0.7	1.4	1	128.551950202002	128.758931529001	"5"	12059.542888365	12011.079044097	1.5	0.1
0.01	1	0.172708214999147	1	73	NA	144.689555019	0	0.7	1.4	1	128.986115818001	129.158824033	"5"	12059.542888365	12011.079044097	1.5	0.1
0.01	1	0.219603486999404	1	73	NA	144.689555019	0	0.7	1.4	1	129.386727860001	129.606331347	"5"	12059.542888365	12011.079044097	1.5	0.1
0.01	1	0.21014368500073	1	73	NA	144.689555019	0	0.7	1.4	1	129.83747774	130.047621425001	"5"	12059.542888365	12011.079044097	1.5	0.1
0.01	1	0.26301759099988	1	73	NA	144.689555019	0	0.7	1.4	1	130.271528863001	130.534546454001	"5"	12059.542888365	12011.079044097	1.5	0.1
0.01	1	0.186294580000322	1	73	NA	144.689555019	0	0.7	1.4	1	130.772313593001	130.958608173001	"5"	12059.542888365	12011.079044097	1.5	0.1
0.01	1	0.249978867001118	1	73	NA	144.689555019	0	0.7	1.4	1	131.189771473	131.439750340001	"5"	12059.542888365	12011.079044097	1.5	0.1
0.01	1	0.220830885000396	1	73	NA	144.689555019	0	0.7	1.4	1	131.67396729	131.894798175001	"5"	12059.542888365	12011.079044097	1.5	0.1
0.01	1	0.194388347999848	1	73	NA	144.689555019	0	0.7	1.4	1	132.124601969001	132.318990317	"5"	12059.542888365	12011.079044097	1.5	0.1
0.01	1	0.234338887999911	1	73	NA	144.689555019	0	0.7	1.4	1	132.542036962001	132.77637585	"5"	12059.542888365	12011.079044097	1.5	0.1
0.01	1	0.172968090999348	1	73	NA	144.689555019	0	0.7	1.4	1	133.009424092001	133.182392183	"5"	12059.542888365	12011.079044097	1.5	0.1
0.01	1	0.180456568001318	1	73	NA	144.689555019	0	0.7	1.4	1	133.410118431	133.590574999002	"5"	12059.542888365	12011.079044097	1.5	0.1
0.01	1	0.196444545999839	1	73	NA	144.689555019	0	0.7	1.4	1	133.827462414001	134.023906960001	"5"	12059.542888365	12011.079044097	1.5	0.1
0.01	1	0.226350183998875	1	73	NA	144.689555019	0	0.7	1.4	1	134.261630394001	134.487980578	"5"	12059.542888365	12011.079044097	1.5	0.1
0.01	1	0.230713957000262	1	73	NA	144.689555019	0	0.7	1.4	1	134.712346135	134.943060092	"5"	12059.542888365	12011.079044097	1.5	0.1
0.01	1	0.180763694999769	1	73	NA	144.689555019	0	0.7	1.4	1	135.179862427001	135.360626122001	"5"	12059.542888365	12011.079044097	1.5	0.1
0.01	1	0.217674887000612	1	73	NA	144.689555019	0	0.7	1.4	1	135.597128585001	135.814803472002	"5"	12059.542888365	12011.079044097	1.5	0.1
0.01	1	0.199846120000075	1	73	NA	144.689555019	0	0.7	1.4	1	136.047911130001	136.247757250001	"5"	12059.542888365	12011.079044097	1.5	0.1
0.01	1	0.228753294000853	1	73	NA	144.689555019	0	0.7	1.4	1	136.482153756	136.710907050001	"5"	12059.542888365	12011.079044097	1.5	0.1
0.01	1	0.170715702000962	1	73	NA	144.689555019	0	0.7	1.4	1	136.932732464	137.103448166001	"5"	12059.542888365	12011.079044097	1.5	0.1
0.01	1	0.250832489999084	1	73	NA	144.689555019	0	0.7	1.4	1	137.333327363001	137.584159853001	"5"	12059.542888365	12011.079044097	1.5	0.1
0.01	1	0.222657798	1	73	NA	144.689555019	0	0.7	1.4	1	137.817612235001	138.040270033001	"5"	12059.542888365	12011.079044097	1.5	0.1
0.01	1	0.250291098000162	1	73	NA	144.689555019	0	0.7	1.4	1	138.268249935001	138.518541033001	"5"	12059.542888365	12011.079044097	1.5	0.1
0.01	1	0.21431397699962	1	73	NA	144.689555019	0	0.7	1.4	1	138.752454573001	138.966768550001	"5"	12059.542888365	12011.079044097	1.5	0.1
0.01	1	0.364004650000425	1	73	NA	144.689555019	0	0.7	1.4	1	139.203360585001	139.567365235001	"5"	12059.542888365	12011.079044097	1.5	0.1
0.01	1	0.19604590400013	1	73	NA	144.689555019	0	0.7	1.4	1	139.804190343	140.000236247	"5"	12059.542888365	12011.079044097	1.5	0.1
0.01	1	0.297989298000175	1	73	NA	144.689555019	0	0.7	1.4	1	140.238434609	140.536423907	"5"	12059.542888365	12011.079044097	1.5	0.1
0.01	1	0.242037055000765	1	73	NA	144.689555019	0	0.7	1.4	1	140.772586485	141.014623540001	"5"	12059.542888365	12011.079044097	1.5	0.1
0.01	1	0.190895883000849	1	73	NA	144.689555019	0	0.7	1.4	1	141.23997572	141.430871603001	"5"	12059.542888365	12011.079044097	1.5	0.1
0.01	1	0.27794871200058	1	73	NA	144.689555019	0	0.7	1.4	1	141.657279875	141.935228587001	"5"	12059.542888365	12011.079044097	1.5	0.1
0.01	1	0.128639647000455	1	73	NA	144.689555019	0	0.7	1.4	1	142.174965999	142.303605646001	"5"	12059.542888365	12011.079044097	1.5	0.1
0.01	1	0.289542152999275	1	73	NA	144.689555019	0	0.7	1.4	1	142.525560945001	142.815103098001	"5"	12059.542888365	12011.079044097	1.5	0.1
0.01	1	0.155414290000408	1	73	NA	144.689555019	0	0.7	1.4	1	143.043031217001	143.198445507001	"5"	12059.542888365	12011.079044097	1.5	0.1
0.01	1	0.356754210999497	1	73	NA	144.689555019	0	0.7	1.4	1	143.426937362001	143.783691573	"5"	12059.542888365	12011.079044097	1.5	0.1
0.01	1	0.676723431999562	2	73	NA	144.689555019	0	0.7	1.4	1	144.01130704	144.688030472	"5"	12059.542888365	12011.079044097	1.5	0.1
0.01	1	0.570648703000188	1	45	165.900007605002	NA	1	0	1.4	1	146.732527780001	147.303176483001	"6"	12059.542888365	12011.079044097	1.5	0.1
0.01	1	0.0900242829993658	1	45	165.900007605002	NA	1	0	1.4	1	147.534033752001	147.624058035	"6"	12059.542888365	12011.079044097	1.5	0.1
0.01	1	0.124548427000263	1	45	165.900007605002	NA	1	0	1.4	1	147.851227786001	147.975776213001	"6"	12059.542888365	12011.079044097	1.5	0.1
0.01	1	0.165104558000166	1	45	165.900007605002	NA	1	0	1.4	1	148.201716103	148.366820661	"6"	12059.542888365	12011.079044097	1.5	0.1
0.01	1	0.125013924998711	1	45	165.900007605002	NA	1	0	1.4	1	148.602389139001	148.727403064	"6"	12059.542888365	12011.079044097	1.5	0.1
0.01	1	0.157530095999391	1	45	165.900007605002	NA	1	0	1.4	1	148.952978205001	149.110508301001	"6"	12059.542888365	12011.079044097	1.5	0.1
0.01	1	0.135437585000545	1	45	165.900007605002	NA	1	0	1.4	1	149.337026872001	149.472464457001	"6"	12059.542888365	12011.079044097	1.5	0.1
0.01	1	0.151756234999993	1	45	165.900007605002	NA	1	0	1.4	1	149.704307885	149.85606412	"6"	12059.542888365	12011.079044097	1.5	0.1
0.01	1	0.152023781000025	1	45	165.900007605002	NA	1	0	1.4	1	150.088352822	150.240376603	"6"	12059.542888365	12011.079044097	1.5	0.1
0.01	1	0.144337763000294	1	45	165.900007605002	NA	1	0	1.4	1	150.472274777001	150.616612540001	"6"	12059.542888365	12011.079044097	1.5	0.1
0.01	1	0.167702736000138	1	45	165.900007605002	NA	1	0	1.4	1	150.839525430001	151.007228166001	"6"	12059.542888365	12011.079044097	1.5	0.1
0.01	1	0.144217791999836	1	45	165.900007605002	NA	1	0	1.4	1	151.240126520001	151.384344312	"6"	12059.542888365	12011.079044097	1.5	0.1
0.01	1	0.127277911999045	1	45	165.900007605002	NA	1	0	1.4	1	151.607515237001	151.734793149	"6"	12059.542888365	12011.079044097	1.5	0.1
0.01	1	0.161374740999236	1	45	165.900007605002	NA	1	0	1.4	1	151.958045925001	152.119420666	"6"	12059.542888365	12011.079044097	1.5	0.1
0.01	1	0.168594616001428	1	45	165.900007605002	NA	1	0	1.4	1	152.34212537	152.510719986001	"6"	12059.542888365	12011.079044097	1.5	0.1
0.01	1	0.217032243001086	1	45	165.900007605002	NA	1	0	1.4	1	152.742669825	152.959702068001	"6"	12059.542888365	12011.079044097	1.5	0.1
0.01	1	0.198492969999279	1	45	165.900007605002	NA	1	0	1.4	1	153.193468320002	153.391961290001	"6"	12059.542888365	12011.079044097	1.5	0.1
0.01	1	0.146954353000183	1	45	165.900007605002	NA	1	0	1.4	1	153.627528711	153.774483064	"6"	12059.542888365	12011.079044097	1.5	0.1
0.01	1	0.195598638001684	1	45	165.900007605002	NA	1	0	1.4	1	154.011505265	154.207103903002	"6"	12059.542888365	12011.079044097	1.5	0.1
0.01	1	0.138941379000244	1	45	165.900007605002	NA	1	0	1.4	1	154.42881114	154.567752519	"6"	12059.542888365	12011.079044097	1.5	0.1
0.01	1	0.171295027999804	1	45	165.900007605002	NA	1	0	1.4	1	154.796097439001	154.967392467001	"6"	12059.542888365	12011.079044097	1.5	0.1
0.01	1	0.163619539000138	1	45	165.900007605002	NA	1	0	1.4	1	155.196866679	155.360486218	"6"	12059.542888365	12011.079044097	1.5	0.1
0.01	1	0.178481288998228	1	45	165.900007605002	NA	1	0	1.4	1	155.597493689002	155.775974978	"6"	12059.542888365	12011.079044097	1.5	0.1
0.01	1	0.264973629000451	1	45	165.900007605002	NA	1	0	1.4	1	155.998272074001	156.263245703001	"6"	12059.542888365	12011.079044097	1.5	0.1
0.01	1	0.788790627999333	1	45	165.900007605002	NA	1	0	1.4	1	156.498935159001	157.287725787	"6"	12059.542888365	12011.079044097	1.5	0.1
0.01	1	0.161264047999794	1	45	165.900007605002	NA	1	0	1.4	1	157.517365992	157.67863004	"6"	12059.542888365	12011.079044097	1.5	0.1
0.01	1	0.129894659999991	1	45	165.900007605002	NA	1	0	1.4	1	157.901426436001	158.031321096001	"6"	12059.542888365	12011.079044097	1.5	0.1
0.01	1	0.139494007000394	1	45	165.900007605002	NA	1	0	1.4	1	158.268636175	158.408130182001	"6"	12059.542888365	12011.079044097	1.5	0.1
0.01	1	0.195477547000337	1	45	165.900007605002	NA	1	0	1.4	1	158.63598481	158.831462357	"6"	12059.542888365	12011.079044097	1.5	0.1
0.01	1	0.147323986000629	1	45	165.900007605002	NA	1	0	1.4	1	159.053247271	159.200571257001	"6"	12059.542888365	12011.079044097	1.5	0.1
0.01	1	0.28285090099962	1	45	165.900007605002	NA	1	0	1.4	1	159.437238371002	159.720089272001	"6"	12059.542888365	12011.079044097	1.5	0.1
0.01	1	0.204915316000552	1	45	165.900007605002	NA	1	0	1.4	1	159.954776279001	160.159691595001	"6"	12059.542888365	12011.079044097	1.5	0.1
0.01	1	0.163706050001565	1	45	165.900007605002	NA	1	0	1.4	1	160.388821871	160.552527921001	"6"	12059.542888365	12011.079044097	1.5	0.1
0.01	1	0.169499311999971	1	45	165.900007605002	NA	1	0	1.4	1	160.789491946001	160.958991258001	"6"	12059.542888365	12011.079044097	1.5	0.1
0.01	1	0.193107991999568	1	45	165.900007605002	NA	1	0	1.4	1	161.190298309	161.383406301	"6"	12059.542888365	12011.079044097	1.5	0.1
0.01	1	0.177042764000362	1	45	165.900007605002	NA	1	0	1.4	1	161.607543147	161.784585911	"6"	12059.542888365	12011.079044097	1.5	0.1
0.01	1	0.26452620100099	1	45	165.900007605002	NA	1	0	1.4	1	162.008291734001	162.272817935002	"6"	12059.542888365	12011.079044097	1.5	0.1
0.01	1	0.162047939998956	1	45	165.900007605002	NA	1	0	1.4	1	162.509151125001	162.671199065	"6"	12059.542888365	12011.079044097	1.5	0.1
0.01	1	0.242447949998677	1	45	165.900007605002	NA	1	0	1.4	1	162.909877200002	163.15232515	"6"	12059.542888365	12011.079044097	1.5	0.1
0.01	1	0.238553999000942	1	45	165.900007605002	NA	1	0	1.4	1	163.377229428001	163.615783427002	"6"	12059.542888365	12011.079044097	1.5	0.1
0.01	1	0.169895402001202	1	45	165.900007605002	NA	1	0	1.4	1	163.844667624	164.014563026001	"6"	12059.542888365	12011.079044097	1.5	0.1
0.01	1	0.23570042999927	1	45	165.900007605002	NA	1	0	1.4	1	164.245386627001	164.481087057	"6"	12059.542888365	12011.079044097	1.5	0.1
0.01	1	0.20636863999971	1	45	165.900007605002	NA	1	0	1.4	1	164.712860466001	164.919229106001	"6"	12059.542888365	12011.079044097	1.5	0.1
0.01	1	0.213078097000107	1	45	165.900007605002	NA	1	0	1.4	1	165.14690376	165.359981857	"6"	12059.542888365	12011.079044097	1.5	0.1
0.01	1	0.194842226999754	1	45	165.900007605002	NA	1	0	1.4	1	165.597577665001	165.792419892001	"6"	12059.542888365	12011.079044097	1.5	0.1
0.01	1	0.985979174998647	1	10	173.664348928001	NA	1	0	1.4	1	167.934869297002	168.920848472	"7"	12059.542888365	12011.079044097	1.5	0.1
0.01	1	0.254678573001001	1	10	173.664348928001	NA	1	0	1.4	1	169.15366571	169.408344283001	"7"	12059.542888365	12011.079044097	1.5	0.1
0.01	1	0.210431524001251	1	10	173.664348928001	NA	1	0	1.4	1	169.637793619	169.848225143001	"7"	12059.542888365	12011.079044097	1.5	0.1
0.01	1	0.200034142000732	1	10	173.664348928001	NA	1	0	1.4	1	170.071762179001	170.271796321002	"7"	12059.542888365	12011.079044097	1.5	0.1
0.01	1	0.12607595100053	1	10	173.664348928001	NA	1	0	1.4	1	170.505882481	170.631958432001	"7"	12059.542888365	12011.079044097	1.5	0.1
0.01	1	0.159797024	1	10	173.664348928001	NA	1	0	1.4	1	170.856494764001	171.016291788001	"7"	12059.542888365	12011.079044097	1.5	0.1
0.01	1	0.159945621000588	1	10	173.664348928001	NA	1	0	1.4	1	171.240526915	171.400472536001	"7"	12059.542888365	12011.079044097	1.5	0.1
0.01	1	0.143528806000177	1	10	173.664348928001	NA	1	0	1.4	1	171.624505689	171.768034495	"7"	12059.542888365	12011.079044097	1.5	0.1
0.01	1	1.19153378999908	1	10	173.664348928001	NA	1	0	1.4	1	171.991757630001	173.18329142	"7"	12059.542888365	12011.079044097	1.5	0.1
0.01	1	0.141430505000244	1	10	173.664348928001	NA	1	0	1.4	1	173.410778573001	173.552209078001	"7"	12059.542888365	12011.079044097	1.5	0.1
0.01	1	0.0369782689995191	1	37	191.876751263	NA	1	0	1.4	1	175.714753197	175.751731466	"8"	12059.542888365	12011.079044097	1.5	0.1
0.01	1	0.330555619999359	1	37	191.876751263	NA	1	0	1.4	1	175.981777958001	176.312333578	"8"	12059.542888365	12011.079044097	1.5	0.1
0.01	1	0.225271527999212	1	37	191.876751263	NA	1	0	1.4	1	176.549457597001	176.774729125	"8"	12059.542888365	12011.079044097	1.5	0.1
0.01	1	0.191790618000596	1	37	191.876751263	NA	1	0	1.4	1	177.000130644001	177.191921262001	"8"	12059.542888365	12011.079044097	1.5	0.1
0.01	1	0.173065013001178	1	37	191.876751263	NA	1	0	1.4	1	177.417556728	177.590621741001	"8"	12059.542888365	12011.079044097	1.5	0.1
0.01	1	0.212426759999289	1	37	191.876751263	NA	1	0	1.4	1	177.818210455001	178.030637215001	"8"	12059.542888365	12011.079044097	1.5	0.1
0.01	1	0.219381106000583	1	37	191.876751263	NA	1	0	1.4	1	178.252270593001	178.471651699001	"8"	12059.542888365	12011.079044097	1.5	0.1
0.01	1	0.192967770000905	1	37	191.876751263	NA	1	0	1.4	1	178.703163458	178.896131228001	"8"	12059.542888365	12011.079044097	1.5	0.1
0.01	1	0.142493977000413	1	37	191.876751263	NA	1	0	1.4	1	179.137056559	179.279550536001	"8"	12059.542888365	12011.079044097	1.5	0.1
0.01	1	0.209054550001383	1	37	191.876751263	NA	1	0	1.4	1	179.504403264	179.713457814001	"8"	12059.542888365	12011.079044097	1.5	0.1
0.01	1	0.205612693998773	1	37	191.876751263	NA	1	0	1.4	1	179.938526143002	180.144138837	"8"	12059.542888365	12011.079044097	1.5	0.1
0.01	1	0.163136786000905	1	37	191.876751263	NA	1	0	1.4	1	180.372544508	180.535681294001	"8"	12059.542888365	12011.079044097	1.5	0.1
0.01	1	0.218387091001205	1	37	191.876751263	NA	1	0	1.4	1	180.77315981	180.991546901001	"8"	12059.542888365	12011.079044097	1.5	0.1
0.01	1	0.166809828000623	1	37	191.876751263	NA	1	0	1.4	1	181.223858400001	181.390668228001	"8"	12059.542888365	12011.079044097	1.5	0.1
0.01	1	0.182514612000887	1	37	191.876751263	NA	1	0	1.4	1	181.658096182	181.840610794001	"8"	12059.542888365	12011.079044097	1.5	0.1
0.01	1	0.211531797000134	1	37	191.876751263	NA	1	0	1.4	1	182.075401470001	182.286933267002	"8"	12059.542888365	12011.079044097	1.5	0.1
0.01	1	0.257260526999744	1	37	191.876751263	NA	1	0	1.4	1	182.509393913	182.76665444	"8"	12059.542888365	12011.079044097	1.5	0.1
0.01	1	0.236946498000179	1	37	191.876751263	NA	1	0	1.4	1	182.993584343001	183.230530841001	"8"	12059.542888365	12011.079044097	1.5	0.1
0.01	1	0.195657104999555	1	37	191.876751263	NA	1	0	1.4	1	183.460984950001	183.656642055001	"8"	12059.542888365	12011.079044097	1.5	0.1
0.01	1	0.194217623000441	1	37	191.876751263	NA	1	0	1.4	1	183.87845539	184.072673013001	"8"	12059.542888365	12011.079044097	1.5	0.1
0.01	1	0.224531359001048	1	37	191.876751263	NA	1	0	1.4	1	184.295863444	184.520394803001	"8"	12059.542888365	12011.079044097	1.5	0.1
0.01	1	0.158920461999514	1	37	191.876751263	NA	1	0	1.4	1	184.746493721001	184.905414183	"8"	12059.542888365	12011.079044097	1.5	0.1
0.01	1	0.23768792699957	1	37	191.876751263	NA	1	0	1.4	1	185.130467623001	185.368155550001	"8"	12059.542888365	12011.079044097	1.5	0.1
0.01	1	0.210304964999523	1	37	191.876751263	NA	1	0	1.4	1	185.597934983001	185.808239948001	"8"	12059.542888365	12011.079044097	1.5	0.1
0.01	1	0.183997995000027	1	37	191.876751263	NA	1	0	1.4	1	186.032081321	186.216079316	"8"	12059.542888365	12011.079044097	1.5	0.1
0.01	1	0.238422709000588	1	37	191.876751263	NA	1	0	1.4	1	186.449386008	186.687808717001	"8"	12059.542888365	12011.079044097	1.5	0.1
0.01	1	0.210126334999586	1	37	191.876751263	NA	1	0	1.4	1	186.916886808001	187.127013143001	"8"	12059.542888365	12011.079044097	1.5	0.1
0.01	1	0.176464793999912	1	37	191.876751263	NA	1	0	1.4	1	187.350945206001	187.527410000001	"8"	12059.542888365	12011.079044097	1.5	0.1
0.01	1	0.1831432400013	1	37	191.876751263	NA	1	0	1.4	1	187.751631391	187.934774631001	"8"	12059.542888365	12011.079044097	1.5	0.1
0.01	1	0.18243020799855	1	37	191.876751263	NA	1	0	1.4	1	188.168909409002	188.351339617	"8"	12059.542888365	12011.079044097	1.5	0.1
0.01	1	0.398152477000622	1	37	191.876751263	NA	1	0	1.4	1	188.586279347001	188.984431824001	"8"	12059.542888365	12011.079044097	1.5	0.1
0.01	1	0.235348614000031	1	37	191.876751263	NA	1	0	1.4	1	189.220676143001	189.456024757001	"8"	12059.542888365	12011.079044097	1.5	0.1
0.01	1	0.207608734999667	1	37	191.876751263	NA	1	0	1.4	1	189.688185642	189.895794377	"8"	12059.542888365	12011.079044097	1.5	0.1
0.01	1	0.22871285400106	1	37	191.876751263	NA	1	0	1.4	1	190.122272233	190.350985087001	"8"	12059.542888365	12011.079044097	1.5	0.1
0.01	1	0.211540827000135	1	37	191.876751263	NA	1	0	1.4	1	190.573017100001	190.784557927002	"8"	12059.542888365	12011.079044097	1.5	0.1
0.01	1	0.272422125999583	1	37	191.876751263	NA	1	0	1.4	1	191.007090181001	191.279512307001	"8"	12059.542888365	12011.079044097	1.5	0.1
0.01	1	0.260766429999421	1	37	191.876751263	NA	1	0	1.4	1	191.50786664	191.76863307	"8"	12059.542888365	12011.079044097	1.5	0.1
0.01	1	0.00220936799996707	1	108	NA	217.592623320001	0	0.5	1.9	1	193.911933659001	193.914143027001	"9"	12059.542888365	12011.079044097	1.5	0.1
0.01	1	0.382269568999618	1	108	NA	217.592623320001	0	0.5	1.9	1	194.145719754	194.527989323	"9"	12059.542888365	12011.079044097	1.5	0.1
0.01	1	0.133333842999491	1	108	NA	217.592623320001	0	0.5	1.9	1	194.763392587001	194.896726430001	"9"	12059.542888365	12011.079044097	1.5	0.1
0.01	1	0.107692859000963	1	108	NA	217.592623320001	0	0.5	1.9	1	195.130689702	195.238382561001	"9"	12059.542888365	12011.079044097	1.5	0.1
0.01	1	0.19943744199918	1	108	NA	217.592623320001	0	0.5	1.9	1	195.464593153001	195.664030595	"9"	12059.542888365	12011.079044097	1.5	0.1
0.01	1	0.163826899999549	1	108	NA	217.592623320001	0	0.5	1.9	1	195.898716584001	196.062543484	"9"	12059.542888365	12011.079044097	1.5	0.1
0.01	1	0.220455045000563	1	108	NA	217.592623320001	0	0.5	1.9	1	196.299341763	196.519796808001	"9"	12059.542888365	12011.079044097	1.5	0.1
0.01	1	0.161554009999236	1	108	NA	217.592623320001	0	0.5	1.9	1	196.750025467001	196.911579477	"9"	12059.542888365	12011.079044097	1.5	0.1
0.01	1	0.234024183000656	1	108	NA	217.592623320001	0	0.5	1.9	1	197.134075423	197.368099606001	"9"	12059.542888365	12011.079044097	1.5	0.1
0.01	1	0.172813200999371	1	108	NA	217.592623320001	0	0.5	1.9	1	197.601546199001	197.7743594	"9"	12059.542888365	12011.079044097	1.5	0.1
0.01	1	0.189077102999363	1	108	NA	217.592623320001	0	0.5	1.9	1	198.002126111001	198.191203214001	"9"	12059.542888365	12011.079044097	1.5	0.1
0.01	1	0.187948548998975	1	108	NA	217.592623320001	0	0.5	1.9	1	198.419615840001	198.607564389	"9"	12059.542888365	12011.079044097	1.5	0.1
0.01	1	0.217865652999535	1	108	NA	217.592623320001	0	0.5	1.9	1	198.836988707	199.05485436	"9"	12059.542888365	12011.079044097	1.5	0.1
0.01	1	0.201157915000294	1	108	NA	217.592623320001	0	0.5	1.9	1	199.287667575001	199.488825490002	"9"	12059.542888365	12011.079044097	1.5	0.1
0.01	1	0.212519560998771	1	108	NA	217.592623320001	0	0.5	1.9	1	199.721842186002	199.934361747	"9"	12059.542888365	12011.079044097	1.5	0.1
0.01	1	0.228714142000172	1	108	NA	217.592623320001	0	0.5	1.9	1	200.15582847	200.384542612001	"9"	12059.542888365	12011.079044097	1.5	0.1
0.01	1	1.71999027899983	1	108	NA	217.592623320001	0	0.5	1.9	1	200.623155058001	202.343145337001	"9"	12059.542888365	12011.079044097	1.5	0.1
0.01	1	0.342760995999924	1	108	NA	217.592623320001	0	0.5	1.9	1	202.576556052001	202.919317048001	"9"	12059.542888365	12011.079044097	1.5	0.1
0.01	1	0.272299280999505	1	108	NA	217.592623320001	0	0.5	1.9	1	203.144093956002	203.416393237001	"9"	12059.542888365	12011.079044097	1.5	0.1
0.01	1	0.290224242999102	1	108	NA	217.592623320001	0	0.5	1.9	1	203.644991984002	203.935216227001	"9"	12059.542888365	12011.079044097	1.5	0.1
0.01	1	0.237436272000195	1	108	NA	217.592623320001	0	0.5	1.9	1	204.16259012	204.400026392001	"9"	12059.542888365	12011.079044097	1.5	0.1
0.01	1	0.218078029998651	1	108	NA	217.592623320001	0	0.5	1.9	1	204.630008691001	204.848086721	"9"	12059.542888365	12011.079044097	1.5	0.1
0.01	1	0.287331071998778	1	108	NA	217.592623320001	0	0.5	1.9	1	205.080751393001	205.368082465	"9"	12059.542888365	12011.079044097	1.5	0.1
0.01	1	0.153405469000063	1	108	NA	217.592623320001	0	0.5	1.9	1	205.598356116001	205.751761585001	"9"	12059.542888365	12011.079044097	1.5	0.1
0.01	1	0.225295350999659	1	108	NA	217.592623320001	0	0.5	1.9	1	205.982220051001	206.207515402	"9"	12059.542888365	12011.079044097	1.5	0.1
0.01	1	0.133472851000988	1	108	NA	217.592623320001	0	0.5	1.9	1	206.433044133	206.566516984001	"9"	12059.542888365	12011.079044097	1.5	0.1
0.01	1	0.190068085999883	1	108	NA	217.592623320001	0	0.5	1.9	1	206.800263193001	206.990331279001	"9"	12059.542888365	12011.079044097	1.5	0.1
0.01	1	0.19743488000131	1	108	NA	217.592623320001	0	0.5	1.9	1	207.217592072	207.415026952001	"9"	12059.542888365	12011.079044097	1.5	0.1
0.01	1	0.251975990999199	1	108	NA	217.592623320001	0	0.5	1.9	1	207.651684449002	207.903660440001	"9"	12059.542888365	12011.079044097	1.5	0.1
0.01	1	0.271454056000948	1	108	NA	217.592623320001	0	0.5	1.9	1	208.135915416	208.407369472001	"9"	12059.542888365	12011.079044097	1.5	0.1
0.01	1	0.138931723000496	1	108	NA	217.592623320001	0	0.5	1.9	1	208.636782362	208.775714085001	"9"	12059.542888365	12011.079044097	1.5	0.1
0.01	1	0.203527344001486	1	108	NA	217.592623320001	0	0.5	1.9	1	209.003991578	209.207518922001	"9"	12059.542888365	12011.079044097	1.5	0.1
0.01	1	0.217618276999929	1	108	NA	217.592623320001	0	0.5	1.9	1	209.438067993	209.65568627	"9"	12059.542888365	12011.079044097	1.5	0.1
0.01	1	0.182182606000424	1	108	NA	217.592623320001	0	0.5	1.9	1	209.888788137001	210.070970743001	"9"	12059.542888365	12011.079044097	1.5	0.1
0.01	1	0.205240472001606	1	108	NA	217.592623320001	0	0.5	1.9	1	210.306188355	210.511428827002	"9"	12059.542888365	12011.079044097	1.5	0.1
0.01	1	0.235919976999867	1	108	NA	217.592623320001	0	0.5	1.9	1	210.740279837	210.976199814	"9"	12059.542888365	12011.079044097	1.5	0.1
0.01	1	0.184567541999058	1	108	NA	217.592623320001	0	0.5	1.9	1	211.207738787001	211.392306329	"9"	12059.542888365	12011.079044097	1.5	0.1
0.01	1	0.197558130999823	1	108	NA	217.592623320001	0	0.5	1.9	1	211.625044915001	211.822603046001	"9"	12059.542888365	12011.079044097	1.5	0.1
0.01	1	0.1803308260005	1	108	NA	217.592623320001	0	0.5	1.9	1	212.059214961	212.239545787001	"9"	12059.542888365	12011.079044097	1.5	0.1
0.01	1	0.227701452999099	1	108	NA	217.592623320001	0	0.5	1.9	1	212.476671345001	212.704372798	"9"	12059.542888365	12011.079044097	1.5	0.1
0.01	1	0.607435220999832	1	108	NA	217.592623320001	0	0.5	1.9	1	212.927292312001	213.534727533	"9"	12059.542888365	12011.079044097	1.5	0.1
0.01	1	0.159767448998537	1	108	NA	217.592623320001	0	0.5	1.9	1	213.762032018001	213.921799467	"9"	12059.542888365	12011.079044097	1.5	0.1
0.01	1	0.180796882999857	1	108	NA	217.592623320001	0	0.5	1.9	1	214.162707804	214.343504687	"9"	12059.542888365	12011.079044097	1.5	0.1
0.01	1	0.164257985999939	1	108	NA	217.592623320001	0	0.5	1.9	1	214.57999919	214.744257176	"9"	12059.542888365	12011.079044097	1.5	0.1
0.01	1	0.163190657000087	1	108	NA	217.592623320001	0	0.5	1.9	1	214.98082871	215.144019367001	"9"	12059.542888365	12011.079044097	1.5	0.1
0.01	1	0.194279309000194	1	108	NA	217.592623320001	0	0.5	1.9	1	215.381401849001	215.575681158001	"9"	12059.542888365	12011.079044097	1.5	0.1
0.01	1	0.265083481001056	1	108	NA	217.592623320001	0	0.5	1.9	1	215.798822232	216.063905713001	"9"	12059.542888365	12011.079044097	1.5	0.1
0.01	1	0.108236615000351	1	108	NA	217.592623320001	0	0.5	1.9	1	216.299646674001	216.407883289001	"9"	12059.542888365	12011.079044097	1.5	0.1
0.01	1	0.119123513000886	1	108	NA	217.592623320001	0	0.5	1.9	1	216.63346529	216.752588803001	"9"	12059.542888365	12011.079044097	1.5	0.1
0.01	1	0.119655735999913	1	108	NA	217.592623320001	0	0.5	1.9	1	216.984085275	217.103741011	"9"	12059.542888365	12011.079044097	1.5	0.1
0.01	1	0.256218074000572	2	108	NA	217.592623320001	0	0.5	1.9	1	217.334825891001	217.591043965002	"9"	12059.542888365	12011.079044097	1.5	0.1
0.01	1	0.632583283000713	1	18	227.002540238002	NA	1	0	1.9	1	219.621883497	220.254466780001	"10"	12059.542888365	12011.079044097	1.5	0.1
0.01	1	0.110491794001064	1	18	227.002540238002	NA	1	0	1.9	1	220.490100298	220.600592092002	"10"	12059.542888365	12011.079044097	1.5	0.1
0.01	1	0.0713014239991026	1	18	227.002540238002	NA	1	0	1.9	1	220.823836217001	220.895137641	"10"	12059.542888365	12011.079044097	1.5	0.1
0.01	1	0.123277378001148	1	18	227.002540238002	NA	1	0	1.9	1	221.124398926	221.247676304001	"10"	12059.542888365	12011.079044097	1.5	0.1
0.01	1	0.180040686000211	1	18	227.002540238002	NA	1	0	1.9	1	221.475036459	221.655077145	"10"	12059.542888365	12011.079044097	1.5	0.1
0.01	1	0.0910083099988697	1	18	227.002540238002	NA	1	0	1.9	1	221.892361387001	221.983369697	"10"	12059.542888365	12011.079044097	1.5	0.1
0.01	1	0.126226123000379	1	18	227.002540238002	NA	1	0	1.9	1	222.209553074001	222.335779197001	"10"	12059.542888365	12011.079044097	1.5	0.1
0.01	1	0.160046606000833	1	18	227.002540238002	NA	1	0	1.9	1	222.560422515	222.720469121001	"10"	12059.542888365	12011.079044097	1.5	0.1
0.01	1	0.311238711999977	1	18	227.002540238002	NA	1	0	1.9	1	222.944144457	223.255383169	"10"	12059.542888365	12011.079044097	1.5	0.1
0.01	1	0.152960976000031	1	18	227.002540238002	NA	1	0	1.9	1	223.495095727001	223.648056703001	"10"	12059.542888365	12011.079044097	1.5	0.1
0.01	1	0.152994505999231	1	18	227.002540238002	NA	1	0	1.9	1	223.878969737001	224.031964243	"10"	12059.542888365	12011.079044097	1.5	0.1
0.01	1	0.136826214999019	1	18	227.002540238002	NA	1	0	1.9	1	224.262982175002	224.399808390001	"10"	12059.542888365	12011.079044097	1.5	0.1
0.01	1	0.208724167001492	1	18	227.002540238002	NA	1	0	1.9	1	224.630257228	224.838981395002	"10"	12059.542888365	12011.079044097	1.5	0.1
0.01	1	0.119725311998991	1	18	227.002540238002	NA	1	0	1.9	1	225.064358135001	225.184083447	"10"	12059.542888365	12011.079044097	1.5	0.1
0.01	1	0.169774265001251	1	18	227.002540238002	NA	1	0	1.9	1	225.414907512	225.584681777002	"10"	12059.542888365	12011.079044097	1.5	0.1
0.01	1	0.192468884000846	1	18	227.002540238002	NA	1	0	1.9	1	225.81565984	226.008128724001	"10"	12059.542888365	12011.079044097	1.5	0.1
0.01	1	0.279459569999744	1	18	227.002540238002	NA	1	0	1.9	1	226.23300396	226.51246353	"10"	12059.542888365	12011.079044097	1.5	0.1
0.01	1	0.144949954999902	1	18	227.002540238002	NA	1	0	1.9	1	226.750622420001	226.895572375	"10"	12059.542888365	12011.079044097	1.5	0.1
0.01	1	0.00230453000040143	1	2	229.72453714	NA	1	0	1.9	1	229.037710803001	229.040015333001	"11"	12059.542888365	12011.079044097	1.5	0.1
0.01	1	0.336623615999997	1	2	229.72453714	NA	1	0	1.9	1	229.271390015001	229.608013631001	"11"	12059.542888365	12011.079044097	1.5	0.1
0.01	1	0.231591674999436	1	107	NA	257.200141697002	0	0.5	2.4	1	231.775700525001	232.0072922	"12"	12059.542888365	12011.079044097	1.5	0.1
0.01	1	0.211324109000998	1	107	NA	257.200141697002	0	0.5	2.4	1	232.243101603	232.454425712001	"12"	12059.542888365	12011.079044097	1.5	0.1
0.01	1	0.122641017998831	1	107	NA	257.200141697002	0	0.5	2.4	1	232.677126239001	232.799767257	"12"	12059.542888365	12011.079044097	1.5	0.1
0.01	1	0.123724093000419	1	107	NA	257.200141697002	0	0.5	2.4	1	233.027827619	233.151551712001	"12"	12059.542888365	12011.079044097	1.5	0.1
0.01	1	0.117502876000799	1	107	NA	257.200141697002	0	0.5	2.4	1	233.378334637	233.495837513001	"12"	12059.542888365	12011.079044097	1.5	0.1
0.01	1	0.134264626000004	1	107	NA	257.200141697002	0	0.5	2.4	1	233.728987800001	233.863252426001	"12"	12059.542888365	12011.079044097	1.5	0.1
0.01	1	0.15024285400068	1	107	NA	257.200141697002	0	0.5	2.4	1	234.096165096	234.246407950001	"12"	12059.542888365	12011.079044097	1.5	0.1
0.01	1	0.150805827999648	1	107	NA	257.200141697002	0	0.5	2.4	1	234.480190399001	234.630996227001	"12"	12059.542888365	12011.079044097	1.5	0.1
0.01	1	0.13499562799916	1	107	NA	257.200141697002	0	0.5	2.4	1	234.864209200001	234.999204828	"12"	12059.542888365	12011.079044097	1.5	0.1
0.01	1	0.153003786001136	1	107	NA	257.200141697002	0	0.5	2.4	1	235.231509747	235.384513533001	"12"	12059.542888365	12011.079044097	1.5	0.1
0.01	1	0.134987047998948	1	107	NA	257.200141697002	0	0.5	2.4	1	235.615430155001	235.750417203	"12"	12059.542888365	12011.079044097	1.5	0.1
0.01	1	0.160879768000086	1	107	NA	257.200141697002	0	0.5	2.4	1	235.982730445001	236.143610213001	"12"	12059.542888365	12011.079044097	1.5	0.1
0.01	1	0.289328566999757	1	107	NA	257.200141697002	0	0.5	2.4	1	236.366793070001	236.656121637001	"12"	12059.542888365	12011.079044097	1.5	0.1
0.01	1	0.210647292000431	1	107	NA	257.200141697002	0	0.5	2.4	1	236.884143355001	237.094790647001	"12"	12059.542888365	12011.079044097	1.5	0.1
0.01	1	0.177938689001166	1	107	NA	257.200141697002	0	0.5	2.4	1	237.318255852	237.496194541001	"12"	12059.542888365	12011.079044097	1.5	0.1
0.01	1	0.193223512000259	1	107	NA	257.200141697002	0	0.5	2.4	1	237.718943747001	237.912167259001	"12"	12059.542888365	12011.079044097	1.5	0.1
0.01	1	0.983736108999437	1	107	NA	257.200141697002	0	0.5	2.4	1	238.136372841002	239.120108950001	"12"	12059.542888365	12011.079044097	1.5	0.1
0.01	1	0.444533689998934	1	107	NA	257.200141697002	0	0.5	2.4	1	239.355091671001	239.799625361	"12"	12059.542888365	12011.079044097	1.5	0.1
0.01	1	0.160357974000362	1	107	NA	257.200141697002	0	0.5	2.4	1	240.022882721001	240.183240695002	"12"	12059.542888365	12011.079044097	1.5	0.1
0.01	1	0.256225743998584	1	107	NA	257.200141697002	0	0.5	2.4	1	240.406955993001	240.663181737	"12"	12059.542888365	12011.079044097	1.5	0.1
0.01	1	0.251874341000075	1	107	NA	257.200141697002	0	0.5	2.4	1	240.891011892001	241.142886233001	"12"	12059.542888365	12011.079044097	1.5	0.1
0.01	1	0.144463497999823	1	107	NA	257.200141697002	0	0.5	2.4	1	241.375113740001	241.519577238001	"12"	12059.542888365	12011.079044097	1.5	0.1
0.01	1	0.201463243000035	1	107	NA	257.200141697002	0	0.5	2.4	1	241.742439663001	241.943902906001	"12"	12059.542888365	12011.079044097	1.5	0.1
0.01	1	0.143923842999357	1	107	NA	257.200141697002	0	0.5	2.4	1	242.176539329001	242.320463172	"12"	12059.542888365	12011.079044097	1.5	0.1
0.01	1	0.271527640999921	1	107	NA	257.200141697002	0	0.5	2.4	1	242.543737848	242.815265489	"12"	12059.542888365	12011.079044097	1.5	0.1
0.01	1	0.154943217999971	1	107	NA	257.200141697002	0	0.5	2.4	1	243.044551575002	243.199494793002	"12"	12059.542888365	12011.079044097	1.5	0.1
0.01	1	0.226809994999712	1	107	NA	257.200141697002	0	0.5	2.4	1	243.428575181	243.655385176	"12"	12059.542888365	12011.079044097	1.5	0.1
0.01	1	0.249008945998867	1	107	NA	257.200141697002	0	0.5	2.4	1	243.879334603002	244.128343549	"12"	12059.542888365	12011.079044097	1.5	0.1
0.01	1	0.403972435999094	1	107	NA	257.200141697002	0	0.5	2.4	1	244.363508305001	244.767480741	"12"	12059.542888365	12011.079044097	1.5	0.1
0.01	1	0.336906493999777	1	107	NA	257.200141697002	0	0.5	2.4	1	244.997856153001	245.334762647	"12"	12059.542888365	12011.079044097	1.5	0.1
0.01	1	0.450854885000808	1	107	NA	257.200141697002	0	0.5	2.4	1	245.565581232	246.016436117001	"12"	12059.542888365	12011.079044097	1.5	0.1
0.01	1	0.302560226999049	1	107	NA	257.200141697002	0	0.5	2.4	1	246.249928970001	246.552489197	"12"	12059.542888365	12011.079044097	1.5	0.1
0.01	1	0.334951877999629	1	107	NA	257.200141697002	0	0.5	2.4	1	246.784232162001	247.119184040001	"12"	12059.542888365	12011.079044097	1.5	0.1
0.01	1	0.319344475999969	1	107	NA	257.200141697002	0	0.5	2.4	1	247.351760241001	247.671104717001	"12"	12059.542888365	12011.079044097	1.5	0.1
0.01	1	0.369558178999796	1	107	NA	257.200141697002	0	0.5	2.4	1	247.902753625001	248.272311804001	"12"	12059.542888365	12011.079044097	1.5	0.1
0.01	1	0.430769859000065	1	107	NA	257.200141697002	0	0.5	2.4	1	248.503803834001	248.934573693001	"12"	12059.542888365	12011.079044097	1.5	0.1
0.01	1	0.363062557999001	1	107	NA	257.200141697002	0	0.5	2.4	1	249.171538329001	249.534600887	"12"	12059.542888365	12011.079044097	1.5	0.1
0.01	1	0.290935229999377	1	107	NA	257.200141697002	0	0.5	2.4	1	249.772605470002	250.063540700001	"12"	12059.542888365	12011.079044097	1.5	0.1
0.01	1	0.236499548000211	1	107	NA	257.200141697002	0	0.5	2.4	1	250.290094082	250.52659363	"12"	12059.542888365	12011.079044097	1.5	0.1
0.01	1	0.234167643999172	1	107	NA	257.200141697002	0	0.5	2.4	1	250.757626145001	250.991793789	"12"	12059.542888365	12011.079044097	1.5	0.1
0.01	1	0.238433513999553	1	107	NA	257.200141697002	0	0.5	2.4	1	251.224983755001	251.463417269	"12"	12059.542888365	12011.079044097	1.5	0.1
0.01	1	0.178253798998412	1	107	NA	257.200141697002	0	0.5	2.4	1	251.692483698002	251.870737497	"12"	12059.542888365	12011.079044097	1.5	0.1
0.01	1	0.16190688900133	1	107	NA	257.200141697002	0	0.5	2.4	1	252.093130411	252.255037300001	"12"	12059.542888365	12011.079044097	1.5	0.1
0.01	1	0.138253924998935	1	107	NA	257.200141697002	0	0.5	2.4	1	252.477086673001	252.615340598	"12"	12059.542888365	12011.079044097	1.5	0.1
0.01	1	0.16174356800002	1	107	NA	257.200141697002	0	0.5	2.4	1	252.844743092	253.006486660001	"12"	12059.542888365	12011.079044097	1.5	0.1
0.01	1	0.186593903999892	1	107	NA	257.200141697002	0	0.5	2.4	1	253.228352793001	253.414946697001	"12"	12059.542888365	12011.079044097	1.5	0.1
0.01	1	0.240847626999312	1	107	NA	257.200141697002	0	0.5	2.4	1	253.645812010001	253.886659637001	"12"	12059.542888365	12011.079044097	1.5	0.1
0.01	1	0.237180363001244	1	107	NA	257.200141697002	0	0.5	2.4	1	254.113240629	254.350420992001	"12"	12059.542888365	12011.079044097	1.5	0.1
0.01	1	0.355103326000972	1	107	NA	257.200141697002	0	0.5	2.4	1	254.580646606	254.935749932001	"12"	12059.542888365	12011.079044097	1.5	0.1
0.01	1	0.105515221999667	1	107	NA	257.200141697002	0	0.5	2.4	1	255.164965988	255.27048121	"12"	12059.542888365	12011.079044097	1.5	0.1
0.01	1	1.69965428900105	2	107	NA	257.200141697002	0	0.5	2.4	1	255.498847167	257.198501456001	"12"	12059.542888365	12011.079044097	1.5	0.1
0.01	1	1.45530773700011	1	119	NA	280.864410755001	0	0.5	2.9	1	259.255205330001	260.710513067001	"13"	12059.542888365	12011.079044097	1.5	0.1
0.01	1	0.227051202000439	1	119	NA	280.864410755001	0	0.5	2.9	1	260.941366281	261.168417483001	"13"	12059.542888365	12011.079044097	1.5	0.1
0.01	1	0.175449656000637	1	119	NA	280.864410755001	0	0.5	2.9	1	261.392124284001	261.567573940001	"13"	12059.542888365	12011.079044097	1.5	0.1
0.01	1	0.126211504999446	1	119	NA	280.864410755001	0	0.5	2.9	1	261.792780733002	261.918992238001	"13"	12059.542888365	12011.079044097	1.5	0.1
0.01	1	0.207820163999713	1	119	NA	280.864410755001	0	0.5	2.9	1	262.143434852002	262.351255016001	"13"	12059.542888365	12011.079044097	1.5	0.1
0.01	1	0.165300227999978	1	119	NA	280.864410755001	0	0.5	2.9	1	262.577456052	262.74275628	"13"	12059.542888365	12011.079044097	1.5	0.1
0.01	1	0.125211080001463	1	119	NA	280.864410755001	0	0.5	2.9	1	262.97814852	263.103359600002	"13"	12059.542888365	12011.079044097	1.5	0.1
0.01	1	0.102178659999481	1	119	NA	280.864410755001	0	0.5	2.9	1	263.328793353001	263.430972013	"13"	12059.542888365	12011.079044097	1.5	0.1
0.01	1	0.120699498000249	1	119	NA	280.864410755001	0	0.5	2.9	1	263.662658313	263.783357811	"13"	12059.542888365	12011.079044097	1.5	0.1
0.01	1	0.0492808460003289	1	119	NA	280.864410755001	0	0.5	2.9	1	264.013275307001	264.062556153001	"13"	12059.542888365	12011.079044097	1.5	0.1
0.01	1	0.102064406000864	1	119	NA	280.864410755001	0	0.5	2.9	1	264.29707595	264.399140356001	"13"	12059.542888365	12011.079044097	1.5	0.1
0.01	1	0.135524027000429	1	119	NA	280.864410755001	0	0.5	2.9	1	264.630947990001	264.766472017001	"13"	12059.542888365	12011.079044097	1.5	0.1
0.01	1	0.192459550000422	1	119	NA	280.864410755001	0	0.5	2.9	1	264.998162263	265.190621813001	"13"	12059.542888365	12011.079044097	1.5	0.1
0.01	1	0.136729589999959	1	119	NA	280.864410755001	0	0.5	2.9	1	265.415550137001	265.552279727	"13"	12059.542888365	12011.079044097	1.5	0.1
0.01	1	0.104258981000385	1	119	NA	280.864410755001	0	0.5	2.9	1	265.782965459	265.887224440001	"13"	12059.542888365	12011.079044097	1.5	0.1
0.01	1	0.171667206001075	1	119	NA	280.864410755001	0	0.5	2.9	1	266.116694475	266.288361681001	"13"	12059.542888365	12011.079044097	1.5	0.1
0.01	1	0.442736921000687	1	119	NA	280.864410755001	0	0.5	2.9	1	266.517434693	266.960171614001	"13"	12059.542888365	12011.079044097	1.5	0.1
0.01	1	0.173705056999097	1	119	NA	280.864410755001	0	0.5	2.9	1	267.185266190001	267.358971247	"13"	12059.542888365	12011.079044097	1.5	0.1
0.01	1	0.172606883999833	1	119	NA	280.864410755001	0	0.5	2.9	1	267.585829822001	267.758436706001	"13"	12059.542888365	12011.079044097	1.5	0.1
0.01	1	0.196462025000073	1	119	NA	280.864410755001	0	0.5	2.9	1	267.986674295	268.18313632	"13"	12059.542888365	12011.079044097	1.5	0.1
0.01	1	0.162961471000017	1	119	NA	280.864410755001	0	0.5	2.9	1	268.420569169	268.58353064	"13"	12059.542888365	12011.079044097	1.5	0.1
0.01	1	0.193545824000466	1	119	NA	280.864410755001	0	0.5	2.9	1	268.821277437	269.014823261001	"13"	12059.542888365	12011.079044097	1.5	0.1
0.01	1	0.176731014000325	1	119	NA	280.864410755001	0	0.5	2.9	1	269.238722541	269.415453555001	"13"	12059.542888365	12011.079044097	1.5	0.1
0.01	1	0.151260896000167	1	119	NA	280.864410755001	0	0.5	2.9	1	269.639368121001	269.790629017001	"13"	12059.542888365	12011.079044097	1.5	0.1
0.01	1	0.318929713001125	1	119	NA	280.864410755001	0	0.5	2.9	1	270.02354403	270.342473743001	"13"	12059.542888365	12011.079044097	1.5	0.1
0.01	1	0.353376630999264	1	119	NA	280.864410755001	0	0.5	2.9	1	270.574267546001	270.927644177	"13"	12059.542888365	12011.079044097	1.5	0.1
0.01	1	0.0721450649998587	1	119	NA	280.864410755001	0	0.5	2.9	1	271.158538695001	271.230683760001	"13"	12059.542888365	12011.079044097	1.5	0.1
0.01	1	0.108305900001142	1	119	NA	280.864410755001	0	0.5	2.9	1	271.459107143	271.567413043002	"13"	12059.542888365	12011.079044097	1.5	0.1
0.01	1	0.086349182000049	1	119	NA	280.864410755001	0	0.5	2.9	1	271.793001372002	271.879350554002	"13"	12059.542888365	12011.079044097	1.5	0.1
0.01	1	0.0978262389999145	1	119	NA	280.864410755001	0	0.5	2.9	1	272.110180761001	272.208007000001	"13"	12059.542888365	12011.079044097	1.5	0.1
0.01	1	0.410493071000019	1	119	NA	280.864410755001	0	0.5	2.9	1	272.444033635	272.854526706	"13"	12059.542888365	12011.079044097	1.5	0.1
0.01	1	0.105849023000701	1	119	NA	280.864410755001	0	0.5	2.9	1	273.07860452	273.184453543001	"13"	12059.542888365	12011.079044097	1.5	0.1
0.01	1	0.114634670999294	1	119	NA	280.864410755001	0	0.5	2.9	1	273.412420787001	273.527055458	"13"	12059.542888365	12011.079044097	1.5	0.1
0.01	1	0.0636629109994828	1	119	NA	280.864410755001	0	0.5	2.9	1	273.762894275002	273.826557186001	"13"	12059.542888365	12011.079044097	1.5	0.1
0.01	1	0.0640864750002947	1	119	NA	280.864410755001	0	0.5	2.9	1	274.063423571	274.127510046001	"13"	12059.542888365	12011.079044097	1.5	0.1
0.01	1	0.700017366998509	1	119	NA	280.864410755001	0	0.5	2.9	1	274.363908541001	275.063925908	"13"	12059.542888365	12011.079044097	1.5	0.1
0.01	1	0.117790729998887	1	119	NA	280.864410755001	0	0.5	2.9	1	275.298864740002	275.41665547	"13"	12059.542888365	12011.079044097	1.5	0.1
0.01	1	0.0874702509991039	1	119	NA	280.864410755001	0	0.5	2.9	1	275.649398482001	275.736868733	"13"	12059.542888365	12011.079044097	1.5	0.1
0.01	1	0.11426975699942	1	119	NA	280.864410755001	0	0.5	2.9	1	275.966680200001	276.080949957	"13"	12059.542888365	12011.079044097	1.5	0.1
0.01	1	0.0977780869998242	1	119	NA	280.864410755001	0	0.5	2.9	1	276.317337378001	276.415115465001	"13"	12059.542888365	12011.079044097	1.5	0.1
0.01	1	0.452760992999174	1	119	NA	280.864410755001	0	0.5	2.9	1	276.651238661001	277.103999654	"13"	12059.542888365	12011.079044097	1.5	0.1
0.01	1	0.0797028359993419	1	119	NA	280.864410755001	0	0.5	2.9	1	277.335619807001	277.415322643001	"13"	12059.542888365	12011.079044097	1.5	0.1
0.01	1	0.0817616900003486	1	119	NA	280.864410755001	0	0.5	2.9	1	277.652723253001	277.734484943001	"13"	12059.542888365	12011.079044097	1.5	0.1
0.01	1	0.132844367000871	1	119	NA	280.864410755001	0	0.5	2.9	1	277.97010448	278.102948847001	"13"	12059.542888365	12011.079044097	1.5	0.1
0.01	1	0.109673427999951	1	119	NA	280.864410755001	0	0.5	2.9	1	278.337264607	278.446938035	"13"	12059.542888365	12011.079044097	1.5	0.1
0.01	1	0.433122358999753	1	119	NA	280.864410755001	0	0.5	2.9	1	278.671235526001	279.104357885	"13"	12059.542888365	12011.079044097	1.5	0.1
0.01	1	0.0856579830015107	1	119	NA	280.864410755001	0	0.5	2.9	1	279.338945509	279.424603492002	"13"	12059.542888365	12011.079044097	1.5	0.1
0.01	1	0.119515783999304	1	119	NA	280.864410755001	0	0.5	2.9	1	279.656313396001	279.77582918	"13"	12059.542888365	12011.079044097	1.5	0.1
0.01	1	0.0809216580000793	1	119	NA	280.864410755001	0	0.5	2.9	1	280.006789365001	280.087711023001	"13"	12059.542888365	12011.079044097	1.5	0.1
0.01	1	0.125040592000005	1	119	NA	280.864410755001	0	0.5	2.9	1	280.323986028001	280.449026620001	"13"	12059.542888365	12011.079044097	1.5	0.1
0.01	1	0.188090270999965	2	119	NA	280.864410755001	0	0.5	2.9	1	280.674688013001	280.862778284001	"13"	12059.542888365	12011.079044097	1.5	0.1
0.01	1	0.495729812999343	1	71	NA	304.544106035	0	0.5	3.4	1	282.911633602002	283.407363415001	"14"	12059.542888365	12011.079044097	1.5	0.1
0.01	1	0.0248214550010744	1	71	NA	304.544106035	0	0.5	3.4	1	283.646230315	283.671051770001	"14"	12059.542888365	12011.079044097	1.5	0.1
0.01	1	0.114108824998766	1	71	NA	304.544106035	0	0.5	3.4	1	283.896615610001	284.010724435	"14"	12059.542888365	12011.079044097	1.5	0.1
0.01	1	0.0974318749995291	1	71	NA	304.544106035	0	0.5	3.4	1	284.247274929001	284.344706804	"14"	12059.542888365	12011.079044097	1.5	0.1
0.01	1	0.138134107000951	1	71	NA	304.544106035	0	0.5	3.4	1	284.581090133001	284.719224240001	"14"	12059.542888365	12011.079044097	1.5	0.1
0.01	1	0.154627805999553	1	71	NA	304.544106035	0	0.5	3.4	1	284.948506181001	285.103133987001	"14"	12059.542888365	12011.079044097	1.5	0.1
0.01	1	0.17076246599936	1	71	NA	304.544106035	0	0.5	3.4	1	285.332379031001	285.503141497	"14"	12059.542888365	12011.079044097	1.5	0.1
0.01	1	0.154147913000998	1	71	NA	304.544106035	0	0.5	3.4	1	285.733155095	285.887303008001	"14"	12059.542888365	12011.079044097	1.5	0.1
0.01	1	0.178825330000109	1	71	NA	304.544106035	0	0.5	3.4	1	286.116993657	286.295818987001	"14"	12059.542888365	12011.079044097	1.5	0.1
0.01	1	0.193959762998929	1	71	NA	304.544106035	0	0.5	3.4	1	286.534473180001	286.728432943	"14"	12059.542888365	12011.079044097	1.5	0.1
0.01	1	0.54338086000098	1	71	NA	304.544106035	0	0.5	3.4	1	286.95180667	287.495187530001	"14"	12059.542888365	12011.079044097	1.5	0.1
0.01	1	0.190791861999969	1	71	NA	304.544106035	0	0.5	3.4	1	287.719669115	287.910460977	"14"	12059.542888365	12011.079044097	1.5	0.1
0.01	1	0.221568879000188	1	71	NA	304.544106035	0	0.5	3.4	1	288.137130559	288.358699438	"14"	12059.542888365	12011.079044097	1.5	0.1
0.01	1	0.226555971999915	1	71	NA	304.544106035	0	0.5	3.4	1	288.587922306	288.814478278	"14"	12059.542888365	12011.079044097	1.5	0.1
0.01	1	0.207637022000199	1	71	NA	304.544106035	0	0.5	3.4	1	289.038708065	289.246345087	"14"	12059.542888365	12011.079044097	1.5	0.1
0.01	1	0.198785857000985	1	71	NA	304.544106035	0	0.5	3.4	1	289.472719571	289.671505428001	"14"	12059.542888365	12011.079044097	1.5	0.1
0.01	1	0.171830842000418	1	71	NA	304.544106035	0	0.5	3.4	1	289.906794479	290.078625321001	"14"	12059.542888365	12011.079044097	1.5	0.1
0.01	1	0.157820513999468	1	71	NA	304.544106035	0	0.5	3.4	1	290.307386857001	290.465207371	"14"	12059.542888365	12011.079044097	1.5	0.1
0.01	1	0.16435586300031	1	71	NA	304.544106035	0	0.5	3.4	1	290.691543228	290.855899091001	"14"	12059.542888365	12011.079044097	1.5	0.1
0.01	1	0.188173836000715	1	71	NA	304.544106035	0	0.5	3.4	1	291.092101693001	291.280275529001	"14"	12059.542888365	12011.079044097	1.5	0.1
0.01	1	0.537959486999171	1	71	NA	304.544106035	0	0.5	3.4	1	291.509451016002	292.047410503001	"14"	12059.542888365	12011.079044097	1.5	0.1
0.01	1	0.177872592999847	1	71	NA	304.544106035	0	0.5	3.4	1	292.277491666	292.455364259	"14"	12059.542888365	12011.079044097	1.5	0.1
0.01	1	0.137425569999323	1	71	NA	304.544106035	0	0.5	3.4	1	292.678159770001	292.81558534	"14"	12059.542888365	12011.079044097	1.5	0.1
0.01	1	0.145743998999023	1	71	NA	304.544106035	0	0.5	3.4	1	293.045424564001	293.191168563	"14"	12059.542888365	12011.079044097	1.5	0.1
0.01	1	0.17876767099915	1	71	NA	304.544106035	0	0.5	3.4	1	293.412686670001	293.591454341	"14"	12059.542888365	12011.079044097	1.5	0.1
0.01	1	0.146894958999837	1	71	NA	304.544106035	0	0.5	3.4	1	293.813248287001	293.960143246	"14"	12059.542888365	12011.079044097	1.5	0.1
0.01	1	0.147057819000111	1	71	NA	304.544106035	0	0.5	3.4	1	294.197272354	294.344330173	"14"	12059.542888365	12011.079044097	1.5	0.1
0.01	1	0.170565612001155	1	71	NA	304.544106035	0	0.5	3.4	1	294.581229059	294.751794671001	"14"	12059.542888365	12011.079044097	1.5	0.1
0.01	1	0.161925088999851	1	71	NA	304.544106035	0	0.5	3.4	1	294.981950281001	295.14387537	"14"	12059.542888365	12011.079044097	1.5	0.1
0.01	1	0.18553630399947	1	71	NA	304.544106035	0	0.5	3.4	1	295.366045712	295.551582016	"14"	12059.542888365	12011.079044097	1.5	0.1
0.01	1	0.68156825799997	1	71	NA	304.544106035	0	0.5	3.4	1	295.783384465001	296.464952723001	"14"	12059.542888365	12011.079044097	1.5	0.1
0.01	1	0.146605996000289	1	71	NA	304.544106035	0	0.5	3.4	1	296.701561253001	296.848167249002	"14"	12059.542888365	12011.079044097	1.5	0.1
0.01	1	0.13038586500079	1	71	NA	304.544106035	0	0.5	3.4	1	297.085532707	297.215918572001	"14"	12059.542888365	12011.079044097	1.5	0.1
0.01	1	0.16243742199913	1	71	NA	304.544106035	0	0.5	3.4	1	297.452787501001	297.615224923	"14"	12059.542888365	12011.079044097	1.5	0.1
0.01	1	0.139177315000779	1	71	NA	304.544106035	0	0.5	3.4	1	297.853430507001	297.992607822001	"14"	12059.542888365	12011.079044097	1.5	0.1
0.01	1	0.156223950998537	1	71	NA	304.544106035	0	0.5	3.4	1	298.220784992001	298.377008943	"14"	12059.542888365	12011.079044097	1.5	0.1
0.01	1	0.179517241000212	1	71	NA	304.544106035	0	0.5	3.4	1	298.604751293	298.784268534	"14"	12059.542888365	12011.079044097	1.5	0.1
0.01	1	0.145107174999794	1	71	NA	304.544106035	0	0.5	3.4	1	299.022176209	299.167283384	"14"	12059.542888365	12011.079044097	1.5	0.1
0.01	1	0.15465761500127	1	71	NA	304.544106035	0	0.5	3.4	1	299.389384111	299.544041726002	"14"	12059.542888365	12011.079044097	1.5	0.1
0.01	1	0.155197590000171	1	71	NA	304.544106035	0	0.5	3.4	1	299.773438295	299.928635885	"14"	12059.542888365	12011.079044097	1.5	0.1
0.01	1	0.594337767999605	1	71	NA	304.544106035	0	0.5	3.4	1	300.157255854001	300.751593622001	"14"	12059.542888365	12011.079044097	1.5	0.1
0.01	1	0.191730761000144	1	71	NA	304.544106035	0	0.5	3.4	1	300.975403411001	301.167134172001	"14"	12059.542888365	12011.079044097	1.5	0.1
0.01	1	0.103345106001143	1	71	NA	304.544106035	0	0.5	3.4	1	301.392797617	301.496142723001	"14"	12059.542888365	12011.079044097	1.5	0.1
0.01	1	0.127938752999398	1	71	NA	304.544106035	0	0.5	3.4	1	301.726728330001	301.854667083	"14"	12059.542888365	12011.079044097	1.5	0.1
0.01	1	0.145976221001547	1	71	NA	304.544106035	0	0.5	3.4	1	302.077236227	302.223212448002	"14"	12059.542888365	12011.079044097	1.5	0.1
0.01	1	0.162151856000492	1	71	NA	304.544106035	0	0.5	3.4	1	302.461191986	302.623343842	"14"	12059.542888365	12011.079044097	1.5	0.1
0.01	1	0.14480517300035	1	71	NA	304.544106035	0	0.5	3.4	1	302.861885718001	303.006690891001	"14"	12059.542888365	12011.079044097	1.5	0.1
0.01	1	0.153920650000146	1	71	NA	304.544106035	0	0.5	3.4	1	303.229245440001	303.383166090001	"14"	12059.542888365	12011.079044097	1.5	0.1
0.01	1	0.0825047069993161	1	71	NA	304.544106035	0	0.5	3.4	1	303.613185285001	303.695689992001	"14"	12059.542888365	12011.079044097	1.5	0.1
0.01	1	0.132192025999757	1	71	NA	304.544106035	0	0.5	3.4	1	303.930322956001	304.062514982001	"14"	12059.542888365	12011.079044097	1.5	0.1
0.01	1	0.244846270999915	2	71	NA	304.544106035	0	0.5	3.4	1	304.297646407002	304.542492678002	"14"	12059.542888365	12011.079044097	1.5	0.1
0.01	1	0.00207289500031038	1	32	319.776122177002	NA	1	0	3.4	1	306.60151674	306.603589635	"15"	12059.542888365	12011.079044097	1.5	0.1
0.01	1	0.325459173998752	1	32	319.776122177002	NA	1	0	3.4	1	306.835267702001	307.160726876	"15"	12059.542888365	12011.079044097	1.5	0.1
0.01	1	0.118487632000324	1	32	319.776122177002	NA	1	0	3.4	1	307.386057505	307.504545137001	"15"	12059.542888365	12011.079044097	1.5	0.1
0.01	1	0.126360614000077	1	32	319.776122177002	NA	1	0	3.4	1	307.736659033	307.863019647	"15"	12059.542888365	12011.079044097	1.5	0.1
0.01	1	0.159494756999266	1	32	319.776122177002	NA	1	0	3.4	1	308.087327009001	308.246821766001	"15"	12059.542888365	12011.079044097	1.5	0.1
0.01	1	0.112323260000267	1	32	319.776122177002	NA	1	0	3.4	1	308.471266621	308.583589881	"15"	12059.542888365	12011.079044097	1.5	0.1
0.01	1	0.129565946999719	1	32	319.776122177002	NA	1	0	3.4	1	308.805236481001	308.934802428001	"15"	12059.542888365	12011.079044097	1.5	0.1
0.01	1	0.106822147999992	1	32	319.776122177002	NA	1	0	3.4	1	309.172514304	309.279336452	"15"	12059.542888365	12011.079044097	1.5	0.1
0.01	1	0.140334183999585	1	32	319.776122177002	NA	1	0	3.4	1	309.506438993001	309.646773177001	"15"	12059.542888365	12011.079044097	1.5	0.1
0.01	1	0.215719965999597	1	32	319.776122177002	NA	1	0	3.4	1	309.873681083001	310.089401049001	"15"	12059.542888365	12011.079044097	1.5	0.1
0.01	1	0.426378255999225	1	32	319.776122177002	NA	1	0	3.4	1	310.324383120002	310.750761376001	"15"	12059.542888365	12011.079044097	1.5	0.1
0.01	1	0.184898658000748	1	32	319.776122177002	NA	1	0	3.4	1	310.975497243	311.160395901001	"15"	12059.542888365	12011.079044097	1.5	0.1
0.01	1	0.111300288001075	1	32	319.776122177002	NA	1	0	3.4	1	311.392874494	311.504174782001	"15"	12059.542888365	12011.079044097	1.5	0.1
0.01	1	0.184547457000008	1	32	319.776122177002	NA	1	0	3.4	1	311.726778133001	311.911325590001	"15"	12059.542888365	12011.079044097	1.5	0.1
0.01	1	0.168299289998686	1	32	319.776122177002	NA	1	0	3.4	1	312.144104931001	312.312404221	"15"	12059.542888365	12011.079044097	1.5	0.1
0.01	1	0.135641210001268	1	32	319.776122177002	NA	1	0	3.4	1	312.544944993	312.680586203001	"15"	12059.542888365	12011.079044097	1.5	0.1
0.01	1	0.151819476001037	1	32	319.776122177002	NA	1	0	3.4	1	312.912046853	313.063866329001	"15"	12059.542888365	12011.079044097	1.5	0.1
0.01	1	0.135672860000341	1	32	319.776122177002	NA	1	0	3.4	1	313.296063996	313.431736856	"15"	12059.542888365	12011.079044097	1.5	0.1
0.01	1	0.122285048999402	1	32	319.776122177002	NA	1	0	3.4	1	313.663366364	313.785651413	"15"	12059.542888365	12011.079044097	1.5	0.1
0.01	1	0.217647093999403	1	32	319.776122177002	NA	1	0	3.4	1	314.014001694	314.231648788	"15"	12059.542888365	12011.079044097	1.5	0.1
0.01	1	0.501999161999265	1	32	319.776122177002	NA	1	0	3.4	1	314.464745654001	314.966744816	"15"	12059.542888365	12011.079044097	1.5	0.1
0.01	1	0.184449509999467	1	32	319.776122177002	NA	1	0	3.4	1	315.199235260001	315.38368477	"15"	12059.542888365	12011.079044097	1.5	0.1
0.01	1	0.143828196998584	1	32	319.776122177002	NA	1	0	3.4	1	315.616617700001	315.760445897	"15"	12059.542888365	12011.079044097	1.5	0.1
0.01	1	0.174816976999864	1	32	319.776122177002	NA	1	0	3.4	1	315.983972720001	316.158789697001	"15"	12059.542888365	12011.079044097	1.5	0.1
0.01	1	0.182678757999383	1	32	319.776122177002	NA	1	0	3.4	1	316.384756967002	316.567435725001	"15"	12059.542888365	12011.079044097	1.5	0.1
0.01	1	0.133031086999836	1	32	319.776122177002	NA	1	0	3.4	1	316.801921699001	316.934952786001	"15"	12059.542888365	12011.079044097	1.5	0.1
0.01	1	0.150489133999145	1	32	319.776122177002	NA	1	0	3.4	1	317.169225367001	317.319714501	"15"	12059.542888365	12011.079044097	1.5	0.1
0.01	1	0.189601516998664	1	32	319.776122177002	NA	1	0	3.4	1	317.553405174001	317.743006691	"15"	12059.542888365	12011.079044097	1.5	0.1
0.01	1	0.140160008999374	1	32	319.776122177002	NA	1	0	3.4	1	317.970555028001	318.110715037001	"15"	12059.542888365	12011.079044097	1.5	0.1
0.01	1	0.197900965998997	1	32	319.776122177002	NA	1	0	3.4	1	318.337825027002	318.535725993001	"15"	12059.542888365	12011.079044097	1.5	0.1
0.01	1	0.498528688000079	1	32	319.776122177002	NA	1	0	3.4	1	318.771913122	319.27044181	"15"	12059.542888365	12011.079044097	1.5	0.1
0.01	1	0.148511420000432	1	32	319.776122177002	NA	1	0	3.4	1	319.506580941001	319.655092361001	"15"	12059.542888365	12011.079044097	1.5	0.1
0.01	1	0.155318839999381	1	7	324.350313234001	NA	1	0	3.4	1	321.827105939001	321.982424779	"16"	12059.542888365	12011.079044097	1.5	0.1
0.01	1	0.171878102999472	1	7	324.350313234001	NA	1	0	3.4	1	322.211119200001	322.382997303001	"16"	12059.542888365	12011.079044097	1.5	0.1
0.01	1	0.131496934000097	1	7	324.350313234001	NA	1	0	3.4	1	322.611721834	322.743218768001	"16"	12059.542888365	12011.079044097	1.5	0.1
0.01	1	0.124637201000951	1	7	324.350313234001	NA	1	0	3.4	1	322.979006169	323.103643370001	"16"	12059.542888365	12011.079044097	1.5	0.1
0.01	1	0.160050182999839	1	7	324.350313234001	NA	1	0	3.4	1	323.329674379002	323.489724562001	"16"	12059.542888365	12011.079044097	1.5	0.1
0.01	1	0.158329542999127	1	7	324.350313234001	NA	1	0	3.4	1	323.713582353001	323.871911896	"16"	12059.542888365	12011.079044097	1.5	0.1
0.01	1	0.142578405999302	1	7	324.350313234001	NA	1	0	3.4	1	324.097648578001	324.240226984	"16"	12059.542888365	12011.079044097	1.5	0.1
0.01	1	0.350846993998857	1	49	345.452123036001	NA	1	0	3.4	1	326.401471607001	326.752318601	"17"	12059.542888365	12011.079044097	1.5	0.1
0.01	1	0.069376008999825	1	49	345.452123036001	NA	1	0	3.4	1	326.985710824001	327.055086833001	"17"	12059.542888365	12011.079044097	1.5	0.1
0.01	1	0.120273696000368	1	49	345.452123036001	NA	1	0	3.4	1	327.286359490001	327.406633186001	"17"	12059.542888365	12011.079044097	1.5	0.1
0.01	1	0.137454085001082	1	49	345.452123036001	NA	1	0	3.4	1	327.636948427	327.774402512001	"17"	12059.542888365	12011.079044097	1.5	0.1
0.01	1	0.0983687349998945	1	49	345.452123036001	NA	1	0	3.4	1	328.004206510001	328.102575245	"17"	12059.542888365	12011.079044097	1.5	0.1
0.01	1	0.174369342999853	1	49	345.452123036001	NA	1	0	3.4	1	328.338052083001	328.512421426001	"17"	12059.542888365	12011.079044097	1.5	0.1
0.01	1	0.109492841000247	1	49	345.452123036001	NA	1	0	3.4	1	328.738685238	328.848178079001	"17"	12059.542888365	12011.079044097	1.5	0.1
0.01	1	0.0862221389998012	1	49	345.452123036001	NA	1	0	3.4	1	329.072551498	329.158773637	"17"	12059.542888365	12011.079044097	1.5	0.1
0.01	1	0.0978349340002751	1	49	345.452123036001	NA	1	0	3.4	1	329.389853429	329.487688363	"17"	12059.542888365	12011.079044097	1.5	0.1
0.01	1	0.10682682299921	1	49	345.452123036001	NA	1	0	3.4	1	329.723661203001	329.830488026	"17"	12059.542888365	12011.079044097	1.5	0.1
0.01	1	0.453891523000493	1	49	345.452123036001	NA	1	0	3.4	1	330.05759663	330.511488153001	"17"	12059.542888365	12011.079044097	1.5	0.1
0.01	1	0.12055779199909	1	49	345.452123036001	NA	1	0	3.4	1	330.742017071001	330.862574863	"17"	12059.542888365	12011.079044097	1.5	0.1
0.01	1	0.114163579000888	1	49	345.452123036001	NA	1	0	3.4	1	331.092634500001	331.206798079002	"17"	12059.542888365	12011.079044097	1.5	0.1
0.01	1	0.132023964000837	1	49	345.452123036001	NA	1	0	3.4	1	331.443250619001	331.575274583001	"17"	12059.542888365	12011.079044097	1.5	0.1
0.01	1	0.132653741999093	1	49	345.452123036001	NA	1	0	3.4	1	331.810516061001	331.943169803	"17"	12059.542888365	12011.079044097	1.5	0.1
0.01	1	0.142124914000306	1	49	345.452123036001	NA	1	0	3.4	1	332.177823921	332.319948835	"17"	12059.542888365	12011.079044097	1.5	0.1
0.01	1	0.149746785000389	1	49	345.452123036001	NA	1	0	3.4	1	332.545072306	332.694819091001	"17"	12059.542888365	12011.079044097	1.5	0.1
0.01	1	0.10456774100021	1	49	345.452123036001	NA	1	0	3.4	1	332.929053138001	333.033620879001	"17"	12059.542888365	12011.079044097	1.5	0.1
0.01	1	0.0714782199993351	1	49	345.452123036001	NA	1	0	3.4	1	333.263037010001	333.334515230001	"17"	12059.542888365	12011.079044097	1.5	0.1
0.01	1	0.0926365709983656	1	49	345.452123036001	NA	1	0	3.4	1	333.563522834002	333.656159405	"17"	12059.542888365	12011.079044097	1.5	0.1
0.01	1	0.15950968099969	1	49	345.452123036001	NA	1	0	3.4	1	333.880784914001	334.040294595001	"17"	12059.542888365	12011.079044097	1.5	0.1
0.01	1	0.598112191999462	1	49	345.452123036001	NA	1	0	3.4	1	334.264889374001	334.863001566	"17"	12059.542888365	12011.079044097	1.5	0.1
0.01	1	0.123066252999706	1	49	345.452123036001	NA	1	0	3.4	1	335.099372369001	335.222438622	"17"	12059.542888365	12011.079044097	1.5	0.1
0.01	1	0.119855216998985	1	49	345.452123036001	NA	1	0	3.4	1	335.450076935002	335.569932152001	"17"	12059.542888365	12011.079044097	1.5	0.1
0.01	1	0.15103288300088	1	49	345.452123036001	NA	1	0	3.4	1	335.80061634	335.951649223001	"17"	12059.542888365	12011.079044097	1.5	0.1
0.01	1	0.165944760999992	1	49	345.452123036001	NA	1	0	3.4	1	336.184556740001	336.350501501001	"17"	12059.542888365	12011.079044097	1.5	0.1
0.01	1	0.150090283999816	1	49	345.452123036001	NA	1	0	3.4	1	336.585261571001	336.735351855001	"17"	12059.542888365	12011.079044097	1.5	0.1
0.01	1	0.13480299999901	1	49	345.452123036001	NA	1	0	3.4	1	336.969334987001	337.104137987	"17"	12059.542888365	12011.079044097	1.5	0.1
0.01	1	0.182423350001045	1	49	345.452123036001	NA	1	0	3.4	1	337.336542163001	337.518965513002	"17"	12059.542888365	12011.079044097	1.5	0.1
0.01	1	0.118392106000101	1	49	345.452123036001	NA	1	0	3.4	1	337.753957327001	337.872349433001	"17"	12059.542888365	12011.079044097	1.5	0.1
0.01	1	0.111147626001184	1	49	345.452123036001	NA	1	0	3.4	1	338.104490562	338.215638188001	"17"	12059.542888365	12011.079044097	1.5	0.1
0.01	1	0.466044282999064	1	49	345.452123036001	NA	1	0	3.4	1	338.438297230001	338.904341513	"17"	12059.542888365	12011.079044097	1.5	0.1
0.01	1	0.132375860999673	1	49	345.452123036001	NA	1	0	3.4	1	339.139489585001	339.271865446	"17"	12059.542888365	12011.079044097	1.5	0.1
0.01	1	0.108883488999709	1	49	345.452123036001	NA	1	0	3.4	1	339.506829162001	339.615712651001	"17"	12059.542888365	12011.079044097	1.5	0.1
0.01	1	0.143133666999347	1	49	345.452123036001	NA	1	0	3.4	1	339.840660215001	339.983793882	"17"	12059.542888365	12011.079044097	1.5	0.1
0.01	1	0.126631192999412	1	49	345.452123036001	NA	1	0	3.4	1	340.207970774001	340.334601967001	"17"	12059.542888365	12011.079044097	1.5	0.1
0.01	1	0.160063350998826	1	49	345.452123036001	NA	1	0	3.4	1	340.558538807001	340.718602158	"17"	12059.542888365	12011.079044097	1.5	0.1
0.01	1	0.105099427999448	1	49	345.452123036001	NA	1	0	3.4	1	340.942628291001	341.047727719	"17"	12059.542888365	12011.079044097	1.5	0.1
0.01	1	0.123932266000338	1	49	345.452123036001	NA	1	0	3.4	1	341.276463849001	341.400396115001	"17"	12059.542888365	12011.079044097	1.5	0.1
0.01	1	0.125223830998948	1	49	345.452123036001	NA	1	0	3.4	1	341.627285895001	341.752509726	"17"	12059.542888365	12011.079044097	1.5	0.1
0.01	1	0.149980259000586	1	49	345.452123036001	NA	1	0	3.4	1	341.977618704001	342.127598963001	"17"	12059.542888365	12011.079044097	1.5	0.1
0.01	1	0.492750999999771	1	49	345.452123036001	NA	1	0	3.4	1	342.361626155001	342.854377155001	"17"	12059.542888365	12011.079044097	1.5	0.1
0.01	1	0.151203469000393	1	49	345.452123036001	NA	1	0	3.4	1	343.079439563	343.230643032	"17"	12059.542888365	12011.079044097	1.5	0.1
0.01	1	0.120014709000316	1	49	345.452123036001	NA	1	0	3.4	1	343.463475697001	343.583490406001	"17"	12059.542888365	12011.079044097	1.5	0.1
0.01	1	0.122000713001398	1	49	345.452123036001	NA	1	0	3.4	1	343.814181824	343.936182537002	"17"	12059.542888365	12011.079044097	1.5	0.1
0.01	1	0.154634061000252	1	49	345.452123036001	NA	1	0	3.4	1	344.16466516	344.319299221001	"17"	12059.542888365	12011.079044097	1.5	0.1
0.01	1	0.146408279000752	1	49	345.452123036001	NA	1	0	3.4	1	344.548595722001	344.695004001002	"17"	12059.542888365	12011.079044097	1.5	0.1
0.01	1	0.113927002999844	1	49	345.452123036001	NA	1	0	3.4	1	344.932644250001	345.046571253	"17"	12059.542888365	12011.079044097	1.5	0.1
0.01	1	0.0523304959988309	1	49	345.452123036001	NA	1	0	3.4	1	345.283156643001	345.335487139	"17"	12059.542888365	12011.079044097	1.5	0.1
0.01	1	0.392716067999572	1	17	353.448361890001	NA	1	0	3.4	1	347.503568353	347.896284421	"18"	12059.542888365	12011.079044097	1.5	0.1
0.01	1	0.0864104700012831	1	17	353.448361890001	NA	1	0	3.4	1	348.121375883	348.207786353001	"18"	12059.542888365	12011.079044097	1.5	0.1
0.01	1	0.120589000000109	1	17	353.448361890001	NA	1	0	3.4	1	348.438460165	348.559049165	"18"	12059.542888365	12011.079044097	1.5	0.1
0.01	1	0.113628787001289	1	17	353.448361890001	NA	1	0	3.4	1	348.789125129	348.902753916002	"18"	12059.542888365	12011.079044097	1.5	0.1
0.01	1	0.0845519410013367	1	17	353.448361890001	NA	1	0	3.4	1	349.139723999	349.224275940001	"18"	12059.542888365	12011.079044097	1.5	0.1
0.01	1	0.0541699650002556	1	17	353.448361890001	NA	1	0	3.4	1	349.45680953	349.510979495	"18"	12059.542888365	12011.079044097	1.5	0.1
0.01	1	0.066458789000535	1	17	353.448361890001	NA	1	0	3.4	1	349.740611695001	349.807070484001	"18"	12059.542888365	12011.079044097	1.5	0.1
0.01	1	0.0551632020014949	1	17	353.448361890001	NA	1	0	3.4	1	350.041181019	350.096344221001	"18"	12059.542888365	12011.079044097	1.5	0.1
0.01	1	0.05774184800066	1	17	353.448361890001	NA	1	0	3.4	1	350.325049053001	350.382790901001	"18"	12059.542888365	12011.079044097	1.5	0.1
0.01	1	0.0873866069996438	1	17	353.448361890001	NA	1	0	3.4	1	350.608749269	350.696135876	"18"	12059.542888365	12011.079044097	1.5	0.1
0.01	1	0.409612217999893	1	17	353.448361890001	NA	1	0	3.4	1	350.926143229	351.335755447	"18"	12059.542888365	12011.079044097	1.5	0.1
0.01	1	0.134345544000098	1	17	353.448361890001	NA	1	0	3.4	1	351.560418432	351.694763976	"18"	12059.542888365	12011.079044097	1.5	0.1
0.01	1	0.0472563799994532	1	17	353.448361890001	NA	1	0	3.4	1	351.927666432	351.974922812	"18"	12059.542888365	12011.079044097	1.5	0.1
0.01	1	0.123748276000697	1	17	353.448361890001	NA	1	0	3.4	1	352.211582165	352.335330441001	"18"	12059.542888365	12011.079044097	1.5	0.1
0.01	1	0.0780599930003518	1	17	353.448361890001	NA	1	0	3.4	1	352.562079290001	352.640139283001	"18"	12059.542888365	12011.079044097	1.5	0.1
0.01	1	0.121990556001037	1	17	353.448361890001	NA	1	0	3.4	1	352.862526642	352.984517198001	"18"	12059.542888365	12011.079044097	1.5	0.1
0.01	1	0.129804819998753	1	17	353.448361890001	NA	1	0	3.4	1	353.213138083001	353.342942903	"18"	12059.542888365	12011.079044097	1.5	0.1
0.01	1	0.315287696001178	1	20	361.180458430001	NA	1	0	3.4	1	355.500351683	355.815639379001	"19"	12059.542888365	12011.079044097	1.5	0.1
0.01	1	0.0602045899995574	1	20	361.180458430001	NA	1	0	3.4	1	356.051428686002	356.111633276001	"19"	12059.542888365	12011.079044097	1.5	0.1
0.01	1	0.0491595570001664	1	20	361.180458430001	NA	1	0	3.4	1	356.335168990001	356.384328547001	"19"	12059.542888365	12011.079044097	1.5	0.1
0.01	1	0.0375868930004799	1	20	361.180458430001	NA	1	0	3.4	1	356.618936957	356.656523850001	"19"	12059.542888365	12011.079044097	1.5	0.1
