"payoff.level"	"balloon"	"rt"	"resp"	"explode.trial"	"explode.time"	"finish.time"	"exploded"	"trial.total"	"cumulative.total"	"finished"	"trial.start"	"trial.end"	"trial.num"	"secs"	"start.time"	"iti"	"isi"
0.01	1	7.08012329300072	1	64	NA	93.9285011149987	0	0.5	0.5	1	0.0223454129991296	7.10246870599985	"1"	16900.922788044	16894.250196161	1.5	0.1
0.01	1	1.08448298300027	1	64	NA	93.9285011149987	0	0.5	0.5	1	7.40150431199982	8.48598729500009	"1"	16900.922788044	16894.250196161	1.5	0.1
0.01	1	1.4770751420001	1	64	NA	93.9285011149987	0	0.5	0.5	1	8.72037013299996	10.1974452750001	"1"	16900.922788044	16894.250196161	1.5	0.1
0.01	1	1.35855099699984	1	64	NA	93.9285011149987	0	0.5	0.5	1	10.4231641379993	11.7817151349991	"1"	16900.922788044	16894.250196161	1.5	0.1
0.01	1	1.42865623599937	1	64	NA	93.9285011149987	0	0.5	0.5	1	12.0091243829993	13.4377806189987	"1"	16900.922788044	16894.250196161	1.5	0.1
0.01	1	1.55973041299876	1	64	NA	93.9285011149987	0	0.5	0.5	1	13.6786870209999	15.2384174339986	"1"	16900.922788044	16894.250196161	1.5	0.1
0.01	1	1.58100121700045	1	64	NA	93.9285011149987	0	0.5	0.5	1	15.4650019029996	17.04600312	"1"	16900.922788044	16894.250196161	1.5	0.1
0.01	1	2.30572042300082	1	64	NA	93.9285011149987	0	0.5	0.5	1	17.2846844879987	19.5904049109995	"1"	16900.922788044	16894.250196161	1.5	0.1
0.01	1	1.8792437409993	1	64	NA	93.9285011149987	0	0.5	0.5	1	19.8222902849993	21.7015340259986	"1"	16900.922788044	16894.250196161	1.5	0.1
0.01	1	2.26287219900041	1	64	NA	93.9285011149987	0	0.5	0.5	1	21.9425807129992	24.2054529119996	"1"	16900.922788044	16894.250196161	1.5	0.1
0.01	1	2.6483843799997	1	64	NA	93.9285011149987	0	0.5	0.5	1	24.4301053999989	27.0784897799986	"1"	16900.922788044	16894.250196161	1.5	0.1
0.01	1	2.11276644700047	1	64	NA	93.9285011149987	0	0.5	0.5	1	27.318334784999	29.4311012319995	"1"	16900.922788044	16894.250196161	1.5	0.1
0.01	1	1.5823729650001	1	64	NA	93.9285011149987	0	0.5	0.5	1	29.6556916289992	31.2380645939993	"1"	16900.922788044	16894.250196161	1.5	0.1
0.01	1	1.91458290700029	1	64	NA	93.9285011149987	0	0.5	0.5	1	31.4752707279986	33.3898536349989	"1"	16900.922788044	16894.250196161	1.5	0.1
0.01	1	1.83347488099935	1	64	NA	93.9285011149987	0	0.5	0.5	1	33.6122368329998	35.4457117139991	"1"	16900.922788044	16894.250196161	1.5	0.1
0.01	1	2.04354242900081	1	64	NA	93.9285011149987	0	0.5	0.5	1	35.6823602449986	37.7259026739994	"1"	16900.922788044	16894.250196161	1.5	0.1
0.01	1	1.98170293000112	1	64	NA	93.9285011149987	0	0.5	0.5	1	37.9529214099985	39.9346243399996	"1"	16900.922788044	16894.250196161	1.5	0.1
0.01	1	1.69681088899961	1	64	NA	93.9285011149987	0	0.5	0.5	1	40.1732414359994	41.8700523249991	"1"	16900.922788044	16894.250196161	1.5	0.1
0.01	1	2.15380899299998	1	64	NA	93.9285011149987	0	0.5	0.5	1	42.0932187049984	44.2470276979984	"1"	16900.922788044	16894.250196161	1.5	0.1
0.01	1	1.61295054400034	1	64	NA	93.9285011149987	0	0.5	0.5	1	44.4805701649984	46.0935207089988	"1"	16900.922788044	16894.250196161	1.5	0.1
0.01	1	1.91305758900126	1	64	NA	93.9285011149987	0	0.5	0.5	1	46.3170469879988	48.230104577	"1"	16900.922788044	16894.250196161	1.5	0.1
0.01	1	1.52799882200088	1	64	NA	93.9285011149987	0	0.5	0.5	1	48.4705849379989	49.9985837599997	"1"	16900.922788044	16894.250196161	1.5	0.1
0.01	1	1.31954977500027	1	64	NA	93.9285011149987	0	0.5	0.5	1	50.2234599579988	51.5430097329991	"1"	16900.922788044	16894.250196161	1.5	0.1
0.01	1	1.46950284499871	1	64	NA	93.9285011149987	0	0.5	0.5	1	51.776098843	53.2456016879987	"1"	16900.922788044	16894.250196161	1.5	0.1
0.01	1	1.30328568200093	1	64	NA	93.9285011149987	0	0.5	0.5	1	53.4790285749987	54.7823142569996	"1"	16900.922788044	16894.250196161	1.5	0.1
0.01	1	1.80743010699916	1	64	NA	93.9285011149987	0	0.5	0.5	1	55.0148386929995	56.8222687999987	"1"	16900.922788044	16894.250196161	1.5	0.1
0.01	1	1.51559692699993	1	64	NA	93.9285011149987	0	0.5	0.5	1	57.0516574649992	58.5672543919991	"1"	16900.922788044	16894.250196161	1.5	0.1
0.01	1	1.12124329799917	1	64	NA	93.9285011149987	0	0.5	0.5	1	58.8046070479995	59.9258503459987	"1"	16900.922788044	16894.250196161	1.5	0.1
0.01	1	1.4979132110002	1	64	NA	93.9285011149987	0	0.5	0.5	1	60.1568927499993	61.6548059609995	"1"	16900.922788044	16894.250196161	1.5	0.1
0.01	1	1.55371865599955	1	64	NA	93.9285011149987	0	0.5	0.5	1	61.8930777099995	63.446796365999	"1"	16900.922788044	16894.250196161	1.5	0.1
0.01	1	1.15833504399961	1	64	NA	93.9285011149987	0	0.5	0.5	1	63.6794526499998	64.8377876939994	"1"	16900.922788044	16894.250196161	1.5	0.1
0.01	1	1.45229097699848	1	64	NA	93.9285011149987	0	0.5	0.5	1	65.06520155	66.5174925269985	"1"	16900.922788044	16894.250196161	1.5	0.1
0.01	1	1.09471167899937	1	64	NA	93.9285011149987	0	0.5	0.5	1	66.7514248179996	67.846136496999	"1"	16900.922788044	16894.250196161	1.5	0.1
0.01	1	1.39207012800034	1	64	NA	93.9285011149987	0	0.5	0.5	1	68.0704215329988	69.4624916609991	"1"	16900.922788044	16894.250196161	1.5	0.1
0.01	1	1.78859364800155	1	64	NA	93.9285011149987	0	0.5	0.5	1	69.6895476229984	71.4781412709999	"1"	16900.922788044	16894.250196161	1.5	0.1
0.01	1	1.40773613999954	1	64	NA	93.9285011149987	0	0.5	0.5	1	71.7096966680001	73.1174328079996	"1"	16900.922788044	16894.250196161	1.5	0.1
0.01	1	1.19632045400067	1	64	NA	93.9285011149987	0	0.5	0.5	1	73.3457745679989	74.5420950219996	"1"	16900.922788044	16894.250196161	1.5	0.1
0.01	1	1.24891204200139	1	64	NA	93.9285011149987	0	0.5	0.5	1	74.7814607329983	76.0303727749997	"1"	16900.922788044	16894.250196161	1.5	0.1
0.01	1	1.34602161199837	1	64	NA	93.9285011149987	0	0.5	0.5	1	76.267347428	77.6133690399984	"1"	16900.922788044	16894.250196161	1.5	0.1
0.01	1	1.65658335099943	1	64	NA	93.9285011149987	0	0.5	0.5	1	77.8532882849995	79.5098716359989	"1"	16900.922788044	16894.250196161	1.5	0.1
0.01	1	1.30617877899931	1	64	NA	93.9285011149987	0	0.5	0.5	1	79.7398472719997	81.046026050999	"1"	16900.922788044	16894.250196161	1.5	0.1
0.01	1	0.978691596001227	1	64	NA	93.9285011149987	0	0.5	0.5	1	81.2758156579985	82.2545072539997	"1"	16900.922788044	16894.250196161	1.5	0.1
0.01	1	1.01632958899972	1	64	NA	93.9285011149987	0	0.5	0.5	1	82.4777875229993	83.494117111999	"1"	16900.922788044	16894.250196161	1.5	0.1
0.01	1	0.931995466999069	1	64	NA	93.9285011149987	0	0.5	0.5	1	83.7298994079993	84.6618948749983	"1"	16900.922788044	16894.250196161	1.5	0.1
0.01	1	1.25223640399963	1	64	NA	93.9285011149987	0	0.5	0.5	1	84.8984676330001	86.1507040369997	"1"	16900.922788044	16894.250196161	1.5	0.1
0.01	1	1.03731585700007	1	64	NA	93.9285011149987	0	0.5	0.5	1	86.3843986579996	87.4217145149996	"1"	16900.922788044	16894.250196161	1.5	0.1
0.01	1	1.36925469900052	1	64	NA	93.9285011149987	0	0.5	0.5	1	87.6531499779994	89.0224046769999	"1"	16900.922788044	16894.250196161	1.5	0.1
0.01	1	0.838577493999765	1	64	NA	93.9285011149987	0	0.5	0.5	1	89.2558967129989	90.0944742069987	"1"	16900.922788044	16894.250196161	1.5	0.1
0.01	1	0.99434189600106	1	64	NA	93.9285011149987	0	0.5	0.5	1	90.3243863849984	91.3187282809995	"1"	16900.922788044	16894.250196161	1.5	0.1
0.01	1	0.959032010001465	1	64	NA	93.9285011149987	0	0.5	0.5	1	91.5429627879985	92.5019947979999	"1"	16900.922788044	16894.250196161	1.5	0.1
0.01	1	1.19851342199945	2	64	NA	93.9285011149987	0	0.5	0.5	1	92.728303722999	93.9268171449985	"1"	16900.922788044	16894.250196161	1.5	0.1
0.01	1	0.741800814999806	1	102	201.732375182999	NA	1	0	0.5	1	95.9838113429996	96.7256121579994	"2"	16900.922788044	16894.250196161	1.5	0.1
0.01	1	0.582178463000673	1	102	201.732375182999	NA	1	0	0.5	1	96.9521882249992	97.5343666879999	"2"	16900.922788044	16894.250196161	1.5	0.1
0.01	1	0.523549867000838	1	102	201.732375182999	NA	1	0	0.5	1	97.7702232079992	98.293773075	"2"	16900.922788044	16894.250196161	1.5	0.1
0.01	1	0.485750362000545	1	102	201.732375182999	NA	1	0	0.5	1	98.5215418649987	99.0072922269992	"2"	16900.922788044	16894.250196161	1.5	0.1
0.01	1	0.455025778001072	1	102	201.732375182999	NA	1	0	0.5	1	99.2392511999988	99.6942769779998	"2"	16900.922788044	16894.250196161	1.5	0.1
0.01	1	0.403375052999763	1	102	201.732375182999	NA	1	0	0.5	1	99.923913319999	100.327288372999	"2"	16900.922788044	16894.250196161	1.5	0.1
0.01	1	0.583095772000888	1	102	201.732375182999	NA	1	0	0.5	1	100.558209732999	101.141305505	"2"	16900.922788044	16894.250196161	1.5	0.1
0.01	1	0.718110506999437	1	102	201.732375182999	NA	1	0	0.5	1	101.376222465	102.094332971999	"2"	16900.922788044	16894.250196161	1.5	0.1
0.01	1	0.942743542000244	1	102	201.732375182999	NA	1	0	0.5	1	102.327806423	103.270549965	"2"	16900.922788044	16894.250196161	1.5	0.1
0.01	1	0.533622958000706	1	102	201.732375182999	NA	1	0	0.5	1	103.496514098999	104.030137057	"2"	16900.922788044	16894.250196161	1.5	0.1
0.01	1	0.622534128000552	1	102	201.732375182999	NA	1	0	0.5	1	104.264480424999	104.887014553	"2"	16900.922788044	16894.250196161	1.5	0.1
0.01	1	0.577956098999493	1	102	201.732375182999	NA	1	0	0.5	1	105.115886868	105.693842966999	"2"	16900.922788044	16894.250196161	1.5	0.1
0.01	1	0.896308872999725	1	102	201.732375182999	NA	1	0	0.5	1	105.917286778	106.813595651	"2"	16900.922788044	16894.250196161	1.5	0.1
0.01	1	0.585642342000938	1	102	201.732375182999	NA	1	0	0.5	1	107.035711511999	107.621353854	"2"	16900.922788044	16894.250196161	1.5	0.1
0.01	1	0.673392297998362	1	102	201.732375182999	NA	1	0	0.5	1	107.853897772	108.527290069998	"2"	16900.922788044	16894.250196161	1.5	0.1
0.01	1	0.667697959999714	1	102	201.732375182999	NA	1	0	0.5	1	108.755320188999	109.423018148998	"2"	16900.922788044	16894.250196161	1.5	0.1
0.01	1	0.596893428999465	1	102	201.732375182999	NA	1	0	0.5	1	109.656792123	110.253685551999	"2"	16900.922788044	16894.250196161	1.5	0.1
0.01	1	0.627003798001169	1	102	201.732375182999	NA	1	0	0.5	1	110.491528572999	111.118532371	"2"	16900.922788044	16894.250196161	1.5	0.1
0.01	1	0.663367477000065	1	102	201.732375182999	NA	1	0	0.5	1	111.35983016	112.023197637	"2"	16900.922788044	16894.250196161	1.5	0.1
0.01	1	0.649047214999882	1	102	201.732375182999	NA	1	0	0.5	1	112.261256317999	112.910303532999	"2"	16900.922788044	16894.250196161	1.5	0.1
0.01	1	0.644916457000363	1	102	201.732375182999	NA	1	0	0.5	1	113.14608515	113.791001607	"2"	16900.922788044	16894.250196161	1.5	0.1
0.01	1	0.505202959999224	1	102	201.732375182999	NA	1	0	0.5	1	114.014114199999	114.519317159999	"2"	16900.922788044	16894.250196161	1.5	0.1
0.01	1	0.881092597999668	1	102	201.732375182999	NA	1	0	0.5	1	114.74877837	115.629870968	"2"	16900.922788044	16894.250196161	1.5	0.1
0.01	1	0.53118202800033	1	102	201.732375182999	NA	1	0	0.5	1	115.867272924999	116.398454953	"2"	16900.922788044	16894.250196161	1.5	0.1
0.01	1	0.379925322999043	1	102	201.732375182999	NA	1	0	0.5	1	116.635220425	117.015145747999	"2"	16900.922788044	16894.250196161	1.5	0.1
0.01	1	0.762353799000266	1	102	201.732375182999	NA	1	0	0.5	1	117.252913517999	118.015267317	"2"	16900.922788044	16894.250196161	1.5	0.1
0.01	1	1.18493405799927	1	102	201.732375182999	NA	1	0	0.5	1	118.237914507999	119.422848565999	"2"	16900.922788044	16894.250196161	1.5	0.1
0.01	1	1.19811246999961	1	102	201.732375182999	NA	1	0	0.5	1	119.657138348999	120.855250818999	"2"	16900.922788044	16894.250196161	1.5	0.1
0.01	1	0.77654524799982	1	102	201.732375182999	NA	1	0	0.5	1	121.092782463	121.869327711	"2"	16900.922788044	16894.250196161	1.5	0.1
0.01	1	0.807039941999392	1	102	201.732375182999	NA	1	0	0.5	1	122.09446065	122.901500591999	"2"	16900.922788044	16894.250196161	1.5	0.1
0.01	1	0.908646790001512	1	102	201.732375182999	NA	1	0	0.5	1	123.129550492999	124.038197283	"2"	16900.922788044	16894.250196161	1.5	0.1
0.01	1	0.876664405001065	1	102	201.732375182999	NA	1	0	0.5	1	124.264749172999	125.141413578	"2"	16900.922788044	16894.250196161	1.5	0.1
0.01	1	0.655346995999935	1	102	201.732375182999	NA	1	0	0.5	1	125.366673982999	126.022020978999	"2"	16900.922788044	16894.250196161	1.5	0.1
0.01	1	0.707256714998948	1	102	201.732375182999	NA	1	0	0.5	1	126.251413033	126.958669747999	"2"	16900.922788044	16894.250196161	1.5	0.1
0.01	1	0.556905437999376	1	102	201.732375182999	NA	1	0	0.5	1	127.186380384999	127.743285822999	"2"	16900.922788044	16894.250196161	1.5	0.1
0.01	1	1.14649886299958	1	102	201.732375182999	NA	1	0	0.5	1	127.971013942999	129.117512805999	"2"	16900.922788044	16894.250196161	1.5	0.1
0.01	1	0.602124372000617	1	102	201.732375182999	NA	1	0	0.5	1	129.356751842999	129.958876215	"2"	16900.922788044	16894.250196161	1.5	0.1
0.01	1	0.487426018999031	1	102	201.732375182999	NA	1	0	0.5	1	130.191441153	130.678867171999	"2"	16900.922788044	16894.250196161	1.5	0.1
0.01	1	0.56911723399935	1	102	201.732375182999	NA	1	0	0.5	1	130.909286503	131.478403736999	"2"	16900.922788044	16894.250196161	1.5	0.1
0.01	1	1.53561758199976	1	102	201.732375182999	NA	1	0	0.5	1	131.710622032999	133.246239614999	"2"	16900.922788044	16894.250196161	1.5	0.1
0.01	1	1.34211663399947	1	102	201.732375182999	NA	1	0	0.5	1	133.480292627999	134.822409261998	"2"	16900.922788044	16894.250196161	1.5	0.1
0.01	1	0.765732326999569	1	102	201.732375182999	NA	1	0	0.5	1	135.049597923	135.81533025	"2"	16900.922788044	16894.250196161	1.5	0.1
0.01	1	0.73977392300003	1	102	201.732375182999	NA	1	0	0.5	1	136.051293564999	136.791067487999	"2"	16900.922788044	16894.250196161	1.5	0.1
0.01	1	0.579707475999385	1	102	201.732375182999	NA	1	0	0.5	1	137.01962082	137.599328295999	"2"	16900.922788044	16894.250196161	1.5	0.1
0.01	1	0.680660701000306	1	102	201.732375182999	NA	1	0	0.5	1	137.837617873	138.518278574	"2"	16900.922788044	16894.250196161	1.5	0.1
0.01	1	0.553687010999056	1	102	201.732375182999	NA	1	0	0.5	1	138.755826883	139.309513893999	"2"	16900.922788044	16894.250196161	1.5	0.1
0.01	1	0.650403202998859	1	102	201.732375182999	NA	1	0	0.5	1	139.540467235	140.190870437998	"2"	16900.922788044	16894.250196161	1.5	0.1
0.01	1	0.565845172999616	1	102	201.732375182999	NA	1	0	0.5	1	140.425274358	140.991119531	"2"	16900.922788044	16894.250196161	1.5	0.1
0.01	1	0.562895541999751	1	102	201.732375182999	NA	1	0	0.5	1	141.226621547999	141.789517089999	"2"	16900.922788044	16894.250196161	1.5	0.1
0.01	1	1.07358355700126	1	102	201.732375182999	NA	1	0	0.5	1	142.027942682998	143.10152624	"2"	16900.922788044	16894.250196161	1.5	0.1
0.01	1	1.65994693900029	1	102	201.732375182999	NA	1	0	0.5	1	143.330151017999	144.990097956999	"2"	16900.922788044	16894.250196161	1.5	0.1
0.01	1	0.644959358998676	1	102	201.732375182999	NA	1	0	0.5	1	145.2166528	145.861612158998	"2"	16900.922788044	16894.250196161	1.5	0.1
0.01	1	0.881269432999034	1	102	201.732375182999	NA	1	0	0.5	1	146.101536998	146.982806430999	"2"	16900.922788044	16894.250196161	1.5	0.1
0.01	1	0.610661509999773	1	102	201.732375182999	NA	1	0	0.5	1	147.220032752999	147.830694262999	"2"	16900.922788044	16894.250196161	1.5	0.1
0.01	1	0.791402962000575	1	102	201.732375182999	NA	1	0	0.5	1	148.054868509998	148.846271471999	"2"	16900.922788044	16894.250196161	1.5	0.1
0.01	1	0.693328657998791	1	102	201.732375182999	NA	1	0	0.5	1	149.073216273	149.766544930999	"2"	16900.922788044	16894.250196161	1.5	0.1
0.01	1	0.605273707999004	1	102	201.732375182999	NA	1	0	0.5	1	150.008112752999	150.613386460998	"2"	16900.922788044	16894.250196161	1.5	0.1
0.01	1	0.868145692000326	1	102	201.732375182999	NA	1	0	0.5	1	150.842832382999	151.710978075	"2"	16900.922788044	16894.250196161	1.5	0.1
0.01	1	0.812814801000059	1	102	201.732375182999	NA	1	0	0.5	1	151.9446792	152.757494001	"2"	16900.922788044	16894.250196161	1.5	0.1
0.01	1	1.6181831899994	1	102	201.732375182999	NA	1	0	0.5	1	152.996552985	154.614736174999	"2"	16900.922788044	16894.250196161	1.5	0.1
0.01	1	0.869186490001084	1	102	201.732375182999	NA	1	0	0.5	1	154.849585037999	155.718771528	"2"	16900.922788044	16894.250196161	1.5	0.1
0.01	1	0.687229428000137	1	102	201.732375182999	NA	1	0	0.5	1	155.951487134998	156.638716562999	"2"	16900.922788044	16894.250196161	1.5	0.1
0.01	1	0.576723056999981	1	102	201.732375182999	NA	1	0	0.5	1	156.869591707999	157.446314764999	"2"	16900.922788044	16894.250196161	1.5	0.1
0.01	1	1.00712781100083	1	102	201.732375182999	NA	1	0	0.5	1	157.670921809999	158.678049620999	"2"	16900.922788044	16894.250196161	1.5	0.1
0.01	1	0.756605022999793	1	102	201.732375182999	NA	1	0	0.5	1	158.906397962999	159.663002985999	"2"	16900.922788044	16894.250196161	1.5	0.1
0.01	1	0.659400935001031	1	102	201.732375182999	NA	1	0	0.5	1	159.891407587998	160.550808522999	"2"	16900.922788044	16894.250196161	1.5	0.1
0.01	1	0.80515186699995	1	102	201.732375182999	NA	1	0	0.5	1	160.776208476	161.581360343	"2"	16900.922788044	16894.250196161	1.5	0.1
0.01	1	0.554092026999569	1	102	201.732375182999	NA	1	0	0.5	1	161.811324524999	162.365416551998	"2"	16900.922788044	16894.250196161	1.5	0.1
0.01	1	0.59494837100101	1	102	201.732375182999	NA	1	0	0.5	1	162.595929677998	163.190878048999	"2"	16900.922788044	16894.250196161	1.5	0.1
0.01	1	1.34541264200016	1	102	201.732375182999	NA	1	0	0.5	1	163.413913269	164.759325911	"2"	16900.922788044	16894.250196161	1.5	0.1
0.01	1	0.830398670999784	1	102	201.732375182999	NA	1	0	0.5	1	164.999945899999	165.830344570999	"2"	16900.922788044	16894.250196161	1.5	0.1
0.01	1	0.64227801800007	1	102	201.732375182999	NA	1	0	0.5	1	166.068377722999	166.710655740999	"2"	16900.922788044	16894.250196161	1.5	0.1
0.01	1	0.885093247999976	1	102	201.732375182999	NA	1	0	0.5	1	166.936556569999	167.821649817999	"2"	16900.922788044	16894.250196161	1.5	0.1
0.01	1	0.878959837998991	1	102	201.732375182999	NA	1	0	0.5	1	168.055152293	168.934112130999	"2"	16900.922788044	16894.250196161	1.5	0.1
0.01	1	0.784676407998631	1	102	201.732375182999	NA	1	0	0.5	1	169.156998372	169.941674779999	"2"	16900.922788044	16894.250196161	1.5	0.1
0.01	1	0.822082018999936	1	102	201.732375182999	NA	1	0	0.5	1	170.175420674999	170.997502693999	"2"	16900.922788044	16894.250196161	1.5	0.1
0.01	1	1.84363055999893	1	102	201.732375182999	NA	1	0	0.5	1	171.227126103	173.070756662999	"2"	16900.922788044	16894.250196161	1.5	0.1
0.01	1	0.573591144000602	1	102	201.732375182999	NA	1	0	0.5	1	173.297300687998	173.870891831999	"2"	16900.922788044	16894.250196161	1.5	0.1
0.01	1	0.979637142001593	1	102	201.732375182999	NA	1	0	0.5	1	174.098621329998	175.078258472	"2"	16900.922788044	16894.250196161	1.5	0.1
0.01	1	1.14568310199866	1	102	201.732375182999	NA	1	0	0.5	1	175.317317858	176.463000959999	"2"	16900.922788044	16894.250196161	1.5	0.1
0.01	1	1.31987983499857	1	102	201.732375182999	NA	1	0	0.5	1	176.686364595	178.006244429998	"2"	16900.922788044	16894.250196161	1.5	0.1
0.01	1	2.09529123999891	1	102	201.732375182999	NA	1	0	0.5	1	178.238911163	180.334202402999	"2"	16900.922788044	16894.250196161	1.5	0.1
0.01	1	0.894339479998962	1	102	201.732375182999	NA	1	0	0.5	1	180.559474918	181.453814397999	"2"	16900.922788044	16894.250196161	1.5	0.1
0.01	1	0.935538937999809	1	102	201.732375182999	NA	1	0	0.5	1	181.694696748	182.630235686	"2"	16900.922788044	16894.250196161	1.5	0.1
0.01	1	0.854286422001678	1	102	201.732375182999	NA	1	0	0.5	1	182.863427302998	183.717713725	"2"	16900.922788044	16894.250196161	1.5	0.1
0.01	1	1.02641686499919	1	102	201.732375182999	NA	1	0	0.5	1	183.948553015	184.974969879999	"2"	16900.922788044	16894.250196161	1.5	0.1
0.01	1	0.973415741000281	1	102	201.732375182999	NA	1	0	0.5	1	185.200560547999	186.173976288999	"2"	16900.922788044	16894.250196161	1.5	0.1
0.01	1	0.883131914000842	1	102	201.732375182999	NA	1	0	0.5	1	186.402659357998	187.285791271999	"2"	16900.922788044	16894.250196161	1.5	0.1
0.01	1	0.724768530000802	1	102	201.732375182999	NA	1	0	0.5	1	187.521309972999	188.246078503	"2"	16900.922788044	16894.250196161	1.5	0.1
0.01	1	0.733054037000329	1	102	201.732375182999	NA	1	0	0.5	1	188.472871819999	189.205925856999	"2"	16900.922788044	16894.250196161	1.5	0.1
0.01	1	0.829561340999135	1	102	201.732375182999	NA	1	0	0.5	1	189.441082173	190.270643513999	"2"	16900.922788044	16894.250196161	1.5	0.1
0.01	1	0.633462080000754	1	102	201.732375182999	NA	1	0	0.5	1	190.509512097999	191.142974177999	"2"	16900.922788044	16894.250196161	1.5	0.1
0.01	1	0.65297502499925	1	102	201.732375182999	NA	1	0	0.5	1	191.377637848	192.030612872999	"2"	16900.922788044	16894.250196161	1.5	0.1
0.01	1	1.30372619500122	1	102	201.732375182999	NA	1	0	0.5	1	192.262637607999	193.566363803	"2"	16900.922788044	16894.250196161	1.5	0.1
0.01	1	0.567478738001228	1	102	201.732375182999	NA	1	0	0.5	1	193.798435527999	194.365914266	"2"	16900.922788044	16894.250196161	1.5	0.1
0.01	1	0.56589937300123	1	102	201.732375182999	NA	1	0	0.5	1	194.599690927998	195.165590301	"2"	16900.922788044	16894.250196161	1.5	0.1
0.01	1	0.469685783999012	1	102	201.732375182999	NA	1	0	0.5	1	195.401053995	195.870739778999	"2"	16900.922788044	16894.250196161	1.5	0.1
0.01	1	0.711281298999893	1	102	201.732375182999	NA	1	0	0.5	1	196.102305298999	196.813586597998	"2"	16900.922788044	16894.250196161	1.5	0.1
0.01	1	0.504179293000561	1	102	201.732375182999	NA	1	0	0.5	1	197.053824029999	197.558003323	"2"	16900.922788044	16894.250196161	1.5	0.1
0.01	1	0.594508433001465	1	102	201.732375182999	NA	1	0	0.5	1	197.788546094998	198.383054528	"2"	16900.922788044	16894.250196161	1.5	0.1
0.01	1	1.51911895099875	1	102	201.732375182999	NA	1	0	0.5	1	198.60646981	200.125588760999	"2"	16900.922788044	16894.250196161	1.5	0.1
0.01	1	1.25448037800015	1	102	201.732375182999	NA	1	0	0.5	1	200.359537879	201.614018257	"2"	16900.922788044	16894.250196161	1.5	0.1
0.01	1	3.0943273390003	1	97	NA	255.596754149999	0	0.75	1.25	1	203.781910598	206.876237937	"3"	16900.922788044	16894.250196161	1.5	0.1
0.01	1	0.314763455000502	1	97	NA	255.596754149999	0	0.75	1.25	1	207.104136147998	207.418899602999	"3"	16900.922788044	16894.250196161	1.5	0.1
0.01	1	0.364969330001259	1	97	NA	255.596754149999	0	0.75	1.25	1	207.655069994998	208.020039325	"3"	16900.922788044	16894.250196161	1.5	0.1
0.01	1	0.347957631000099	1	97	NA	255.596754149999	0	0.75	1.25	1	208.256123117999	208.604080748999	"3"	16900.922788044	16894.250196161	1.5	0.1
0.01	1	0.331847825000295	1	97	NA	255.596754149999	0	0.75	1.25	1	208.840298527999	209.172146352999	"3"	16900.922788044	16894.250196161	1.5	0.1
0.01	1	0.388405251000222	1	97	NA	255.596754149999	0	0.75	1.25	1	209.408024437998	209.796429688999	"3"	16900.922788044	16894.250196161	1.5	0.1
0.01	1	0.321497213000839	1	97	NA	255.596754149999	0	0.75	1.25	1	210.025718387998	210.347215600999	"3"	16900.922788044	16894.250196161	1.5	0.1
0.01	1	0.314744800998596	1	97	NA	255.596754149999	0	0.75	1.25	1	210.576618108	210.891362908998	"3"	16900.922788044	16894.250196161	1.5	0.1
0.01	1	0.331230522000624	1	97	NA	255.596754149999	0	0.75	1.25	1	211.127618729999	211.458849252	"3"	16900.922788044	16894.250196161	1.5	0.1
0.01	1	0.427902473000358	1	97	NA	255.596754149999	0	0.75	1.25	1	211.695298777999	212.123201250999	"3"	16900.922788044	16894.250196161	1.5	0.1
0.01	1	0.513578825999502	1	97	NA	255.596754149999	0	0.75	1.25	1	212.346324631999	212.859903457998	"3"	16900.922788044	16894.250196161	1.5	0.1
0.01	1	0.329679737998958	1	97	NA	255.596754149999	0	0.75	1.25	1	213.097526513	213.427206250999	"3"	16900.922788044	16894.250196161	1.5	0.1
0.01	1	0.363270964999174	1	97	NA	255.596754149999	0	0.75	1.25	1	213.665293329999	214.028564294998	"3"	16900.922788044	16894.250196161	1.5	0.1
0.01	1	0.354229582999324	1	97	NA	255.596754149999	0	0.75	1.25	1	214.266237258	214.620466840999	"3"	16900.922788044	16894.250196161	1.5	0.1
0.01	1	0.345586495001044	1	97	NA	255.596754149999	0	0.75	1.25	1	214.850561362999	215.196147858	"3"	16900.922788044	16894.250196161	1.5	0.1
0.01	1	0.346501562000412	1	97	NA	255.596754149999	0	0.75	1.25	1	215.418174422999	215.764675984999	"3"	16900.922788044	16894.250196161	1.5	0.1
0.01	1	0.353829207999297	1	97	NA	255.596754149999	0	0.75	1.25	1	216.002565015	216.356394222999	"3"	16900.922788044	16894.250196161	1.5	0.1
0.01	1	0.313759569000467	1	97	NA	255.596754149999	0	0.75	1.25	1	216.586710598	216.900470167	"3"	16900.922788044	16894.250196161	1.5	0.1
0.01	1	0.305076206999729	1	97	NA	255.596754149999	0	0.75	1.25	1	217.137697605	217.442773811999	"3"	16900.922788044	16894.250196161	1.5	0.1
0.01	1	0.323562381001466	1	97	NA	255.596754149999	0	0.75	1.25	1	217.671831537999	217.995393919	"3"	16900.922788044	16894.250196161	1.5	0.1
0.01	1	0.365639689000091	1	97	NA	255.596754149999	0	0.75	1.25	1	218.22286	218.588499689	"3"	16900.922788044	16894.250196161	1.5	0.1
0.01	1	0.339719668998441	1	97	NA	255.596754149999	0	0.75	1.25	1	218.823879058	219.163598726998	"3"	16900.922788044	16894.250196161	1.5	0.1
0.01	1	0.300408035000146	1	97	NA	255.596754149999	0	0.75	1.25	1	219.391499732999	219.691907768	"3"	16900.922788044	16894.250196161	1.5	0.1
0.01	1	0.349559831000079	1	97	NA	255.596754149999	0	0.75	1.25	1	219.925673047999	220.275232878999	"3"	16900.922788044	16894.250196161	1.5	0.1
0.01	1	0.333138323001549	1	97	NA	255.596754149999	0	0.75	1.25	1	220.510010569998	220.843148893	"3"	16900.922788044	16894.250196161	1.5	0.1
0.01	1	0.301807277000989	1	97	NA	255.596754149999	0	0.75	1.25	1	221.077767122999	221.3795744	"3"	16900.922788044	16894.250196161	1.5	0.1
0.01	1	0.334980607000034	1	97	NA	255.596754149999	0	0.75	1.25	1	221.611997028	221.946977635	"3"	16900.922788044	16894.250196161	1.5	0.1
0.01	1	0.41534207100085	1	97	NA	255.596754149999	0	0.75	1.25	1	222.179605219999	222.594947291	"3"	16900.922788044	16894.250196161	1.5	0.1
0.01	1	0.429824281998663	1	97	NA	255.596754149999	0	0.75	1.25	1	222.830587666	223.260411947998	"3"	16900.922788044	16894.250196161	1.5	0.1
0.01	1	0.657486149000761	1	97	NA	255.596754149999	0	0.75	1.25	1	223.498406782999	224.155892932	"3"	16900.922788044	16894.250196161	1.5	0.1
0.01	1	0.45197278500018	1	97	NA	255.596754149999	0	0.75	1.25	1	224.383269978	224.835242763	"3"	16900.922788044	16894.250196161	1.5	0.1
0.01	1	0.399795729999823	1	97	NA	255.596754149999	0	0.75	1.25	1	225.067664279999	225.467460009999	"3"	16900.922788044	16894.250196161	1.5	0.1
0.01	1	0.382202204998976	1	97	NA	255.596754149999	0	0.75	1.25	1	225.702133383	226.084335587999	"3"	16900.922788044	16894.250196161	1.5	0.1
0.01	1	0.332681227000649	1	97	NA	255.596754149999	0	0.75	1.25	1	226.319877889999	226.652559116999	"3"	16900.922788044	16894.250196161	1.5	0.1
0.01	1	0.316234792000614	1	97	NA	255.596754149999	0	0.75	1.25	1	226.887413647999	227.20364844	"3"	16900.922788044	16894.250196161	1.5	0.1
0.01	1	0.333948099998452	1	97	NA	255.596754149999	0	0.75	1.25	1	227.438344798	227.772292897998	"3"	16900.922788044	16894.250196161	1.5	0.1
0.01	1	0.325258415999997	1	97	NA	255.596754149999	0	0.75	1.25	1	228.005996733	228.331255149	"3"	16900.922788044	16894.250196161	1.5	0.1
0.01	1	0.31786155699956	1	97	NA	255.596754149999	0	0.75	1.25	1	228.557037203	228.874898759999	"3"	16900.922788044	16894.250196161	1.5	0.1
0.01	1	0.319350807998489	1	97	NA	255.596754149999	0	0.75	1.25	1	229.107951778	229.427302585998	"3"	16900.922788044	16894.250196161	1.5	0.1
0.01	1	0.425581479999892	1	97	NA	255.596754149999	0	0.75	1.25	1	229.658789149998	230.084370629998	"3"	16900.922788044	16894.250196161	1.5	0.1
0.01	1	0.357883819999188	1	97	NA	255.596754149999	0	0.75	1.25	1	230.309854903	230.667738722999	"3"	16900.922788044	16894.250196161	1.5	0.1
0.01	1	0.356675694998557	1	97	NA	255.596754149999	0	0.75	1.25	1	230.894214479	231.250890173998	"3"	16900.922788044	16894.250196161	1.5	0.1
0.01	1	0.333267674999661	1	97	NA	255.596754149999	0	0.75	1.25	1	231.478463842999	231.811731517999	"3"	16900.922788044	16894.250196161	1.5	0.1
0.01	1	0.301186192999012	1	97	NA	255.596754149999	0	0.75	1.25	1	232.046170097999	232.347356290999	"3"	16900.922788044	16894.250196161	1.5	0.1
0.01	1	0.294512389998999	1	97	NA	255.596754149999	0	0.75	1.25	1	232.580305598	232.874817987999	"3"	16900.922788044	16894.250196161	1.5	0.1
0.01	1	0.40108997400057	1	97	NA	255.596754149999	0	0.75	1.25	1	233.097972817999	233.499062792	"3"	16900.922788044	16894.250196161	1.5	0.1
0.01	1	0.326766657999542	1	97	NA	255.596754149999	0	0.75	1.25	1	233.732331133	234.059097791	"3"	16900.922788044	16894.250196161	1.5	0.1
0.01	1	0.296388377999392	1	97	NA	255.596754149999	0	0.75	1.25	1	234.283191523	234.579579900999	"3"	16900.922788044	16894.250196161	1.5	0.1
0.01	1	0.362359850998473	1	97	NA	255.596754149999	0	0.75	1.25	1	234.817411438	235.179771288998	"3"	16900.922788044	16894.250196161	1.5	0.1
0.01	1	0.440398545000789	1	97	NA	255.596754149999	0	0.75	1.25	1	235.418373029999	235.858771575	"3"	16900.922788044	16894.250196161	1.5	0.1
0.01	1	0.820659471999534	1	97	NA	255.596754149999	0	0.75	1.25	1	236.086242592999	236.906902064999	"3"	16900.922788044	16894.250196161	1.5	0.1
0.01	1	0.968785785998989	1	97	NA	255.596754149999	0	0.75	1.25	1	237.138001443	238.106787228999	"3"	16900.922788044	16894.250196161	1.5	0.1
0.01	1	0.519191696999769	1	97	NA	255.596754149999	0	0.75	1.25	1	238.340060212999	238.859251909998	"3"	16900.922788044	16894.250196161	1.5	0.1
0.01	1	0.664170398000351	1	97	NA	255.596754149999	0	0.75	1.25	1	239.091272448999	239.755442846999	"3"	16900.922788044	16894.250196161	1.5	0.1
0.01	1	0.458972436999829	1	97	NA	255.596754149999	0	0.75	1.25	1	239.992842297999	240.451814734999	"3"	16900.922788044	16894.250196161	1.5	0.1
0.01	1	0.470407587001318	1	97	NA	255.596754149999	0	0.75	1.25	1	240.677386587999	241.147794175	"3"	16900.922788044	16894.250196161	1.5	0.1
0.01	1	0.384488413999861	1	97	NA	255.596754149999	0	0.75	1.25	1	241.378545222999	241.763033636998	"3"	16900.922788044	16894.250196161	1.5	0.1
0.01	1	0.375116876000902	1	97	NA	255.596754149999	0	0.75	1.25	1	241.996218904998	242.371335780999	"3"	16900.922788044	16894.250196161	1.5	0.1
0.01	1	0.407383679001214	1	97	NA	255.596754149999	0	0.75	1.25	1	242.597256117999	243.004639797	"3"	16900.922788044	16894.250196161	1.5	0.1
0.01	1	0.403536420000819	1	97	NA	255.596754149999	0	0.75	1.25	1	243.231625269998	243.635161689999	"3"	16900.922788044	16894.250196161	1.5	0.1
0.01	1	0.360985497000001	1	97	NA	255.596754149999	0	0.75	1.25	1	243.866081832999	244.227067329999	"3"	16900.922788044	16894.250196161	1.5	0.1
0.01	1	0.37648334000005	1	97	NA	255.596754149999	0	0.75	1.25	1	244.466950593	244.843433933	"3"	16900.922788044	16894.250196161	1.5	0.1
0.01	1	0.503366512999492	1	97	NA	255.596754149999	0	0.75	1.25	1	245.067955318	245.571321830999	"3"	16900.922788044	16894.250196161	1.5	0.1
0.01	1	0.456474512999193	1	97	NA	255.596754149999	0	0.75	1.25	1	245.802631357999	246.259105870999	"3"	16900.922788044	16894.250196161	1.5	0.1
0.01	1	0.380221474999416	1	97	NA	255.596754149999	0	0.75	1.25	1	246.487023879999	246.867245354999	"3"	16900.922788044	16894.250196161	1.5	0.1
0.01	1	0.379743388999486	1	97	NA	255.596754149999	0	0.75	1.25	1	247.104747547999	247.484490936999	"3"	16900.922788044	16894.250196161	1.5	0.1
0.01	1	0.377550321998569	1	97	NA	255.596754149999	0	0.75	1.25	1	247.722614818	248.100165139998	"3"	16900.922788044	16894.250196161	1.5	0.1
0.01	1	0.959948752000855	1	97	NA	255.596754149999	0	0.75	1.25	1	248.323482279999	249.283431031999	"3"	16900.922788044	16894.250196161	1.5	0.1
0.01	1	0.51072553800077	1	97	NA	255.596754149999	0	0.75	1.25	1	249.508886034999	250.019611573	"3"	16900.922788044	16894.250196161	1.5	0.1
0.01	1	0.496048729999529	1	97	NA	255.596754149999	0	0.75	1.25	1	250.243322789	250.739371518999	"3"	16900.922788044	16894.250196161	1.5	0.1
0.01	1	1.2657948319993	1	97	NA	255.596754149999	0	0.75	1.25	1	250.978006685	252.243801516999	"3"	16900.922788044	16894.250196161	1.5	0.1
0.01	1	0.306375013000434	1	97	NA	255.596754149999	0	0.75	1.25	1	252.480483314999	252.786858328	"3"	16900.922788044	16894.250196161	1.5	0.1
0.01	1	0.325934213000437	1	97	NA	255.596754149999	0	0.75	1.25	1	253.014727197999	253.340661410999	"3"	16900.922788044	16894.250196161	1.5	0.1
0.01	1	0.333490124001401	1	97	NA	255.596754149999	0	0.75	1.25	1	253.565678502999	253.899168627	"3"	16900.922788044	16894.250196161	1.5	0.1
0.01	1	0.66963612499967	1	97	NA	255.596754149999	0	0.75	1.25	1	254.13326434	254.802900465	"3"	16900.922788044	16894.250196161	1.5	0.1
0.01	1	0.560499012999571	2	97	NA	255.596754149999	0	0.75	1.25	1	255.034729256	255.595228269	"3"	16900.922788044	16894.250196161	1.5	0.1
0.01	1	0.996975441999894	1	51	284.552794607	NA	1	0	1.25	1	257.639213228998	258.636188670998	"4"	16900.922788044	16894.250196161	1.5	0.1
0.01	1	0.457231067999601	1	51	284.552794607	NA	1	0	1.25	1	258.874772052999	259.332003120999	"4"	16900.922788044	16894.250196161	1.5	0.1
0.01	1	0.292553754999972	1	51	284.552794607	NA	1	0	1.25	1	259.558975432999	259.851529187999	"4"	16900.922788044	16894.250196161	1.5	0.1
0.01	1	0.271806751999975	1	51	284.552794607	NA	1	0	1.25	1	260.076658684999	260.348465436999	"4"	16900.922788044	16894.250196161	1.5	0.1
0.01	1	0.274678726000275	1	51	284.552794607	NA	1	0	1.25	1	260.577451867999	260.852130593999	"4"	16900.922788044	16894.250196161	1.5	0.1
0.01	1	0.292664371001592	1	51	284.552794607	NA	1	0	1.25	1	261.078439399998	261.371103771	"4"	16900.922788044	16894.250196161	1.5	0.1
0.01	1	0.248664335000285	1	51	284.552794607	NA	1	0	1.25	1	261.595844123	261.844508458	"4"	16900.922788044	16894.250196161	1.5	0.1
0.01	1	0.251919244999954	1	51	284.552794607	NA	1	0	1.25	1	262.080051244999	262.331970489999	"4"	16900.922788044	16894.250196161	1.5	0.1
0.01	1	0.272155017999467	1	51	284.552794607	NA	1	0	1.25	1	262.564203065	262.836358082999	"4"	16900.922788044	16894.250196161	1.5	0.1
0.01	1	0.282713646000047	1	51	284.552794607	NA	1	0	1.25	1	263.065082972998	263.347796618998	"4"	16900.922788044	16894.250196161	1.5	0.1
0.01	1	0.268345450000197	1	51	284.552794607	NA	1	0	1.25	1	263.582578629999	263.850924079999	"4"	16900.922788044	16894.250196161	1.5	0.1
0.01	1	0.288882400000148	1	51	284.552794607	NA	1	0	1.25	1	264.083352657999	264.372235057999	"4"	16900.922788044	16894.250196161	1.5	0.1
0.01	1	0.298942392000754	1	51	284.552794607	NA	1	0	1.25	1	264.600934537999	264.89987693	"4"	16900.922788044	16894.250196161	1.5	0.1
0.01	1	0.317699381999773	1	51	284.552794607	NA	1	0	1.25	1	265.135065042999	265.452764424999	"4"	16900.922788044	16894.250196161	1.5	0.1
0.01	1	0.292954597000062	1	51	284.552794607	NA	1	0	1.25	1	265.686126883	265.97908148	"4"	16900.922788044	16894.250196161	1.5	0.1
0.01	1	0.263415106999673	1	51	284.552794607	NA	1	0	1.25	1	266.203518192999	266.466933299998	"4"	16900.922788044	16894.250196161	1.5	0.1
0.01	1	0.284081818001141	1	51	284.552794607	NA	1	0	1.25	1	266.704337342999	266.988419161	"4"	16900.922788044	16894.250196161	1.5	0.1
0.01	1	0.293063881001217	1	51	284.552794607	NA	1	0	1.25	1	267.221907252999	267.514971134	"4"	16900.922788044	16894.250196161	1.5	0.1
0.01	1	0.279909214999861	1	51	284.552794607	NA	1	0	1.25	1	267.739635946	268.019545161	"4"	16900.922788044	16894.250196161	1.5	0.1
0.01	1	0.266822227000375	1	51	284.552794607	NA	1	0	1.25	1	268.257058007999	268.523880235	"4"	16900.922788044	16894.250196161	1.5	0.1
0.01	1	0.253970323999965	1	51	284.552794607	NA	1	0	1.25	1	268.757959782999	269.011930106999	"4"	16900.922788044	16894.250196161	1.5	0.1
0.01	1	0.241931114000181	1	51	284.552794607	NA	1	0	1.25	1	269.242045448	269.483976562	"4"	16900.922788044	16894.250196161	1.5	0.1
0.01	1	0.309475017000295	1	51	284.552794607	NA	1	0	1.25	1	269.709427427999	270.018902444999	"4"	16900.922788044	16894.250196161	1.5	0.1
0.01	1	0.25503453499914	1	51	284.552794607	NA	1	0	1.25	1	270.243632989999	270.498667524998	"4"	16900.922788044	16894.250196161	1.5	0.1
0.01	1	0.236200662999181	1	51	284.552794607	NA	1	0	1.25	1	270.727814348	270.964015010999	"4"	16900.922788044	16894.250196161	1.5	0.1
0.01	1	0.249312212001314	1	51	284.552794607	NA	1	0	1.25	1	271.195333992999	271.444646205	"4"	16900.922788044	16894.250196161	1.5	0.1
0.01	1	0.283260341000641	1	51	284.552794607	NA	1	0	1.25	1	271.679534629999	271.962794970999	"4"	16900.922788044	16894.250196161	1.5	0.1
0.01	1	0.270509923000645	1	51	284.552794607	NA	1	0	1.25	1	272.197026099999	272.467536022999	"4"	16900.922788044	16894.250196161	1.5	0.1
0.01	1	0.233670495999831	1	51	284.552794607	NA	1	0	1.25	1	272.697823768	272.931494263999	"4"	16900.922788044	16894.250196161	1.5	0.1
0.01	1	0.262083591998817	1	51	284.552794607	NA	1	0	1.25	1	273.165337293	273.427420884998	"4"	16900.922788044	16894.250196161	1.5	0.1
0.01	1	0.275308107000455	1	51	284.552794607	NA	1	0	1.25	1	273.649376767999	273.924684874999	"4"	16900.922788044	16894.250196161	1.5	0.1
0.01	1	0.260896309999225	1	51	284.552794607	NA	1	0	1.25	1	274.150333455	274.411229764999	"4"	16900.922788044	16894.250196161	1.5	0.1
0.01	1	0.248968590000004	1	51	284.552794607	NA	1	0	1.25	1	274.651059582999	274.900028172999	"4"	16900.922788044	16894.250196161	1.5	0.1
0.01	1	0.228832315000545	1	51	284.552794607	NA	1	0	1.25	1	275.135326497999	275.364158812999	"4"	16900.922788044	16894.250196161	1.5	0.1
0.01	1	0.241923777999546	1	51	284.552794607	NA	1	0	1.25	1	275.602721968	275.844645746	"4"	16900.922788044	16894.250196161	1.5	0.1
0.01	1	0.244775884000774	1	51	284.552794607	NA	1	0	1.25	1	276.070149661999	276.314925545999	"4"	16900.922788044	16894.250196161	1.5	0.1
0.01	1	0.275120678999883	1	51	284.552794607	NA	1	0	1.25	1	276.537597781999	276.812718460998	"4"	16900.922788044	16894.250196161	1.5	0.1
0.01	1	0.253727920000529	1	51	284.552794607	NA	1	0	1.25	1	277.038415642999	277.292143563	"4"	16900.922788044	16894.250196161	1.5	0.1
0.01	1	0.304820849998578	1	51	284.552794607	NA	1	0	1.25	1	277.522593983	277.827414832998	"4"	16900.922788044	16894.250196161	1.5	0.1
0.01	1	0.282518322999749	1	51	284.552794607	NA	1	0	1.25	1	278.056946659999	278.339464982999	"4"	16900.922788044	16894.250196161	1.5	0.1
0.01	1	0.270198500000333	1	51	284.552794607	NA	1	0	1.25	1	278.574457822999	278.844656322999	"4"	16900.922788044	16894.250196161	1.5	0.1
0.01	1	0.265247393999744	1	51	284.552794607	NA	1	0	1.25	1	279.075262737999	279.340510131999	"4"	16900.922788044	16894.250196161	1.5	0.1
0.01	1	0.252566700000898	1	51	284.552794607	NA	1	0	1.25	1	279.576012922998	279.828579622999	"4"	16900.922788044	16894.250196161	1.5	0.1
0.01	1	0.262465515999793	1	51	284.552794607	NA	1	0	1.25	1	280.060322533	280.322788048999	"4"	16900.922788044	16894.250196161	1.5	0.1
0.01	1	0.250486299999466	1	51	284.552794607	NA	1	0	1.25	1	280.561154957999	280.811641257998	"4"	16900.922788044	16894.250196161	1.5	0.1
0.01	1	0.238474230000065	1	51	284.552794607	NA	1	0	1.25	1	281.045268368	281.283742598	"4"	16900.922788044	16894.250196161	1.5	0.1
0.01	1	0.22737681900071	1	51	284.552794607	NA	1	0	1.25	1	281.512628672999	281.740005492	"4"	16900.922788044	16894.250196161	1.5	0.1
0.01	1	0.296288130000903	1	51	284.552794607	NA	1	0	1.25	1	281.963409922999	282.259698053	"4"	16900.922788044	16894.250196161	1.5	0.1
0.01	1	0.345752008999625	1	51	284.552794607	NA	1	0	1.25	1	282.497671285999	282.843423294999	"4"	16900.922788044	16894.250196161	1.5	0.1
0.01	1	0.425973553001313	1	51	284.552794607	NA	1	0	1.25	1	283.081965149999	283.507938703	"4"	16900.922788044	16894.250196161	1.5	0.1
0.01	1	0.710896741999022	1	51	284.552794607	NA	1	0	1.25	1	283.733145579999	284.444042321998	"4"	16900.922788044	16894.250196161	1.5	0.1
0.01	1	3.75983605400143	1	116	NA	315.543419979998	0	0.49	1.74	1	286.604626957998	290.364463012	"5"	16900.922788044	16894.250196161	1.5	0.1
0.01	1	0.289925824999955	1	116	NA	315.543419979998	0	0.49	1.74	1	290.594601962999	290.884527787999	"5"	16900.922788044	16894.250196161	1.5	0.1
0.01	1	0.244329609000488	1	116	NA	315.543419979998	0	0.49	1.74	1	291.112139004999	291.356468614	"5"	16900.922788044	16894.250196161	1.5	0.1
0.01	1	0.297971775000406	1	116	NA	315.543419979998	0	0.49	1.74	1	291.579595167999	291.877566943	"5"	16900.922788044	16894.250196161	1.5	0.1
0.01	1	0.228386213000704	1	116	NA	315.543419979998	0	0.49	1.74	1	292.113788917999	292.342175131	"5"	16900.922788044	16894.250196161	1.5	0.1
0.01	1	0.256200186999195	1	116	NA	315.543419979998	0	0.49	1.74	1	292.564557784999	292.820757971998	"5"	16900.922788044	16894.250196161	1.5	0.1
0.01	1	0.260781975001009	1	116	NA	315.543419979998	0	0.49	1.74	1	293.048807112998	293.309589087999	"5"	16900.922788044	16894.250196161	1.5	0.1
0.01	1	0.255688977000318	1	116	NA	315.543419979998	0	0.49	1.74	1	293.549515609999	293.805204586999	"5"	16900.922788044	16894.250196161	1.5	0.1
0.01	1	0.307972758999313	1	116	NA	315.543419979998	0	0.49	1.74	1	294.033811769999	294.341784528999	"5"	16900.922788044	16894.250196161	1.5	0.1
0.01	1	0.293831930001033	1	116	NA	315.543419979998	0	0.49	1.74	1	294.567890937999	294.861722868	"5"	16900.922788044	16894.250196161	1.5	0.1
0.01	1	0.271010304000811	1	116	NA	315.543419979998	0	0.49	1.74	1	295.085484387999	295.356494692	"5"	16900.922788044	16894.250196161	1.5	0.1
0.01	1	0.23454097099966	1	116	NA	315.543419979998	0	0.49	1.74	1	295.586352942999	295.820893913999	"5"	16900.922788044	16894.250196161	1.5	0.1
0.01	1	0.28761996600042	1	116	NA	315.543419979998	0	0.49	1.74	1	296.053797062999	296.341417029	"5"	16900.922788044	16894.250196161	1.5	0.1
0.01	1	0.25845047599978	1	116	NA	315.543419979998	0	0.49	1.74	1	296.571337103	296.829787578999	"5"	16900.922788044	16894.250196161	1.5	0.1
0.01	1	0.229169190999528	1	116	NA	315.543419979998	0	0.49	1.74	1	297.055488418	297.284657609	"5"	16900.922788044	16894.250196161	1.5	0.1
0.01	1	0.275052121000044	1	116	NA	315.543419979998	0	0.49	1.74	1	297.522844047999	297.797896168999	"5"	16900.922788044	16894.250196161	1.5	0.1
0.01	1	0.229366415000186	1	116	NA	315.543419979998	0	0.49	1.74	1	298.023778645	298.25314506	"5"	16900.922788044	16894.250196161	1.5	0.1
0.01	1	0.242351986998983	1	116	NA	315.543419979998	0	0.49	1.74	1	298.474493262	298.716845248999	"5"	16900.922788044	16894.250196161	1.5	0.1
0.01	1	0.223315323000861	1	116	NA	315.543419979998	0	0.49	1.74	1	298.942026617999	299.165341940999	"5"	16900.922788044	16894.250196161	1.5	0.1
0.01	1	0.236564471999372	1	116	NA	315.543419979998	0	0.49	1.74	1	299.392674113	299.629238584999	"5"	16900.922788044	16894.250196161	1.5	0.1
0.01	1	0.249466867999217	1	116	NA	315.543419979998	0	0.49	1.74	1	299.8602132	300.109680067999	"5"	16900.922788044	16894.250196161	1.5	0.1
0.01	1	0.197285688998818	1	116	NA	315.543419979998	0	0.49	1.74	1	300.3443498	300.541635488999	"5"	16900.922788044	16894.250196161	1.5	0.1
0.01	1	0.235581052998896	1	116	NA	315.543419979998	0	0.49	1.74	1	300.778340838	301.013921890999	"5"	16900.922788044	16894.250196161	1.5	0.1
0.01	1	0.246514518999902	1	116	NA	315.543419979998	0	0.49	1.74	1	301.245955138	301.492469657	"5"	16900.922788044	16894.250196161	1.5	0.1
0.01	1	0.242793117999099	1	116	NA	315.543419979998	0	0.49	1.74	1	301.730001668	301.972794785999	"5"	16900.922788044	16894.250196161	1.5	0.1
0.01	1	0.255952743998932	1	116	NA	315.543419979998	0	0.49	1.74	1	302.197486423	302.453439166999	"5"	16900.922788044	16894.250196161	1.5	0.1
0.01	1	0.283152912999867	1	116	NA	315.543419979998	0	0.49	1.74	1	302.68172773	302.964880643	"5"	16900.922788044	16894.250196161	1.5	0.1
0.01	1	0.286891490000926	1	116	NA	315.543419979998	0	0.49	1.74	1	303.199233829999	303.48612532	"5"	16900.922788044	16894.250196161	1.5	0.1
0.01	1	0.271938940999462	1	116	NA	315.543419979998	0	0.49	1.74	1	303.716696699999	303.988635640999	"5"	16900.922788044	16894.250196161	1.5	0.1
0.01	1	0.259202982999341	1	116	NA	315.543419979998	0	0.49	1.74	1	304.217598797999	304.476801780998	"5"	16900.922788044	16894.250196161	1.5	0.1
0.01	1	0.231324735001181	1	116	NA	315.543419979998	0	0.49	1.74	1	304.701791702999	304.933116438	"5"	16900.922788044	16894.250196161	1.5	0.1
0.01	1	0.219267873999343	1	116	NA	315.543419979998	0	0.49	1.74	1	305.169180139999	305.388448013999	"5"	16900.922788044	16894.250196161	1.5	0.1
0.01	1	0.257169828000769	1	116	NA	315.543419979998	0	0.49	1.74	1	305.619910469999	305.877080298	"5"	16900.922788044	16894.250196161	1.5	0.1
0.01	1	0.236449571000776	1	116	NA	315.543419979998	0	0.49	1.74	1	306.104086022999	306.340535593999	"5"	16900.922788044	16894.250196161	1.5	0.1
0.01	1	0.27340289499989	1	116	NA	315.543419979998	0	0.49	1.74	1	306.571444982999	306.844847877999	"5"	16900.922788044	16894.250196161	1.5	0.1
0.01	1	0.245860386999993	1	116	NA	315.543419979998	0	0.49	1.74	1	307.072314329998	307.318174716998	"5"	16900.922788044	16894.250196161	1.5	0.1
0.01	1	0.265098505000424	1	116	NA	315.543419979998	0	0.49	1.74	1	307.556478032999	307.821576537999	"5"	16900.922788044	16894.250196161	1.5	0.1
0.01	1	0.299855720000778	1	116	NA	315.543419979998	0	0.49	1.74	1	308.057279507999	308.357135228	"5"	16900.922788044	16894.250196161	1.5	0.1
0.01	1	0.398765507999997	1	116	NA	315.543419979998	0	0.49	1.74	1	308.591509517999	308.990275025999	"5"	16900.922788044	16894.250196161	1.5	0.1
0.01	1	0.292437209000127	1	116	NA	315.543419979998	0	0.49	1.74	1	309.225962062999	309.518399271999	"5"	16900.922788044	16894.250196161	1.5	0.1
0.01	1	0.677234906001104	1	116	NA	315.543419979998	0	0.49	1.74	1	309.743553422999	310.420788329	"5"	16900.922788044	16894.250196161	1.5	0.1
0.01	1	0.248422614999072	1	116	NA	315.543419979998	0	0.49	1.74	1	310.644976418	310.893399032999	"5"	16900.922788044	16894.250196161	1.5	0.1
0.01	1	0.524982042999909	1	116	NA	315.543419979998	0	0.49	1.74	1	311.1291525	311.654134543	"5"	16900.922788044	16894.250196161	1.5	0.1
0.01	1	0.301603166999485	1	116	NA	315.543419979998	0	0.49	1.74	1	311.88039115	312.181994316999	"5"	16900.922788044	16894.250196161	1.5	0.1
0.01	1	0.335226720999344	1	116	NA	315.543419979998	0	0.49	1.74	1	312.414637028	312.749863748999	"5"	16900.922788044	16894.250196161	1.5	0.1
0.01	1	0.334974916999272	1	116	NA	315.543419979998	0	0.49	1.74	1	312.982273662999	313.317248579999	"5"	16900.922788044	16894.250196161	1.5	0.1
0.01	1	0.27914464099922	1	116	NA	315.543419979998	0	0.49	1.74	1	313.549867064999	313.829011705999	"5"	16900.922788044	16894.250196161	1.5	0.1
0.01	1	0.28967424899929	1	116	NA	315.543419979998	0	0.49	1.74	1	314.067346059999	314.357020308998	"5"	16900.922788044	16894.250196161	1.5	0.1
0.01	1	0.355537235000156	1	116	NA	315.543419979998	0	0.49	1.74	1	314.584980072999	314.940517307999	"5"	16900.922788044	16894.250196161	1.5	0.1
0.01	1	0.372531445000277	2	116	NA	315.543419979998	0	0.49	1.74	1	315.169369477999	315.541900922999	"5"	16900.922788044	16894.250196161	1.5	0.1
0.01	1	1.56675466999877	1	118	NA	346.543237847	0	0.51	2.25	1	317.589982865	319.156737534999	"6"	16900.922788044	16894.250196161	1.5	0.1
0.01	1	0.348785710999437	1	118	NA	346.543237847	0	0.51	2.25	1	319.393119543	319.741905253999	"6"	16900.922788044	16894.250196161	1.5	0.1
0.01	1	0.299668679001115	1	118	NA	346.543237847	0	0.51	2.25	1	319.977392727998	320.277061407	"6"	16900.922788044	16894.250196161	1.5	0.1
0.01	1	0.294507067999803	1	118	NA	346.543237847	0	0.51	2.25	1	320.511646858	320.806153926	"6"	16900.922788044	16894.250196161	1.5	0.1
0.01	1	0.28060246700079	1	118	NA	346.543237847	0	0.51	2.25	1	321.029248698998	321.309851165999	"6"	16900.922788044	16894.250196161	1.5	0.1
0.01	1	0.298600915999486	1	118	NA	346.543237847	0	0.51	2.25	1	321.546630749999	321.845231665999	"6"	16900.922788044	16894.250196161	1.5	0.1
0.01	1	0.292606314000295	1	118	NA	346.543237847	0	0.51	2.25	1	322.080858342999	322.373464656999	"6"	16900.922788044	16894.250196161	1.5	0.1
0.01	1	0.277853453000716	1	118	NA	346.543237847	0	0.51	2.25	1	322.598454207999	322.876307660999	"6"	16900.922788044	16894.250196161	1.5	0.1
0.01	1	0.290315714999451	1	118	NA	346.543237847	0	0.51	2.25	1	323.115975563	323.406291277999	"6"	16900.922788044	16894.250196161	1.5	0.1
0.01	1	0.291196941998351	1	118	NA	346.543237847	0	0.51	2.25	1	323.633563153	323.924760094998	"6"	16900.922788044	16894.250196161	1.5	0.1
0.01	1	0.293744106998929	1	118	NA	346.543237847	0	0.51	2.25	1	324.151095808	324.444839914999	"6"	16900.922788044	16894.250196161	1.5	0.1
0.01	1	0.337264572999629	1	118	NA	346.543237847	0	0.51	2.25	1	324.668607534999	325.005872107999	"6"	16900.922788044	16894.250196161	1.5	0.1
0.01	1	0.312427539000055	1	118	NA	346.543237847	0	0.51	2.25	1	325.236222477999	325.548650016999	"6"	16900.922788044	16894.250196161	1.5	0.1
0.01	1	0.275280865000241	1	118	NA	346.543237847	0	0.51	2.25	1	325.787084303	326.062365168	"6"	16900.922788044	16894.250196161	1.5	0.1
0.01	1	0.300813391999327	1	118	NA	346.543237847	0	0.51	2.25	1	326.287926900999	326.588740292998	"6"	16900.922788044	16894.250196161	1.5	0.1
0.01	1	0.287237865999487	1	118	NA	346.543237847	0	0.51	2.25	1	326.82229964	327.109537505999	"6"	16900.922788044	16894.250196161	1.5	0.1
0.01	1	0.281114069999603	1	118	NA	346.543237847	0	0.51	2.25	1	327.339787172999	327.620901242999	"6"	16900.922788044	16894.250196161	1.5	0.1
0.01	1	0.308488337999734	1	118	NA	346.543237847	0	0.51	2.25	1	327.857335012999	328.165823350999	"6"	16900.922788044	16894.250196161	1.5	0.1
0.01	1	0.293161322999367	1	118	NA	346.543237847	0	0.51	2.25	1	328.391569494999	328.684730817999	"6"	16900.922788044	16894.250196161	1.5	0.1
0.01	1	0.281126911999309	1	118	NA	346.543237847	0	0.51	2.25	1	328.909084543	329.190211454999	"6"	16900.922788044	16894.250196161	1.5	0.1
0.01	1	0.267050227001164	1	118	NA	346.543237847	0	0.51	2.25	1	329.426733254999	329.693783482	"6"	16900.922788044	16894.250196161	1.5	0.1
0.01	1	0.270251370000551	1	118	NA	346.543237847	0	0.51	2.25	1	329.927430439999	330.197681809999	"6"	16900.922788044	16894.250196161	1.5	0.1
0.01	1	0.232404705999215	1	118	NA	346.543237847	0	0.51	2.25	1	330.428223139999	330.660627845999	"6"	16900.922788044	16894.250196161	1.5	0.1
0.01	1	0.268820831000994	1	118	NA	346.543237847	0	0.51	2.25	1	330.895718922999	331.164539754	"6"	16900.922788044	16894.250196161	1.5	0.1
0.01	1	0.281480023000768	1	118	NA	346.543237847	0	0.51	2.25	1	331.396492487998	331.677972510999	"6"	16900.922788044	16894.250196161	1.5	0.1
0.01	1	0.260155881000173	1	118	NA	346.543237847	0	0.51	2.25	1	331.91409941	332.174255291	"6"	16900.922788044	16894.250196161	1.5	0.1
0.01	1	0.270546863001073	1	118	NA	346.543237847	0	0.51	2.25	1	332.398220149998	332.668767013	"6"	16900.922788044	16894.250196161	1.5	0.1
0.01	1	0.281828909999604	1	118	NA	346.543237847	0	0.51	2.25	1	332.899181659999	333.181010569999	"6"	16900.922788044	16894.250196161	1.5	0.1
0.01	1	0.277264868000202	1	118	NA	346.543237847	0	0.51	2.25	1	333.416643197999	333.693908065999	"6"	16900.922788044	16894.250196161	1.5	0.1
0.01	1	0.310832862998723	1	118	NA	346.543237847	0	0.51	2.25	1	333.917501598	334.228334460999	"6"	16900.922788044	16894.250196161	1.5	0.1
0.01	1	0.26520907899976	1	118	NA	346.543237847	0	0.51	2.25	1	334.451712292999	334.716921371999	"6"	16900.922788044	16894.250196161	1.5	0.1
0.01	1	0.253480881001451	1	118	NA	346.543237847	0	0.51	2.25	1	334.952643539998	335.206124421	"6"	16900.922788044	16894.250196161	1.5	0.1
0.01	1	0.255924175999098	1	118	NA	346.543237847	0	0.51	2.25	1	335.436695144999	335.692619320998	"6"	16900.922788044	16894.250196161	1.5	0.1
0.01	1	0.285307115000251	1	118	NA	346.543237847	0	0.51	2.25	1	335.920790487999	336.206097602999	"6"	16900.922788044	16894.250196161	1.5	0.1
0.01	1	0.2637346850006	1	118	NA	346.543237847	0	0.51	2.25	1	336.438407239999	336.702141925	"6"	16900.922788044	16894.250196161	1.5	0.1
0.01	1	0.242225308000343	1	118	NA	346.543237847	0	0.51	2.25	1	336.939317487999	337.181542795999	"6"	16900.922788044	16894.250196161	1.5	0.1
0.01	1	0.269953009999881	1	118	NA	346.543237847	0	0.51	2.25	1	337.406696709999	337.676649719999	"6"	16900.922788044	16894.250196161	1.5	0.1
0.01	1	0.298588028001177	1	118	NA	346.543237847	0	0.51	2.25	1	337.907474832999	338.206062861	"6"	16900.922788044	16894.250196161	1.5	0.1
0.01	1	0.299347527999998	1	118	NA	346.543237847	0	0.51	2.25	1	338.441788357999	338.741135885999	"6"	16900.922788044	16894.250196161	1.5	0.1
0.01	1	0.437124853999194	1	118	NA	346.543237847	0	0.51	2.25	1	338.976004317999	339.413129171999	"6"	16900.922788044	16894.250196161	1.5	0.1
0.01	1	0.336647744999937	1	118	NA	346.543237847	0	0.51	2.25	1	339.643872712999	339.980520457999	"6"	16900.922788044	16894.250196161	1.5	0.1
0.01	1	0.35407314800068	1	118	NA	346.543237847	0	0.51	2.25	1	340.211344212999	340.565417361	"6"	16900.922788044	16894.250196161	1.5	0.1
0.01	1	0.290216181001597	1	118	NA	346.543237847	0	0.51	2.25	1	340.795727469998	341.085943651	"6"	16900.922788044	16894.250196161	1.5	0.1
0.01	1	0.323588957999164	1	118	NA	346.543237847	0	0.51	2.25	1	341.313302492999	341.636891450999	"6"	16900.922788044	16894.250196161	1.5	0.1
0.01	1	0.284287357000721	1	118	NA	346.543237847	0	0.51	2.25	1	341.864117444999	342.148404801999	"6"	16900.922788044	16894.250196161	1.5	0.1
0.01	1	0.343648845000644	1	118	NA	346.543237847	0	0.51	2.25	1	342.381678092999	342.725326938	"6"	16900.922788044	16894.250196161	1.5	0.1
0.01	1	0.239946724999754	1	118	NA	346.543237847	0	0.51	2.25	1	342.966041374999	343.205988099999	"6"	16900.922788044	16894.250196161	1.5	0.1
0.01	1	0.283606801998758	1	118	NA	346.543237847	0	0.51	2.25	1	343.433529978	343.717136779998	"6"	16900.922788044	16894.250196161	1.5	0.1
0.01	1	0.334447491000901	1	118	NA	346.543237847	0	0.51	2.25	1	343.951083197999	344.285530689	"6"	16900.922788044	16894.250196161	1.5	0.1
0.01	1	0.334862661999068	1	118	NA	346.543237847	0	0.51	2.25	1	344.518763399999	344.853626061999	"6"	16900.922788044	16894.250196161	1.5	0.1
0.01	1	0.310518952999701	1	118	NA	346.543237847	0	0.51	2.25	1	345.086294987999	345.396813940999	"6"	16900.922788044	16894.250196161	1.5	0.1
0.01	1	0.921148621000611	2	118	NA	346.543237847	0	0.51	2.25	1	345.620551472999	346.541700094	"6"	16900.922788044	16894.250196161	1.5	0.1
0.01	1	5.06485342199994	1	87	NA	390.378738406998	0	0.75	3	1	348.59210106	353.656954481999	"7"	16900.922788044	16894.250196161	1.5	0.1
0.01	1	0.267275117999816	1	87	NA	390.378738406998	0	0.75	3	1	353.884440483	354.151715601	"7"	16900.922788044	16894.250196161	1.5	0.1
0.01	1	0.262912444999529	1	87	NA	390.378738406998	0	0.75	3	1	354.385179948	354.648092392999	"7"	16900.922788044	16894.250196161	1.5	0.1
0.01	1	0.241838731999451	1	87	NA	390.378738406998	0	0.75	3	1	354.886098167999	355.127936899999	"7"	16900.922788044	16894.250196161	1.5	0.1
0.01	1	0.231561509999665	1	87	NA	390.378738406998	0	0.75	3	1	355.353525222999	355.585086732999	"7"	16900.922788044	16894.250196161	1.5	0.1
0.01	1	0.243992744000934	1	87	NA	390.378738406998	0	0.75	3	1	355.820989987998	356.064982731999	"7"	16900.922788044	16894.250196161	1.5	0.1
0.01	1	0.272493041000416	1	87	NA	390.378738406998	0	0.75	3	1	356.288493407999	356.560986449	"7"	16900.922788044	16894.250196161	1.5	0.1
0.01	1	0.26746260300024	1	87	NA	390.378738406998	0	0.75	3	1	356.789275342999	357.056737945999	"7"	16900.922788044	16894.250196161	1.5	0.1
0.01	1	0.254996989999199	1	87	NA	390.378738406998	0	0.75	3	1	357.290154664999	357.545151654998	"7"	16900.922788044	16894.250196161	1.5	0.1
0.01	1	0.267046289000064	1	87	NA	390.378738406998	0	0.75	3	1	357.774305802999	358.041352091999	"7"	16900.922788044	16894.250196161	1.5	0.1
0.01	1	0.269003000999874	1	87	NA	390.378738406998	0	0.75	3	1	358.275142492999	358.544145493999	"7"	16900.922788044	16894.250196161	1.5	0.1
0.01	1	0.232961346000593	1	87	NA	390.378738406998	0	0.75	3	1	358.775982532999	359.008943879	"7"	16900.922788044	16894.250196161	1.5	0.1
0.01	1	0.22882272500101	1	87	NA	390.378738406998	0	0.75	3	1	359.243586757999	359.472409483	"7"	16900.922788044	16894.250196161	1.5	0.1
0.01	1	0.217113405000418	1	87	NA	390.378738406998	0	0.75	3	1	359.710860112998	359.927973517999	"7"	16900.922788044	16894.250196161	1.5	0.1
0.01	1	0.231330234999405	1	87	NA	390.378738406998	0	0.75	3	1	360.161571082999	360.392901317999	"7"	16900.922788044	16894.250196161	1.5	0.1
0.01	1	0.228084508999018	1	87	NA	390.378738406998	0	0.75	3	1	360.62908834	360.857172848999	"7"	16900.922788044	16894.250196161	1.5	0.1
0.01	1	0.256493570999737	1	87	NA	390.378738406998	0	0.75	3	1	361.079829503	361.336323074	"7"	16900.922788044	16894.250196161	1.5	0.1
0.01	1	0.275682502999189	1	87	NA	390.378738406998	0	0.75	3	1	361.564016838	361.839699340999	"7"	16900.922788044	16894.250196161	1.5	0.1
0.01	1	0.23214428600113	1	87	NA	390.378738406998	0	0.75	3	1	362.064828839999	362.296973126	"7"	16900.922788044	16894.250196161	1.5	0.1
0.01	1	0.243907761001537	1	87	NA	390.378738406998	0	0.75	3	1	362.532348764998	362.776256526	"7"	16900.922788044	16894.250196161	1.5	0.1
0.01	1	0.225386418000198	1	87	NA	390.378738406998	0	0.75	3	1	362.999845212998	363.225231630999	"7"	16900.922788044	16894.250196161	1.5	0.1
0.01	1	0.198192292999011	1	87	NA	390.378738406998	0	0.75	3	1	363.45059979	363.648792082999	"7"	16900.922788044	16894.250196161	1.5	0.1
0.01	1	0.203103363000992	1	87	NA	390.378738406998	0	0.75	3	1	363.884594789999	364.087698153	"7"	16900.922788044	16894.250196161	1.5	0.1
0.01	1	0.209688892999111	1	87	NA	390.378738406998	0	0.75	3	1	364.318640648	364.528329540999	"7"	16900.922788044	16894.250196161	1.5	0.1
0.01	1	0.199394126000698	1	87	NA	390.378738406998	0	0.75	3	1	364.752736471999	364.952130598	"7"	16900.922788044	16894.250196161	1.5	0.1
0.01	1	0.228833330000271	1	87	NA	390.378738406998	0	0.75	3	1	365.186741289999	365.415574619999	"7"	16900.922788044	16894.250196161	1.5	0.1
0.01	1	0.178591453999616	1	87	NA	390.378738406998	0	0.75	3	1	365.637494408	365.816085861999	"7"	16900.922788044	16894.250196161	1.5	0.1
0.01	1	0.193738557998586	1	87	NA	390.378738406998	0	0.75	3	1	366.038188883	366.231927440998	"7"	16900.922788044	16894.250196161	1.5	0.1
0.01	1	0.208236996999403	1	87	NA	390.378738406998	0	0.75	3	1	366.455512439999	366.663749436999	"7"	16900.922788044	16894.250196161	1.5	0.1
0.01	1	0.230461209001078	1	87	NA	390.378738406998	0	0.75	3	1	366.889661382998	367.120122591999	"7"	16900.922788044	16894.250196161	1.5	0.1
0.01	1	0.194533930000034	1	87	NA	390.378738406998	0	0.75	3	1	367.357052316	367.551586246	"7"	16900.922788044	16894.250196161	1.5	0.1
0.01	1	0.218832450998889	1	87	NA	390.378738406998	0	0.75	3	1	367.774493763	367.993326213998	"7"	16900.922788044	16894.250196161	1.5	0.1
0.01	1	0.198797869999908	1	87	NA	390.378738406998	0	0.75	3	1	368.225233313	368.424031183	"7"	16900.922788044	16894.250196161	1.5	0.1
0.01	1	0.17323622999902	1	87	NA	390.378738406998	0	0.75	3	1	368.659320318	368.832556547999	"7"	16900.922788044	16894.250196161	1.5	0.1
0.01	1	0.204229375000068	1	87	NA	390.378738406998	0	0.75	3	1	369.059878987999	369.264108362999	"7"	16900.922788044	16894.250196161	1.5	0.1
0.01	1	0.225620772000184	1	87	NA	390.378738406998	0	0.75	3	1	369.493995212999	369.719615984999	"7"	16900.922788044	16894.250196161	1.5	0.1
0.01	1	0.199122718999206	1	87	NA	390.378738406998	0	0.75	3	1	369.944833668	370.143956386999	"7"	16900.922788044	16894.250196161	1.5	0.1
0.01	1	0.197821994999686	1	87	NA	390.378738406998	0	0.75	3	1	370.378772413	370.576594407999	"7"	16900.922788044	16894.250196161	1.5	0.1
0.01	1	0.211609386999044	1	87	NA	390.378738406998	0	0.75	3	1	370.812985703	371.024595089999	"7"	16900.922788044	16894.250196161	1.5	0.1
0.01	1	0.224925219999932	1	87	NA	390.378738406998	0	0.75	3	1	371.247052089999	371.471977309999	"7"	16900.922788044	16894.250196161	1.5	0.1
0.01	1	0.231037547000597	1	87	NA	390.378738406998	0	0.75	3	1	371.697719627999	371.928757174999	"7"	16900.922788044	16894.250196161	1.5	0.1
0.01	1	0.235692500000368	1	87	NA	390.378738406998	0	0.75	3	1	372.165158483	372.400850983	"7"	16900.922788044	16894.250196161	1.5	0.1
0.01	1	0.232170038998447	1	87	NA	390.378738406998	0	0.75	3	1	372.63260275	372.864772788998	"7"	16900.922788044	16894.250196161	1.5	0.1
0.01	1	0.220372184998268	1	87	NA	390.378738406998	0	0.75	3	1	373.10007941	373.320451594998	"7"	16900.922788044	16894.250196161	1.5	0.1
0.01	1	0.168863290000445	1	87	NA	390.378738406998	0	0.75	3	1	373.550786514999	373.719649805	"7"	16900.922788044	16894.250196161	1.5	0.1
0.01	1	0.185503881999466	1	87	NA	390.378738406998	0	0.75	3	1	373.951598948999	374.137102830999	"7"	16900.922788044	16894.250196161	1.5	0.1
0.01	1	0.168290595000144	1	87	NA	390.378738406998	0	0.75	3	1	374.368851137999	374.537141732999	"7"	16900.922788044	16894.250196161	1.5	0.1
0.01	1	0.166595702999984	1	87	NA	390.378738406998	0	0.75	3	1	374.769628807999	374.936224510999	"7"	16900.922788044	16894.250196161	1.5	0.1
0.01	1	0.198813172999508	1	87	NA	390.378738406998	0	0.75	3	1	375.170223732999	375.369036905999	"7"	16900.922788044	16894.250196161	1.5	0.1
0.01	1	0.932667061999382	1	87	NA	390.378738406998	0	0.75	3	1	375.604301685	376.536968746999	"7"	16900.922788044	16894.250196161	1.5	0.1
0.01	1	0.42678661500031	1	87	NA	390.378738406998	0	0.75	3	1	376.772881467999	377.199668083	"7"	16900.922788044	16894.250196161	1.5	0.1
0.01	1	0.216726786999061	1	87	NA	390.378738406998	0	0.75	3	1	377.424137702999	377.640864489998	"7"	16900.922788044	16894.250196161	1.5	0.1
0.01	1	0.150661657000455	1	87	NA	390.378738406998	0	0.75	3	1	377.874736959999	378.025398616999	"7"	16900.922788044	16894.250196161	1.5	0.1
0.01	1	0.158084559998315	1	87	NA	390.378738406998	0	0.75	3	1	378.258647998	378.416732557998	"7"	16900.922788044	16894.250196161	1.5	0.1
0.01	1	0.166342881000674	1	87	NA	390.378738406998	0	0.75	3	1	378.642781969998	378.809124850999	"7"	16900.922788044	16894.250196161	1.5	0.1
0.01	1	0.396686580001187	1	87	NA	390.378738406998	0	0.75	3	1	379.043404664999	379.440091245	"7"	16900.922788044	16894.250196161	1.5	0.1
0.01	1	0.290879109999878	1	87	NA	390.378738406998	0	0.75	3	1	379.677778468	379.968657578	"7"	16900.922788044	16894.250196161	1.5	0.1
0.01	1	0.340080333000515	1	87	NA	390.378738406998	0	0.75	3	1	380.195379732999	380.535460065999	"7"	16900.922788044	16894.250196161	1.5	0.1
0.01	1	0.236892365999665	1	87	NA	390.378738406998	0	0.75	3	1	380.762972164999	380.999864530999	"7"	16900.922788044	16894.250196161	1.5	0.1
0.01	1	1.09839971200017	1	87	NA	390.378738406998	0	0.75	3	1	381.230511762	382.328911474	"7"	16900.922788044	16894.250196161	1.5	0.1
0.01	1	0.553782156001034	1	87	NA	390.378738406998	0	0.75	3	1	382.565975758998	383.119757914999	"7"	16900.922788044	16894.250196161	1.5	0.1
0.01	1	0.20245233300011	1	87	NA	390.378738406998	0	0.75	3	1	383.350596877999	383.553049210999	"7"	16900.922788044	16894.250196161	1.5	0.1
0.01	1	0.214634705000208	1	87	NA	390.378738406998	0	0.75	3	1	383.784712142999	383.999346847999	"7"	16900.922788044	16894.250196161	1.5	0.1
0.01	1	0.20445995999944	1	87	NA	390.378738406998	0	0.75	3	1	384.235663238	384.440123197999	"7"	16900.922788044	16894.250196161	1.5	0.1
0.01	1	0.195063223998659	1	87	NA	390.378738406998	0	0.75	3	1	384.669507773	384.864570996999	"7"	16900.922788044	16894.250196161	1.5	0.1
0.01	1	0.217744594998294	1	87	NA	390.378738406998	0	0.75	3	1	385.086901183	385.304645777998	"7"	16900.922788044	16894.250196161	1.5	0.1
0.01	1	0.183317424000052	1	87	NA	390.378738406998	0	0.75	3	1	385.537703832999	385.721021256999	"7"	16900.922788044	16894.250196161	1.5	0.1
0.01	1	0.181010693000644	1	87	NA	390.378738406998	0	0.75	3	1	385.955006509999	386.136017203	"7"	16900.922788044	16894.250196161	1.5	0.1
0.01	1	0.243302962999223	1	87	NA	390.378738406998	0	0.75	3	1	386.372386941999	386.615689904998	"7"	16900.922788044	16894.250196161	1.5	0.1
0.01	1	0.511569275000511	1	87	NA	390.378738406998	0	0.75	3	1	386.839894782999	387.351464058	"7"	16900.922788044	16894.250196161	1.5	0.1
0.01	1	0.514336543001264	1	87	NA	390.378738406998	0	0.75	3	1	387.574358504999	388.088695048	"7"	16900.922788044	16894.250196161	1.5	0.1
0.01	1	0.169621369001106	1	87	NA	390.378738406998	0	0.75	3	1	388.325718627999	388.495339997	"7"	16900.922788044	16894.250196161	1.5	0.1
0.01	1	0.234880373000124	1	87	NA	390.378738406998	0	0.75	3	1	388.726410218	388.961290591	"7"	16900.922788044	16894.250196161	1.5	0.1
0.01	1	0.198428106999927	1	87	NA	390.378738406998	0	0.75	3	1	389.193909932999	389.392338039999	"7"	16900.922788044	16894.250196161	1.5	0.1
0.01	1	0.212990543001069	1	87	NA	390.378738406998	0	0.75	3	1	389.627874099999	389.840864643	"7"	16900.922788044	16894.250196161	1.5	0.1
0.01	1	0.298514097999941	2	87	NA	390.378738406998	0	0.75	3	1	390.078677476	390.377191574	"7"	16900.922788044	16894.250196161	1.5	0.1
0.01	1	1.83788497299975	1	6	396.692710944999	NA	1	0	3	1	392.432601192999	394.270486165999	"8"	16900.922788044	16894.250196161	1.5	0.1
0.01	1	0.231907260000298	1	6	396.692710944999	NA	1	0	3	1	394.502747459999	394.73465472	"8"	16900.922788044	16894.250196161	1.5	0.1
0.01	1	0.197460830000637	1	6	396.692710944999	NA	1	0	3	1	394.970272187998	395.167733017999	"8"	16900.922788044	16894.250196161	1.5	0.1
0.01	1	0.218658044999756	1	6	396.692710944999	NA	1	0	3	1	395.404189243	395.622847287999	"8"	16900.922788044	16894.250196161	1.5	0.1
0.01	1	0.238947913998345	1	6	396.692710944999	NA	1	0	3	1	395.854952918	396.093900831998	"8"	16900.922788044	16894.250196161	1.5	0.1
0.01	1	0.252499185999113	1	6	396.692710944999	NA	1	0	3	1	396.322498842999	396.574998028998	"8"	16900.922788044	16894.250196161	1.5	0.1
0.01	1	1.24793625700113	1	106	NA	438.144234001998	0	0.75	3.75	1	398.743149209999	399.991085467	"9"	16900.922788044	16894.250196161	1.5	0.1
0.01	1	0.41829541900006	1	106	NA	438.144234001998	0	0.75	3.75	1	400.229082	400.647377419	"9"	16900.922788044	16894.250196161	1.5	0.1
0.01	1	0.214543873000366	1	106	NA	438.144234001998	0	0.75	3.75	1	400.880092267998	401.094636140999	"9"	16900.922788044	16894.250196161	1.5	0.1
0.01	1	0.212293274000331	1	106	NA	438.144234001998	0	0.75	3.75	1	401.330888797998	401.543182071999	"9"	16900.922788044	16894.250196161	1.5	0.1
0.01	1	0.20022191300086	1	106	NA	438.144234001998	0	0.75	3.75	1	401.781631304999	401.981853218	"9"	16900.922788044	16894.250196161	1.5	0.1
0.01	1	0.263840476000041	1	106	NA	438.144234001998	0	0.75	3.75	1	402.215711473	402.479551949	"9"	16900.922788044	16894.250196161	1.5	0.1
0.01	1	0.257820287000868	1	106	NA	438.144234001998	0	0.75	3.75	1	402.716606889999	402.974427177	"9"	16900.922788044	16894.250196161	1.5	0.1
0.01	1	0.262607684000614	1	106	NA	438.144234001998	0	0.75	3.75	1	403.200743384999	403.463351069	"9"	16900.922788044	16894.250196161	1.5	0.1
0.01	1	0.257246663999467	1	106	NA	438.144234001998	0	0.75	3.75	1	403.701522923	403.958769587	"9"	16900.922788044	16894.250196161	1.5	0.1
0.01	1	0.293723418999434	1	106	NA	438.144234001998	0	0.75	3.75	1	404.185652303	404.479375722	"9"	16900.922788044	16894.250196161	1.5	0.1
0.01	1	0.278932547000295	1	106	NA	438.144234001998	0	0.75	3.75	1	404.703158389999	404.982090936999	"9"	16900.922788044	16894.250196161	1.5	0.1
0.01	1	0.283110756001406	1	106	NA	438.144234001998	0	0.75	3.75	1	405.204073092998	405.487183849	"9"	16900.922788044	16894.250196161	1.5	0.1
0.01	1	0.310056317999624	1	106	NA	438.144234001998	0	0.75	3.75	1	405.721641523	406.031697840999	"9"	16900.922788044	16894.250196161	1.5	0.1
0.01	1	0.287512580998737	1	106	NA	438.144234001998	0	0.75	3.75	1	406.255840925	406.543353505998	"9"	16900.922788044	16894.250196161	1.5	0.1
0.01	1	0.28903059699951	1	106	NA	438.144234001998	0	0.75	3.75	1	406.773466592	407.062497188999	"9"	16900.922788044	16894.250196161	1.5	0.1
0.01	1	0.323813098999381	1	106	NA	438.144234001998	0	0.75	3.75	1	407.290900188	407.614713286999	"9"	16900.922788044	16894.250196161	1.5	0.1
0.01	1	0.277007054999558	1	106	NA	438.144234001998	0	0.75	3.75	1	407.841855268	408.118862322999	"9"	16900.922788044	16894.250196161	1.5	0.1
0.01	1	0.295967546000611	1	106	NA	438.144234001998	0	0.75	3.75	1	408.342587532999	408.638555079	"9"	16900.922788044	16894.250196161	1.5	0.1
0.01	1	0.274412486000074	1	106	NA	438.144234001998	0	0.75	3.75	1	408.876938463	409.151350949	"9"	16900.922788044	16894.250196161	1.5	0.1
0.01	1	0.269851212000503	1	106	NA	438.144234001998	0	0.75	3.75	1	409.377815782998	409.647666994999	"9"	16900.922788044	16894.250196161	1.5	0.1
0.01	1	0.248849109999355	1	106	NA	438.144234001998	0	0.75	3.75	1	409.878632962	410.127482071999	"9"	16900.922788044	16894.250196161	1.5	0.1
0.01	1	0.307552984999347	1	106	NA	438.144234001998	0	0.75	3.75	1	410.362780662999	410.670333647999	"9"	16900.922788044	16894.250196161	1.5	0.1
0.01	1	0.285900013001083	1	106	NA	438.144234001998	0	0.75	3.75	1	410.897078107999	411.182978121	"9"	16900.922788044	16894.250196161	1.5	0.1
0.01	1	0.273007212999801	1	106	NA	438.144234001998	0	0.75	3.75	1	411.414556369999	411.687563582998	"9"	16900.922788044	16894.250196161	1.5	0.1
0.01	1	0.291524949001541	1	106	NA	438.144234001998	0	0.75	3.75	1	411.915299867998	412.206824817	"9"	16900.922788044	16894.250196161	1.5	0.1
0.01	1	0.261305515999993	1	106	NA	438.144234001998	0	0.75	3.75	1	412.432868222999	412.694173738999	"9"	16900.922788044	16894.250196161	1.5	0.1
0.01	1	0.290172474000428	1	106	NA	438.144234001998	0	0.75	3.75	1	412.933731077999	413.223903552	"9"	16900.922788044	16894.250196161	1.5	0.1
0.01	1	0.252482096000676	1	106	NA	438.144234001998	0	0.75	3.75	1	413.451238287998	413.703720383999	"9"	16900.922788044	16894.250196161	1.5	0.1
0.01	1	0.26344280199919	1	106	NA	438.144234001998	0	0.75	3.75	1	413.935514639999	414.198957441999	"9"	16900.922788044	16894.250196161	1.5	0.1
0.01	1	0.306379457999356	1	106	NA	438.144234001998	0	0.75	3.75	1	414.436352639999	414.742732097999	"9"	16900.922788044	16894.250196161	1.5	0.1
0.01	1	0.25162240499958	1	106	NA	438.144234001998	0	0.75	3.75	1	414.970567717999	415.222190122999	"9"	16900.922788044	16894.250196161	1.5	0.1
0.01	1	0.288863007001055	1	106	NA	438.144234001998	0	0.75	3.75	1	415.454613197999	415.743476205	"9"	16900.922788044	16894.250196161	1.5	0.1
0.01	1	0.259277843999371	1	106	NA	438.144234001998	0	0.75	3.75	1	415.972157933	416.231435776999	"9"	16900.922788044	16894.250196161	1.5	0.1
0.01	1	0.245723416001056	1	106	NA	438.144234001998	0	0.75	3.75	1	416.456473761998	416.702197178	"9"	16900.922788044	16894.250196161	1.5	0.1
0.01	1	0.282932104999418	1	106	NA	438.144234001998	0	0.75	3.75	1	416.940493787999	417.223425892998	"9"	16900.922788044	16894.250196161	1.5	0.1
0.01	1	0.252372013999775	1	106	NA	438.144234001998	0	0.75	3.75	1	417.457980577999	417.710352591999	"9"	16900.922788044	16894.250196161	1.5	0.1
0.01	1	0.281034212999657	1	106	NA	438.144234001998	0	0.75	3.75	1	417.94218604	418.223220252999	"9"	16900.922788044	16894.250196161	1.5	0.1
0.01	1	0.266330311000274	1	106	NA	438.144234001998	0	0.75	3.75	1	418.459676249999	418.726006560999	"9"	16900.922788044	16894.250196161	1.5	0.1
0.01	1	0.278415316999599	1	106	NA	438.144234001998	0	0.75	3.75	1	418.960443882999	419.238859199999	"9"	16900.922788044	16894.250196161	1.5	0.1
0.01	1	0.281771115000083	1	106	NA	438.144234001998	0	0.75	3.75	1	419.461367747999	419.743138862999	"9"	16900.922788044	16894.250196161	1.5	0.1
0.01	1	0.292018453999844	1	106	NA	438.144234001998	0	0.75	3.75	1	419.978915137999	420.270933591999	"9"	16900.922788044	16894.250196161	1.5	0.1
0.01	1	0.325935744000162	1	106	NA	438.144234001998	0	0.75	3.75	1	420.496511047999	420.822446791999	"9"	16900.922788044	16894.250196161	1.5	0.1
0.01	1	0.288373207000404	1	106	NA	438.144234001998	0	0.75	3.75	1	421.047449987998	421.335823194999	"9"	16900.922788044	16894.250196161	1.5	0.1
0.01	1	0.290111526999681	1	106	NA	438.144234001998	0	0.75	3.75	1	421.564930790999	421.855042317999	"9"	16900.922788044	16894.250196161	1.5	0.1
0.01	1	0.252024818999416	1	106	NA	438.144234001998	0	0.75	3.75	1	422.082485883	422.334510702	"9"	16900.922788044	16894.250196161	1.5	0.1
0.01	1	0.280599576999521	1	106	NA	438.144234001998	0	0.75	3.75	1	422.566515127999	422.847114704999	"9"	16900.922788044	16894.250196161	1.5	0.1
0.01	1	0.258403445999647	1	106	NA	438.144234001998	0	0.75	3.75	1	423.084162572999	423.342566018999	"9"	16900.922788044	16894.250196161	1.5	0.1
0.01	1	0.295481948000088	1	106	NA	438.144234001998	0	0.75	3.75	1	423.568281812999	423.863763760999	"9"	16900.922788044	16894.250196161	1.5	0.1
0.01	1	0.281561707999572	1	106	NA	438.144234001998	0	0.75	3.75	1	424.085764783	424.367326490999	"9"	16900.922788044	16894.250196161	1.5	0.1
0.01	1	0.275079566999921	1	106	NA	438.144234001998	0	0.75	3.75	1	424.603436879999	424.878516446999	"9"	16900.922788044	16894.250196161	1.5	0.1
0.01	1	0.349748160999297	1	106	NA	438.144234001998	0	0.75	3.75	1	425.104245869999	425.453994030999	"9"	16900.922788044	16894.250196161	1.5	0.1
0.01	1	0.286280579000959	1	106	NA	438.144234001998	0	0.75	3.75	1	425.688535919999	425.974816499	"9"	16900.922788044	16894.250196161	1.5	0.1
0.01	1	0.225557443000071	1	106	NA	438.144234001998	0	0.75	3.75	1	426.206108517999	426.431665960999	"9"	16900.922788044	16894.250196161	1.5	0.1
0.01	1	0.287087519000124	1	106	NA	438.144234001998	0	0.75	3.75	1	426.65673961	426.943827129	"9"	16900.922788044	16894.250196161	1.5	0.1
0.01	1	0.263640667999425	1	106	NA	438.144234001998	0	0.75	3.75	1	427.174421719999	427.438062387999	"9"	16900.922788044	16894.250196161	1.5	0.1
0.01	1	0.268541626999649	1	106	NA	438.144234001998	0	0.75	3.75	1	427.675240717999	427.943782344999	"9"	16900.922788044	16894.250196161	1.5	0.1
0.01	1	0.287653955998394	1	106	NA	438.144234001998	0	0.75	3.75	1	428.176100318	428.463754273998	"9"	16900.922788044	16894.250196161	1.5	0.1
0.01	1	0.257073404000039	1	106	NA	438.144234001998	0	0.75	3.75	1	428.693505063	428.950578467	"9"	16900.922788044	16894.250196161	1.5	0.1
0.01	1	0.300933630000145	1	106	NA	438.144234001998	0	0.75	3.75	1	429.17782053	429.47875416	"9"	16900.922788044	16894.250196161	1.5	0.1
0.01	1	0.303236671999912	1	106	NA	438.144234001998	0	0.75	3.75	1	429.711962424999	430.015199096999	"9"	16900.922788044	16894.250196161	1.5	0.1
0.01	1	0.31237353799952	1	106	NA	438.144234001998	0	0.75	3.75	1	430.246289068	430.558662605999	"9"	16900.922788044	16894.250196161	1.5	0.1
0.01	1	0.226630611001383	1	106	NA	438.144234001998	0	0.75	3.75	1	430.797066731999	431.023697343	"9"	16900.922788044	16894.250196161	1.5	0.1
0.01	1	0.286412117000509	1	106	NA	438.144234001998	0	0.75	3.75	1	431.247848417999	431.534260535	"9"	16900.922788044	16894.250196161	1.5	0.1
0.01	1	0.289490408000347	1	106	NA	438.144234001998	0	0.75	3.75	1	431.765505969999	432.054996377999	"9"	16900.922788044	16894.250196161	1.5	0.1
0.01	1	0.243459452000025	1	106	NA	438.144234001998	0	0.75	3.75	1	432.282967372999	432.526426824999	"9"	16900.922788044	16894.250196161	1.5	0.1
0.01	1	0.248781088001124	1	106	NA	438.144234001998	0	0.75	3.75	1	432.767035571998	433.015816659999	"9"	16900.922788044	16894.250196161	1.5	0.1
0.01	1	0.26040699800069	1	106	NA	438.144234001998	0	0.75	3.75	1	433.251293862999	433.511700861	"9"	16900.922788044	16894.250196161	1.5	0.1
0.01	1	0.271357147999879	1	106	NA	438.144234001998	0	0.75	3.75	1	433.735405161	434.006762309	"9"	16900.922788044	16894.250196161	1.5	0.1
0.01	1	0.291291679999631	1	106	NA	438.144234001998	0	0.75	3.75	1	434.236262757999	434.527554437998	"9"	16900.922788044	16894.250196161	1.5	0.1
0.01	1	0.292219978999128	1	106	NA	438.144234001998	0	0.75	3.75	1	434.753850878	435.046070856999	"9"	16900.922788044	16894.250196161	1.5	0.1
0.01	1	0.272009317999618	1	106	NA	438.144234001998	0	0.75	3.75	1	435.271251582999	435.543260900999	"9"	16900.922788044	16894.250196161	1.5	0.1
0.01	1	0.290499245998944	1	106	NA	438.144234001998	0	0.75	3.75	1	435.772171773	436.062671018999	"9"	16900.922788044	16894.250196161	1.5	0.1
0.01	1	0.334088743000393	1	106	NA	438.144234001998	0	0.75	3.75	1	436.289834783	436.623923526	"9"	16900.922788044	16894.250196161	1.5	0.1
0.01	1	0.300597809000465	1	106	NA	438.144234001998	0	0.75	3.75	1	436.857405749999	437.158003559	"9"	16900.922788044	16894.250196161	1.5	0.1
0.01	1	0.271655045000443	1	106	NA	438.144234001998	0	0.75	3.75	1	437.391527612999	437.663182658	"9"	16900.922788044	16894.250196161	1.5	0.1
0.01	1	0.250274796999292	2	106	NA	438.144234001998	0	0.75	3.75	1	437.892430745	438.142705541999	"9"	16900.922788044	16894.250196161	1.5	0.1
0.01	1	1.58626785100023	1	21	451.735171732998	NA	1	0	3.75	1	440.196334709999	441.782602560999	"10"	16900.922788044	16894.250196161	1.5	0.1
0.01	1	0.351648871001089	1	21	451.735171732998	NA	1	0	3.75	1	442.015998597999	442.367647469	"10"	16900.922788044	16894.250196161	1.5	0.1
0.01	1	0.230566543999885	1	21	451.735171732998	NA	1	0	3.75	1	442.600378468	442.830945012	"10"	16900.922788044	16894.250196161	1.5	0.1
0.01	1	0.250299149000057	1	21	451.735171732998	NA	1	0	3.75	1	443.067748587999	443.318047736999	"10"	16900.922788044	16894.250196161	1.5	0.1
0.01	1	0.23876933900101	1	21	451.735171732998	NA	1	0	3.75	1	443.551949372999	443.790718712	"10"	16900.922788044	16894.250196161	1.5	0.1
0.01	1	0.258642368999062	1	21	451.735171732998	NA	1	0	3.75	1	444.0194407	444.278083068999	"10"	16900.922788044	16894.250196161	1.5	0.1
0.01	1	0.239039596999646	1	21	451.735171732998	NA	1	0	3.75	1	444.503598424999	444.742638021999	"10"	16900.922788044	16894.250196161	1.5	0.1
0.01	1	0.260641822998878	1	21	451.735171732998	NA	1	0	3.75	1	444.971017209	445.231659031999	"10"	16900.922788044	16894.250196161	1.5	0.1
0.01	1	0.22241958199993	1	21	451.735171732998	NA	1	0	3.75	1	445.471824337999	445.694243919999	"10"	16900.922788044	16894.250196161	1.5	0.1
0.01	1	0.260397158999695	1	21	451.735171732998	NA	1	0	3.75	1	445.922530169999	446.182927328999	"10"	16900.922788044	16894.250196161	1.5	0.1
0.01	1	0.312583204000475	1	21	451.735171732998	NA	1	0	3.75	1	446.406760582999	446.719343786999	"10"	16900.922788044	16894.250196161	1.5	0.1
0.01	1	0.256851341000583	1	21	451.735171732998	NA	1	0	3.75	1	446.941000737999	447.197852079	"10"	16900.922788044	16894.250196161	1.5	0.1
0.01	1	0.309312564999345	1	21	451.735171732998	NA	1	0	3.75	1	447.425038027999	447.734350592998	"10"	16900.922788044	16894.250196161	1.5	0.1
0.01	1	0.255313216001014	1	21	451.735171732998	NA	1	0	3.75	1	447.959359904999	448.214673121	"10"	16900.922788044	16894.250196161	1.5	0.1
0.01	1	0.251397346000886	1	21	451.735171732998	NA	1	0	3.75	1	448.443493007999	448.694890354	"10"	16900.922788044	16894.250196161	1.5	0.1
0.01	1	0.28015998400042	1	21	451.735171732998	NA	1	0	3.75	1	448.927577487999	449.207737471999	"10"	16900.922788044	16894.250196161	1.5	0.1
0.01	1	0.258217889000662	1	21	451.735171732998	NA	1	0	3.75	1	449.445188422998	449.703406311999	"10"	16900.922788044	16894.250196161	1.5	0.1
0.01	1	0.214385806999417	1	21	451.735171732998	NA	1	0	3.75	1	449.929351487999	450.143737294999	"10"	16900.922788044	16894.250196161	1.5	0.1
0.01	1	0.251787911000065	1	21	451.735171732998	NA	1	0	3.75	1	450.380181697999	450.631969608999	"10"	16900.922788044	16894.250196161	1.5	0.1
0.01	1	0.278307401000347	1	21	451.735171732998	NA	1	0	3.75	1	450.86420142	451.142508821	"10"	16900.922788044	16894.250196161	1.5	0.1
0.01	1	0.257832908999262	1	21	451.735171732998	NA	1	0	3.75	1	451.365168822	451.623001730999	"10"	16900.922788044	16894.250196161	1.5	0.1
0.01	1	1.16592691500045	1	19	463.905656782999	NA	1	0	3.75	1	453.769153904999	454.93508082	"11"	16900.922788044	16894.250196161	1.5	0.1
0.01	1	0.266560676000154	1	19	463.905656782999	NA	1	0	3.75	1	455.171484029999	455.438044705999	"11"	16900.922788044	16894.250196161	1.5	0.1
0.01	1	0.206756063000284	1	19	463.905656782999	NA	1	0	3.75	1	455.672253622999	455.879009685999	"11"	16900.922788044	16894.250196161	1.5	0.1
0.01	1	0.253406849000385	1	19	463.905656782999	NA	1	0	3.75	1	456.106330339999	456.359737188999	"11"	16900.922788044	16894.250196161	1.5	0.1
0.01	1	0.272822004999398	1	19	463.905656782999	NA	1	0	3.75	1	456.590524333	456.863346337999	"11"	16900.922788044	16894.250196161	1.5	0.1
0.01	1	0.227392053000585	1	19	463.905656782999	NA	1	0	3.75	1	457.091275741999	457.318667795	"11"	16900.922788044	16894.250196161	1.5	0.1
0.01	1	0.255967920998955	1	19	463.905656782999	NA	1	0	3.75	1	457.542089711	457.798057631999	"11"	16900.922788044	16894.250196161	1.5	0.1
0.01	1	0.29216751399872	1	19	463.905656782999	NA	1	0	3.75	1	458.026315636	458.318483149998	"11"	16900.922788044	16894.250196161	1.5	0.1
0.01	1	0.263275151000926	1	19	463.905656782999	NA	1	0	3.75	1	458.543807442999	458.807082593999	"11"	16900.922788044	16894.250196161	1.5	0.1
0.01	1	0.314631158000338	1	19	463.905656782999	NA	1	0	3.75	1	459.044665542999	459.359296700999	"11"	16900.922788044	16894.250196161	1.5	0.1
0.01	1	0.226419290000194	1	19	463.905656782999	NA	1	0	3.75	1	459.595639654999	459.822058944999	"11"	16900.922788044	16894.250196161	1.5	0.1
0.01	1	0.320514978000574	1	19	463.905656782999	NA	1	0	3.75	1	460.046439152999	460.366954130999	"11"	16900.922788044	16894.250196161	1.5	0.1
0.01	1	0.290102139999362	1	19	463.905656782999	NA	1	0	3.75	1	460.597226802	460.887328941999	"11"	16900.922788044	16894.250196161	1.5	0.1
0.01	1	0.251161259000583	1	19	463.905656782999	NA	1	0	3.75	1	461.114857449998	461.366018708999	"11"	16900.922788044	16894.250196161	1.5	0.1
0.01	1	0.248015444001794	1	19	463.905656782999	NA	1	0	3.75	1	461.598979067998	461.846994512	"11"	16900.922788044	16894.250196161	1.5	0.1
0.01	1	0.291999042001407	1	19	463.905656782999	NA	1	0	3.75	1	462.083001232999	462.375000275	"11"	16900.922788044	16894.250196161	1.5	0.1
0.01	1	0.2293674499997	1	19	463.905656782999	NA	1	0	3.75	1	462.600644353	462.830011803	"11"	16900.922788044	16894.250196161	1.5	0.1
0.01	1	0.267553444999066	1	19	463.905656782999	NA	1	0	3.75	1	463.068107563	463.335661007999	"11"	16900.922788044	16894.250196161	1.5	0.1
0.01	1	0.230024552998657	1	19	463.905656782999	NA	1	0	3.75	1	463.568986328	463.799010880999	"11"	16900.922788044	16894.250196161	1.5	0.1
0.01	1	5.95272188400122	1	63	507.211913450001	NA	1	0	3.75	1	465.956221917999	471.908943802	"12"	16900.922788044	16894.250196161	1.5	0.1
0.01	1	0.200694191997172	1	63	507.211913450001	NA	1	0	3.75	1	472.150038399001	472.350732590998	"12"	16900.922788044	16894.250196161	1.5	0.1
0.01	1	0.237549829998898	1	63	507.211913450001	NA	1	0	3.75	1	472.584089833001	472.821639663	"12"	16900.922788044	16894.250196161	1.5	0.1
0.01	1	0.25833453100131	1	63	507.211913450001	NA	1	0	3.75	1	473.051614637998	473.309949168999	"12"	16900.922788044	16894.250196161	1.5	0.1
0.01	1	0.294330333999824	1	63	507.211913450001	NA	1	0	3.75	1	473.535714997999	473.830045331999	"12"	16900.922788044	16894.250196161	1.5	0.1
0.01	1	0.273871265999333	1	63	507.211913450001	NA	1	0	3.75	1	474.053190868	474.327062134	"12"	16900.922788044	16894.250196161	1.5	0.1
0.01	1	0.292231172999891	1	63	507.211913450001	NA	1	0	3.75	1	474.554063067999	474.846294240999	"12"	16900.922788044	16894.250196161	1.5	0.1
0.01	1	0.293931788000918	1	63	507.211913450001	NA	1	0	3.75	1	475.071618602999	475.365550390999	"12"	16900.922788044	16894.250196161	1.5	0.1
0.01	1	0.232154158999037	1	63	507.211913450001	NA	1	0	3.75	1	475.605871358001	475.838025517	"12"	16900.922788044	16894.250196161	1.5	0.1
0.01	1	0.269645853000839	1	63	507.211913450001	NA	1	0	3.75	1	476.073278967999	476.342924821	"12"	16900.922788044	16894.250196161	1.5	0.1
0.01	1	0.312833515999955	1	63	507.211913450001	NA	1	0	3.75	1	476.574192473001	476.887025989001	"12"	16900.922788044	16894.250196161	1.5	0.1
0.01	1	0.273684089999733	1	63	507.211913450001	NA	1	0	3.75	1	477.125075348	477.398759438	"12"	16900.922788044	16894.250196161	1.5	0.1
0.01	1	0.316531391003082	1	63	507.211913450001	NA	1	0	3.75	1	477.625937987998	477.942469379001	"12"	16900.922788044	16894.250196161	1.5	0.1
0.01	1	0.293103598000016	1	63	507.211913450001	NA	1	0	3.75	1	478.176861518999	478.469965116999	"12"	16900.922788044	16894.250196161	1.5	0.1
0.01	1	0.295692897998379	1	63	507.211913450001	NA	1	0	3.75	1	478.71105226	479.006745157998	"12"	16900.922788044	16894.250196161	1.5	0.1
0.01	1	0.313398000002053	1	63	507.211913450001	NA	1	0	3.75	1	479.228564857998	479.541962858	"12"	16900.922788044	16894.250196161	1.5	0.1
0.01	1	0.346506339999905	1	63	507.211913450001	NA	1	0	3.75	1	479.762831022997	480.109337362997	"12"	16900.922788044	16894.250196161	1.5	0.1
0.01	1	0.267022739000822	1	63	507.211913450001	NA	1	0	3.75	1	480.347073982999	480.614096722	"12"	16900.922788044	16894.250196161	1.5	0.1
0.01	1	0.262727821002045	1	63	507.211913450001	NA	1	0	3.75	1	480.847970027999	481.110697849001	"12"	16900.922788044	16894.250196161	1.5	0.1
0.01	1	0.272763454999222	1	63	507.211913450001	NA	1	0	3.75	1	481.348919681999	481.621683136998	"12"	16900.922788044	16894.250196161	1.5	0.1
0.01	1	0.284739267000987	1	63	507.211913450001	NA	1	0	3.75	1	481.849610497999	482.134349765	"12"	16900.922788044	16894.250196161	1.5	0.1
0.01	1	0.239737642001273	1	63	507.211913450001	NA	1	0	3.75	1	482.367185968998	482.606923611	"12"	16900.922788044	16894.250196161	1.5	0.1
0.01	1	0.300140769999416	1	63	507.211913450001	NA	1	0	3.75	1	482.834731868001	483.134872638	"12"	16900.922788044	16894.250196161	1.5	0.1
0.01	1	0.268549568001617	1	63	507.211913450001	NA	1	0	3.75	1	483.368910152998	483.637459721	"12"	16900.922788044	16894.250196161	1.5	0.1
0.01	1	0.263249554998765	1	63	507.211913450001	NA	1	0	3.75	1	483.869752667999	484.133002222998	"12"	16900.922788044	16894.250196161	1.5	0.1
0.01	1	0.276118265999685	1	63	507.211913450001	NA	1	0	3.75	1	484.370561358	484.646679624	"12"	16900.922788044	16894.250196161	1.5	0.1
0.01	1	0.302261815999373	1	63	507.211913450001	NA	1	0	3.75	1	484.871339244999	485.173601060998	"12"	16900.922788044	16894.250196161	1.5	0.1
0.01	1	0.256166211998789	1	63	507.211913450001	NA	1	0	3.75	1	485.405677418001	485.66184363	"12"	16900.922788044	16894.250196161	1.5	0.1
0.01	1	0.276332166002248	1	63	507.211913450001	NA	1	0	3.75	1	485.889735742998	486.166067909	"12"	16900.922788044	16894.250196161	1.5	0.1
0.01	1	0.318874664997566	1	63	507.211913450001	NA	1	0	3.75	1	486.390575953001	486.709450617998	"12"	16900.922788044	16894.250196161	1.5	0.1
0.01	1	0.328187270999479	1	63	507.211913450001	NA	1	0	3.75	1	486.941588650001	487.269775921	"12"	16900.922788044	16894.250196161	1.5	0.1
0.01	1	0.344535086998803	1	63	507.211913450001	NA	1	0	3.75	1	487.492443638001	487.836978724999	"12"	16900.922788044	16894.250196161	1.5	0.1
0.01	1	0.30674777799868	1	63	507.211913450001	NA	1	0	3.75	1	488.060092053	488.366839830998	"12"	16900.922788044	16894.250196161	1.5	0.1
0.01	1	0.284090921002644	1	63	507.211913450001	NA	1	0	3.75	1	488.594341972997	488.878432894	"12"	16900.922788044	16894.250196161	1.5	0.1
0.01	1	0.342525788997591	1	63	507.211913450001	NA	1	0	3.75	1	489.11194407	489.454469858998	"12"	16900.922788044	16894.250196161	1.5	0.1
0.01	1	0.302237987998524	1	63	507.211913450001	NA	1	0	3.75	1	489.67954888	489.981786867998	"12"	16900.922788044	16894.250196161	1.5	0.1
0.01	1	0.329052869998122	1	63	507.211913450001	NA	1	0	3.75	1	490.213766665	490.542819534998	"12"	16900.922788044	16894.250196161	1.5	0.1
0.01	1	0.352407008002046	1	63	507.211913450001	NA	1	0	3.75	1	490.764693552997	491.117100560999	"12"	16900.922788044	16894.250196161	1.5	0.1
0.01	1	0.313745472998562	1	63	507.211913450001	NA	1	0	3.75	1	491.349002012999	491.662747485998	"12"	16900.922788044	16894.250196161	1.5	0.1
0.01	1	2.52960535500097	1	63	507.211913450001	NA	1	0	3.75	1	491.899983117999	494.429588473	"12"	16900.922788044	16894.250196161	1.5	0.1
0.01	1	0.351392131000466	1	63	507.211913450001	NA	1	0	3.75	1	494.654519697999	495.005911828999	"12"	16900.922788044	16894.250196161	1.5	0.1
0.01	1	0.31970328999887	1	63	507.211913450001	NA	1	0	3.75	1	495.238848665	495.558551954999	"12"	16900.922788044	16894.250196161	1.5	0.1
0.01	1	0.272927434001758	1	63	507.211913450001	NA	1	0	3.75	1	495.789712522999	496.062639957001	"12"	16900.922788044	16894.250196161	1.5	0.1
0.01	1	0.307907399001124	1	63	507.211913450001	NA	1	0	3.75	1	496.290649239998	496.598556638999	"12"	16900.922788044	16894.250196161	1.5	0.1
0.01	1	0.333537655998953	1	63	507.211913450001	NA	1	0	3.75	1	496.824907972999	497.158445628998	"12"	16900.922788044	16894.250196161	1.5	0.1
0.01	1	0.318163313000696	1	63	507.211913450001	NA	1	0	3.75	1	497.392513959998	497.710677272999	"12"	16900.922788044	16894.250196161	1.5	0.1
0.01	1	0.294548887999554	1	63	507.211913450001	NA	1	0	3.75	1	497.943444712999	498.237993600998	"12"	16900.922788044	16894.250196161	1.5	0.1
0.01	1	0.336988565999491	1	63	507.211913450001	NA	1	0	3.75	1	498.477652983	498.814641548999	"12"	16900.922788044	16894.250196161	1.5	0.1
0.01	1	0.328606559000036	1	63	507.211913450001	NA	1	0	3.75	1	499.04527995	499.373886509	"12"	16900.922788044	16894.250196161	1.5	0.1
0.01	1	0.313454187999014	1	63	507.211913450001	NA	1	0	3.75	1	499.596259993001	499.909714181	"12"	16900.922788044	16894.250196161	1.5	0.1
0.01	1	0.355501283000194	1	63	507.211913450001	NA	1	0	3.75	1	500.147112343	500.502613626	"12"	16900.922788044	16894.250196161	1.5	0.1
0.01	1	0.435556469001313	1	63	507.211913450001	NA	1	0	3.75	1	500.731481779998	501.167038248999	"12"	16900.922788044	16894.250196161	1.5	0.1
0.01	1	0.301949886001239	1	63	507.211913450001	NA	1	0	3.75	1	501.399316427998	501.701266313999	"12"	16900.922788044	16894.250196161	1.5	0.1
0.01	1	0.312890826997318	1	63	507.211913450001	NA	1	0	3.75	1	501.933505962001	502.246396788998	"12"	16900.922788044	16894.250196161	1.5	0.1
0.01	1	0.312927240000135	1	63	507.211913450001	NA	1	0	3.75	1	502.484375867998	502.797303107998	"12"	16900.922788044	16894.250196161	1.5	0.1
0.01	1	0.307076888999291	1	63	507.211913450001	NA	1	0	3.75	1	503.018537607999	503.325614496998	"12"	16900.922788044	16894.250196161	1.5	0.1
0.01	1	0.31654293199972	1	63	507.211913450001	NA	1	0	3.75	1	503.552831472998	503.869374404998	"12"	16900.922788044	16894.250196161	1.5	0.1
0.01	1	0.278859404999821	1	63	507.211913450001	NA	1	0	3.75	1	504.103809532999	504.382668937998	"12"	16900.922788044	16894.250196161	1.5	0.1
0.01	1	0.304171179999685	1	63	507.211913450001	NA	1	0	3.75	1	504.621351782998	504.925522962998	"12"	16900.922788044	16894.250196161	1.5	0.1
0.01	1	0.331597435000731	1	63	507.211913450001	NA	1	0	3.75	1	505.155526559998	505.487123994999	"12"	16900.922788044	16894.250196161	1.5	0.1
0.01	1	0.314509607000218	1	63	507.211913450001	NA	1	0	3.75	1	505.723211717997	506.037721324998	"12"	16900.922788044	16894.250196161	1.5	0.1
0.01	1	0.315506811002706	1	63	507.211913450001	NA	1	0	3.75	1	506.274275827998	506.589782639001	"12"	16900.922788044	16894.250196161	1.5	0.1
0.01	1	0.277592553000432	1	63	507.211913450001	NA	1	0	3.75	1	506.824995157998	507.102587710999	"12"	16900.922788044	16894.250196161	1.5	0.1
0.01	1	1.26293879500008	1	54	NA	535.567714584	0	0.5	4.25	1	509.262521482999	510.525460277999	"13"	16900.922788044	16894.250196161	1.5	0.1
0.01	1	0.298228310002742	1	54	NA	535.567714584	0	0.5	4.25	1	510.764928447998	511.063156758	"13"	16900.922788044	16894.250196161	1.5	0.1
0.01	1	0.23391040199931	1	54	NA	535.567714584	0	0.5	4.25	1	511.29926441	511.533174811999	"13"	16900.922788044	16894.250196161	1.5	0.1
0.01	1	0.303634058000171	1	54	NA	535.567714584	0	0.5	4.25	1	511.766738832999	512.070372890999	"13"	16900.922788044	16894.250196161	1.5	0.1
0.01	1	0.280775585997617	1	54	NA	535.567714584	0	0.5	4.25	1	512.30085003	512.581625615998	"13"	16900.922788044	16894.250196161	1.5	0.1
0.01	1	0.258856374999596	1	54	NA	535.567714584	0	0.5	4.25	1	512.818474772999	513.077331147999	"13"	16900.922788044	16894.250196161	1.5	0.1
0.01	1	0.263796227998682	1	54	NA	535.567714584	0	0.5	4.25	1	513.302506279999	513.566302507998	"13"	16900.922788044	16894.250196161	1.5	0.1
0.01	1	0.281855920999078	1	54	NA	535.567714584	0	0.5	4.25	1	513.803502019999	514.085357940998	"13"	16900.922788044	16894.250196161	1.5	0.1
0.01	1	0.252128352	1	54	NA	535.567714584	0	0.5	4.25	1	514.320994437998	514.573122789998	"13"	16900.922788044	16894.250196161	1.5	0.1
0.01	1	0.281636521001928	1	54	NA	535.567714584	0	0.5	4.25	1	514.805036069998	515.086672591	"13"	16900.922788044	16894.250196161	1.5	0.1
0.01	1	0.244264921999275	1	54	NA	535.567714584	0	0.5	4.25	1	515.322619345001	515.566884267	"13"	16900.922788044	16894.250196161	1.5	0.1
0.01	1	0.288225550000789	1	54	NA	535.567714584	0	0.5	4.25	1	515.790066012998	516.078291562999	"13"	16900.922788044	16894.250196161	1.5	0.1
0.01	1	0.282610126996587	1	54	NA	535.567714584	0	0.5	4.25	1	516.307586328001	516.590196454998	"13"	16900.922788044	16894.250196161	1.5	0.1
0.01	1	0.237151149001875	1	54	NA	535.567714584	0	0.5	4.25	1	516.825222122998	517.062373272	"13"	16900.922788044	16894.250196161	1.5	0.1
0.01	1	0.289774526998372	1	54	NA	535.567714584	0	0.5	4.25	1	517.292558903	517.582333429998	"13"	16900.922788044	16894.250196161	1.5	0.1
0.01	1	0.243105433997698	1	54	NA	535.567714584	0	0.5	4.25	1	517.810092365	518.053197798998	"13"	16900.922788044	16894.250196161	1.5	0.1
0.01	1	0.273213668999233	1	54	NA	535.567714584	0	0.5	4.25	1	518.277561487999	518.550775156998	"13"	16900.922788044	16894.250196161	1.5	0.1
0.01	1	0.259496601000137	1	54	NA	535.567714584	0	0.5	4.25	1	518.778476212998	519.037972813998	"13"	16900.922788044	16894.250196161	1.5	0.1
0.01	1	0.255773297001724	1	54	NA	535.567714584	0	0.5	4.25	1	519.262676437998	519.518449735	"13"	16900.922788044	16894.250196161	1.5	0.1
0.01	1	0.267548239000462	1	54	NA	535.567714584	0	0.5	4.25	1	519.74670573	520.014253969	"13"	16900.922788044	16894.250196161	1.5	0.1
0.01	1	0.311456316001568	1	54	NA	535.567714584	0	0.5	4.25	1	520.247535469998	520.558991786	"13"	16900.922788044	16894.250196161	1.5	0.1
0.01	1	0.273133231999964	1	54	NA	535.567714584	0	0.5	4.25	1	520.781874719998	521.055007951998	"13"	16900.922788044	16894.250196161	1.5	0.1
0.01	1	0.21895842199956	1	54	NA	535.567714584	0	0.5	4.25	1	521.282604143	521.501562564999	"13"	16900.922788044	16894.250196161	1.5	0.1
0.01	1	0.256072563002817	1	54	NA	535.567714584	0	0.5	4.25	1	521.733409472998	521.989482036	"13"	16900.922788044	16894.250196161	1.5	0.1
0.01	1	0.236855081999238	1	54	NA	535.567714584	0	0.5	4.25	1	522.217478142999	522.454333224998	"13"	16900.922788044	16894.250196161	1.5	0.1
0.01	1	0.320295500001521	1	54	NA	535.567714584	0	0.5	4.25	1	522.684989627998	523.005285128	"13"	16900.922788044	16894.250196161	1.5	0.1
0.01	1	0.242333559999679	1	54	NA	535.567714584	0	0.5	4.25	1	523.235907401	523.478240961	"13"	16900.922788044	16894.250196161	1.5	0.1
0.01	1	0.263214577000326	1	54	NA	535.567714584	0	0.5	4.25	1	523.703439608	523.966654185	"13"	16900.922788044	16894.250196161	1.5	0.1
0.01	1	0.258419619000051	1	54	NA	535.567714584	0	0.5	4.25	1	524.20424157	524.462661189	"13"	16900.922788044	16894.250196161	1.5	0.1
0.01	1	0.277062025001214	1	54	NA	535.567714584	0	0.5	4.25	1	524.688383309998	524.965445334999	"13"	16900.922788044	16894.250196161	1.5	0.1
0.01	1	0.263991626998177	1	54	NA	535.567714584	0	0.5	4.25	1	525.189212405001	525.453204031999	"13"	16900.922788044	16894.250196161	1.5	0.1
0.01	1	0.252041329997155	1	54	NA	535.567714584	0	0.5	4.25	1	525.690175883001	525.942217212998	"13"	16900.922788044	16894.250196161	1.5	0.1
0.01	1	0.255233570998826	1	54	NA	535.567714584	0	0.5	4.25	1	526.174146418	526.429379988998	"13"	16900.922788044	16894.250196161	1.5	0.1
0.01	1	0.268365662999713	1	54	NA	535.567714584	0	0.5	4.25	1	526.658396408	526.926762071	"13"	16900.922788044	16894.250196161	1.5	0.1
0.01	1	0.271339235001506	1	54	NA	535.567714584	0	0.5	4.25	1	527.159219712999	527.430558948001	"13"	16900.922788044	16894.250196161	1.5	0.1
0.01	1	0.241501839998818	1	54	NA	535.567714584	0	0.5	4.25	1	527.660084090001	527.90158593	"13"	16900.922788044	16894.250196161	1.5	0.1
0.01	1	0.287070760998176	1	54	NA	535.567714584	0	0.5	4.25	1	528.127506336999	528.414577097998	"13"	16900.922788044	16894.250196161	1.5	0.1
0.01	1	0.280242900000303	1	54	NA	535.567714584	0	0.5	4.25	1	528.644984714998	528.925227614998	"13"	16900.922788044	16894.250196161	1.5	0.1
0.01	1	0.244100728003104	1	54	NA	535.567714584	0	0.5	4.25	1	529.162629034998	529.406729763001	"13"	16900.922788044	16894.250196161	1.5	0.1
0.01	1	0.320082512000226	1	54	NA	535.567714584	0	0.5	4.25	1	529.630095545001	529.950178057001	"13"	16900.922788044	16894.250196161	1.5	0.1
0.01	1	0.281777316999069	1	54	NA	535.567714584	0	0.5	4.25	1	530.181036648	530.462813964999	"13"	16900.922788044	16894.250196161	1.5	0.1
0.01	1	0.252251410001918	1	54	NA	535.567714584	0	0.5	4.25	1	530.698528447998	530.950779858	"13"	16900.922788044	16894.250196161	1.5	0.1
0.01	1	0.255636391000735	1	54	NA	535.567714584	0	0.5	4.25	1	531.182606707998	531.438243098999	"13"	16900.922788044	16894.250196161	1.5	0.1
0.01	1	0.259364297999127	1	54	NA	535.567714584	0	0.5	4.25	1	531.666726703001	531.926091001	"13"	16900.922788044	16894.250196161	1.5	0.1
0.01	1	0.238109748999705	1	54	NA	535.567714584	0	0.5	4.25	1	532.167615412998	532.405725161998	"13"	16900.922788044	16894.250196161	1.5	0.1
0.01	1	0.258879340999556	1	54	NA	535.567714584	0	0.5	4.25	1	532.63508975	532.893969090999	"13"	16900.922788044	16894.250196161	1.5	0.1
0.01	1	0.294393714000762	1	54	NA	535.567714584	0	0.5	4.25	1	533.119272488	533.413666202001	"13"	16900.922788044	16894.250196161	1.5	0.1
0.01	1	0.28219628500301	1	54	NA	535.567714584	0	0.5	4.25	1	533.636749872998	533.918946158001	"13"	16900.922788044	16894.250196161	1.5	0.1
0.01	1	0.276008887998614	1	54	NA	535.567714584	0	0.5	4.25	1	534.154288924999	534.430297812998	"13"	16900.922788044	16894.250196161	1.5	0.1
0.01	1	0.319674221998866	1	54	NA	535.567714584	0	0.5	4.25	1	534.65515017	534.974824391998	"13"	16900.922788044	16894.250196161	1.5	0.1
0.01	1	0.360030506999465	2	54	NA	535.567714584	0	0.5	4.25	1	535.206121992998	535.566152499998	"13"	16900.922788044	16894.250196161	1.5	0.1
0.01	1	0.548211364999588	1	103	NA	570.440457702998	0	0.6	4.85	1	537.593335357999	538.141546722998	"14"	16900.922788044	16894.250196161	1.5	0.1
0.01	1	0.235787067998899	1	103	NA	570.440457702998	0	0.6	4.85	1	538.378099759999	538.613886827998	"14"	16900.922788044	16894.250196161	1.5	0.1
0.01	1	0.255523593001271	1	103	NA	570.440457702998	0	0.6	4.85	1	538.845570564999	539.101094158001	"14"	16900.922788044	16894.250196161	1.5	0.1
0.01	1	0.275785588997678	1	103	NA	570.440457702998	0	0.6	4.85	1	539.329652748	539.605438336997	"14"	16900.922788044	16894.250196161	1.5	0.1
0.01	1	0.255434052000055	1	103	NA	570.440457702998	0	0.6	4.85	1	539.83051374	540.085947792	"14"	16900.922788044	16894.250196161	1.5	0.1
0.01	1	0.24252006000097	1	103	NA	570.440457702998	0	0.6	4.85	1	540.314663587998	540.557183647999	"14"	16900.922788044	16894.250196161	1.5	0.1
0.01	1	0.279789227999572	1	103	NA	570.440457702998	0	0.6	4.85	1	540.782147142998	541.061936370998	"14"	16900.922788044	16894.250196161	1.5	0.1
0.01	1	0.235340089999227	1	103	NA	570.440457702998	0	0.6	4.85	1	541.29963204	541.534972129999	"14"	16900.922788044	16894.250196161	1.5	0.1
0.01	1	0.270178907001537	1	103	NA	570.440457702998	0	0.6	4.85	1	541.767154660998	542.037333568	"14"	16900.922788044	16894.250196161	1.5	0.1
0.01	1	0.273706873002084	1	103	NA	570.440457702998	0	0.6	4.85	1	542.268050729997	542.541757602999	"14"	16900.922788044	16894.250196161	1.5	0.1
0.01	1	0.268553484998847	1	103	NA	570.440457702998	0	0.6	4.85	1	542.768772193	543.037325677999	"14"	16900.922788044	16894.250196161	1.5	0.1
0.01	1	0.272684080002364	1	103	NA	570.440457702998	0	0.6	4.85	1	543.269692692998	543.542376773001	"14"	16900.922788044	16894.250196161	1.5	0.1
0.01	1	0.25139794399729	1	103	NA	570.440457702998	0	0.6	4.85	1	543.770563698001	544.021961641998	"14"	16900.922788044	16894.250196161	1.5	0.1
0.01	1	0.247017894998862	1	103	NA	570.440457702998	0	0.6	4.85	1	544.254597793	544.501615687999	"14"	16900.922788044	16894.250196161	1.5	0.1
0.01	1	0.258511314001225	1	103	NA	570.440457702998	0	0.6	4.85	1	544.73876866	544.997279974001	"14"	16900.922788044	16894.250196161	1.5	0.1
0.01	1	0.264083373000176	1	103	NA	570.440457702998	0	0.6	4.85	1	545.222931407998	545.487014780998	"14"	16900.922788044	16894.250196161	1.5	0.1
0.01	1	0.243029584002215	1	103	NA	570.440457702998	0	0.6	4.85	1	545.723789107999	545.966818692001	"14"	16900.922788044	16894.250196161	1.5	0.1
0.01	1	0.278630253000301	1	103	NA	570.440457702998	0	0.6	4.85	1	546.191280647998	546.469910900998	"14"	16900.922788044	16894.250196161	1.5	0.1
0.01	1	0.290709495999181	1	103	NA	570.440457702998	0	0.6	4.85	1	546.692038677998	546.982748173998	"14"	16900.922788044	16894.250196161	1.5	0.1
0.01	1	0.229351180001686	1	103	NA	570.440457702998	0	0.6	4.85	1	547.209639242998	547.438990422999	"14"	16900.922788044	16894.250196161	1.5	0.1
0.01	1	0.241217946000688	1	103	NA	570.440457702998	0	0.6	4.85	1	547.677071011998	547.918288957999	"14"	16900.922788044	16894.250196161	1.5	0.1
0.01	1	0.284694355999818	1	103	NA	570.440457702998	0	0.6	4.85	1	548.144521994998	548.429216350998	"14"	16900.922788044	16894.250196161	1.5	0.1
0.01	1	0.247202975002438	1	103	NA	570.440457702998	0	0.6	4.85	1	548.662106392998	548.909309368	"14"	16900.922788044	16894.250196161	1.5	0.1
0.01	1	0.21889686799841	1	103	NA	570.440457702998	0	0.6	4.85	1	549.146108093	549.365004960999	"14"	16900.922788044	16894.250196161	1.5	0.1
0.01	1	0.257571449998068	1	103	NA	570.440457702998	0	0.6	4.85	1	549.597032573	549.854604022998	"14"	16900.922788044	16894.250196161	1.5	0.1
0.01	1	0.252683549999347	1	103	NA	570.440457702998	0	0.6	4.85	1	550.081074382999	550.333757932998	"14"	16900.922788044	16894.250196161	1.5	0.1
0.01	1	0.264573012998881	1	103	NA	570.440457702998	0	0.6	4.85	1	550.565268533001	550.829841545999	"14"	16900.922788044	16894.250196161	1.5	0.1
0.01	1	0.236878355000954	1	103	NA	570.440457702998	0	0.6	4.85	1	551.066183887999	551.303062243	"14"	16900.922788044	16894.250196161	1.5	0.1
