"payoff.level"	"balloon"	"rt"	"resp"	"explode.trial"	"explode.time"	"finish.time"	"exploded"	"trial.total"	"cumulative.total"	"finished"	"trial.start"	"trial.end"	"trial.num"	"secs"	"start.time"	"iti"	"isi"
0.01	1	2.15245685800073	1	64	55.3559902490015	NA	1	0	0	1	0.0113318990006519	2.16378875700138	"1"	13090.729450385	12820.679135651	1.5	0.1
0.01	1	0.855378428001131	1	64	55.3559902490015	NA	1	0	0	1	2.54898631200012	3.40436474000126	"1"	13090.729450385	12820.679135651	1.5	0.1
0.01	1	1.10716127100022	1	64	55.3559902490015	NA	1	0	0	1	3.63407228899996	4.74123356000018	"1"	13090.729450385	12820.679135651	1.5	0.1
0.01	1	0.954064841998843	1	64	55.3559902490015	NA	1	0	0	1	4.96985902600136	5.9239238680002	"1"	13090.729450385	12820.679135651	1.5	0.1
0.01	1	1.13090631100022	1	64	55.3559902490015	NA	1	0	0	1	6.1550707410006	7.28597705200082	"1"	13090.729450385	12820.679135651	1.5	0.1
0.01	1	0.968464849998782	1	64	55.3559902490015	NA	1	0	0	1	7.52411850400131	8.49258335400009	"1"	13090.729450385	12820.679135651	1.5	0.1
0.01	1	1.03814333300033	1	64	55.3559902490015	NA	1	0	0	1	8.72603048400015	9.76417381700048	"1"	13090.729450385	12820.679135651	1.5	0.1
0.01	1	0.905805911999778	1	64	55.3559902490015	NA	1	0	0	1	9.99483630600116	10.9006422180009	"1"	13090.729450385	12820.679135651	1.5	0.1
0.01	1	0.69009240000014	1	64	55.3559902490015	NA	1	0	0	1	11.1300459780014	11.8201383780015	"1"	13090.729450385	12820.679135651	1.5	0.1
0.01	1	0.412755080000352	1	64	55.3559902490015	NA	1	0	0	1	12.0483763880002	12.4611314680005	"1"	13090.729450385	12820.679135651	1.5	0.1
0.01	1	0.600814117000482	1	64	55.3559902490015	NA	1	0	0	1	12.699459630001	13.3002737470015	"1"	13090.729450385	12820.679135651	1.5	0.1
0.01	1	2.24557103700135	1	64	55.3559902490015	NA	1	0	0	1	13.5340735270001	15.7796445640015	"1"	13090.729450385	12820.679135651	1.5	0.1
0.01	1	0.95181617200069	1	64	55.3559902490015	NA	1	0	0	1	16.0049790680005	16.9567952400012	"1"	13090.729450385	12820.679135651	1.5	0.1
0.01	1	0.598821748999399	1	64	55.3559902490015	NA	1	0	0	1	17.1902485490009	17.7890702980003	"1"	13090.729450385	12820.679135651	1.5	0.1
0.01	1	0.506423119999454	1	64	55.3559902490015	NA	1	0	0	1	18.0250132800011	18.5314364000005	"1"	13090.729450385	12820.679135651	1.5	0.1
0.01	1	0.477513592000832	1	64	55.3559902490015	NA	1	0	0	1	18.7595607460007	19.2370743380015	"1"	13090.729450385	12820.679135651	1.5	0.1
0.01	1	0.512405053999828	1	64	55.3559902490015	NA	1	0	0	1	19.4607818670011	19.9731869210009	"1"	13090.729450385	12820.679135651	1.5	0.1
0.01	1	0.503108889000941	1	64	55.3559902490015	NA	1	0	0	1	20.2121245430008	20.7152334320017	"1"	13090.729450385	12820.679135651	1.5	0.1
0.01	1	0.489168132000486	1	64	55.3559902490015	NA	1	0	0	1	20.9465805680011	21.4357487000016	"1"	13090.729450385	12820.679135651	1.5	0.1
0.01	1	0.588359334000415	1	64	55.3559902490015	NA	1	0	0	1	21.6644804560001	22.2528397900005	"1"	13090.729450385	12820.679135651	1.5	0.1
0.01	1	1.20073435300037	1	64	55.3559902490015	NA	1	0	0	1	22.4825541850005	23.6832885380009	"1"	13090.729450385	12820.679135651	1.5	0.1
0.01	1	0.693128616998365	1	64	55.3559902490015	NA	1	0	0	1	23.9182750200016	24.611403637	"1"	13090.729450385	12820.679135651	1.5	0.1
0.01	1	0.535324219999893	1	64	55.3559902490015	NA	1	0	0	1	24.8365484500009	25.3718726700008	"1"	13090.729450385	12820.679135651	1.5	0.1
0.01	1	0.359197163001227	1	64	55.3559902490015	NA	1	0	0	1	25.604409435	25.9636065980012	"1"	13090.729450385	12820.679135651	1.5	0.1
0.01	1	0.262627317999431	1	64	55.3559902490015	NA	1	0	0	1	26.1888668160009	26.4514941340003	"1"	13090.729450385	12820.679135651	1.5	0.1
0.01	1	2.99467905799975	1	64	55.3559902490015	NA	1	0	0	1	26.6896542270006	29.6843332850003	"1"	13090.729450385	12820.679135651	1.5	0.1
0.01	1	0.260633038000378	1	64	55.3559902490015	NA	1	0	0	1	29.9117016939999	30.1723347320003	"1"	13090.729450385	12820.679135651	1.5	0.1
0.01	1	0.0405046320011024	1	64	55.3559902490015	NA	1	0	0	1	30.4125320660005	30.4530366980016	"1"	13090.729450385	12820.679135651	1.5	0.1
0.01	1	0.00421825800003717	1	64	55.3559902490015	NA	1	0	0	1	30.6797469190005	30.6839651770006	"1"	13090.729450385	12820.679135651	1.5	0.1
0.01	1	0.00307391600108531	1	64	55.3559902490015	NA	1	0	0	1	30.9133990600003	30.9164729760014	"1"	13090.729450385	12820.679135651	1.5	0.1
0.01	1	0.114050357000451	1	64	55.3559902490015	NA	1	0	0	1	31.1471799290011	31.2612302860016	"1"	13090.729450385	12820.679135651	1.5	0.1
0.01	1	0.00207646300077613	1	64	55.3559902490015	NA	1	0	0	1	31.4977273290006	31.4998037920013	"1"	13090.729450385	12820.679135651	1.5	0.1
0.01	1	0.0737757870010682	1	64	55.3559902490015	NA	1	0	0	1	31.7314236990005	31.8051994860016	"1"	13090.729450385	12820.679135651	1.5	0.1
0.01	1	0.00208245599969814	1	64	55.3559902490015	NA	1	0	0	1	32.0319668820011	32.0340493380008	"1"	13090.729450385	12820.679135651	1.5	0.1
0.01	1	0.00220286299918371	1	64	55.3559902490015	NA	1	0	0	1	32.2656640060013	32.2678668690005	"1"	13090.729450385	12820.679135651	1.5	0.1
0.01	1	0.46416275699994	1	64	55.3559902490015	NA	1	0	0	1	32.499382805001	32.9635455620009	"1"	13090.729450385	12820.679135651	1.5	0.1
0.01	1	0.292240590999427	1	64	55.3559902490015	NA	1	0	0	1	33.2005787760008	33.4928193670003	"1"	13090.729450385	12820.679135651	1.5	0.1
0.01	1	0.741680798999369	1	64	55.3559902490015	NA	1	0	0	1	33.7181367320009	34.4598175310002	"1"	13090.729450385	12820.679135651	1.5	0.1
0.01	1	0.269871236001563	1	64	55.3559902490015	NA	1	0	0	1	34.6864016449999	34.9562728810015	"1"	13090.729450385	12820.679135651	1.5	0.1
0.01	1	0.201603430999967	1	64	55.3559902490015	NA	1	0	0	1	35.1873164190001	35.3889198500001	"1"	13090.729450385	12820.679135651	1.5	0.1
0.01	1	0.0954397170007724	1	64	55.3559902490015	NA	1	0	0	1	35.6212549200009	35.7166946370016	"1"	13090.729450385	12820.679135651	1.5	0.1
0.01	1	0.281717296998977	1	64	55.3559902490015	NA	1	0	0	1	35.9383906810017	36.2201079780007	"1"	13090.729450385	12820.679135651	1.5	0.1
0.01	1	0.188112169000306	1	64	55.3559902490015	NA	1	0	0	1	36.4559708420002	36.6440830110005	"1"	13090.729450385	12820.679135651	1.5	0.1
0.01	1	0.875314397999318	1	64	55.3559902490015	NA	1	0	0	1	36.8733056400015	37.7486200380008	"1"	13090.729450385	12820.679135651	1.5	0.1
0.01	1	0.356300397999803	1	64	55.3559902490015	NA	1	0	0	1	37.9751705360013	38.3314709340011	"1"	13090.729450385	12820.679135651	1.5	0.1
0.01	1	0.17200615100046	1	64	55.3559902490015	NA	1	0	0	1	38.5595606830011	38.7315668340016	"1"	13090.729450385	12820.679135651	1.5	0.1
0.01	1	0.141331098999217	1	64	55.3559902490015	NA	1	0	0	1	38.9602332780014	39.1015643770006	"1"	13090.729450385	12820.679135651	1.5	0.1
0.01	1	5.4332930519995	1	64	55.3559902490015	NA	1	0	0	1	39.3274698300011	44.7607628820006	"1"	13090.729450385	12820.679135651	1.5	0.1
0.01	1	0.276708706000136	1	64	55.3559902490015	NA	1	0	0	1	44.9869411800009	45.2636498860011	"1"	13090.729450385	12820.679135651	1.5	0.1
0.01	1	0.031844896999246	1	64	55.3559902490015	NA	1	0	0	1	45.5046086310012	45.5364535280005	"1"	13090.729450385	12820.679135651	1.5	0.1
0.01	1	0.116083725999488	1	64	55.3559902490015	NA	1	0	0	1	45.7716651780011	45.8877489040005	"1"	13090.729450385	12820.679135651	1.5	0.1
0.01	1	0.0385275810003805	1	64	55.3559902490015	NA	1	0	0	1	46.1223184660012	46.1608460470015	"1"	13090.729450385	12820.679135651	1.5	0.1
0.01	1	0.07598175000021	1	64	55.3559902490015	NA	1	0	0	1	46.3893223160012	46.4653040660014	"1"	13090.729450385	12820.679135651	1.5	0.1
0.01	1	0.0791518550013279	1	64	55.3559902490015	NA	1	0	0	1	46.6899511020001	46.7691029570015	"1"	13090.729450385	12820.679135651	1.5	0.1
0.01	1	0.0405065710001509	1	64	55.3559902490015	NA	1	0	0	1	47.0070296860013	47.0475362570014	"1"	13090.729450385	12820.679135651	1.5	0.1
0.01	1	0.0710133119991951	1	64	55.3559902490015	NA	1	0	0	1	47.2742525040012	47.3452658160004	"1"	13090.729450385	12820.679135651	1.5	0.1
0.01	1	0.970048903998759	1	64	55.3559902490015	NA	1	0	0	1	47.5748011940013	48.5448500980001	"1"	13090.729450385	12820.679135651	1.5	0.1
0.01	1	3.25508379300118	1	64	55.3559902490015	NA	1	0	0	1	48.7769360120001	52.0320198050013	"1"	13090.729450385	12820.679135651	1.5	0.1
0.01	1	0.286817730999246	1	64	55.3559902490015	NA	1	0	0	1	52.2659516750009	52.5527694060002	"1"	13090.729450385	12820.679135651	1.5	0.1
0.01	1	0.33803192599953	1	64	55.3559902490015	NA	1	0	0	1	52.7834546000013	53.1214865260008	"1"	13090.729450385	12820.679135651	1.5	0.1
0.01	1	0.0502226850003353	1	64	55.3559902490015	NA	1	0	0	1	53.3510276180004	53.4012503030008	"1"	13090.729450385	12820.679135651	1.5	0.1
0.01	1	0.00219574199945782	1	64	55.3559902490015	NA	1	0	0	1	53.634886445001	53.6370821870005	"1"	13090.729450385	12820.679135651	1.5	0.1
0.01	1	0.0916664389988	1	64	55.3559902490015	NA	1	0	0	1	53.8686395560017	53.9603059950005	"1"	13090.729450385	12820.679135651	1.5	0.1
0.01	1	0.998046782999154	1	64	55.3559902490015	NA	1	0	0	1	54.1858523750016	55.1838991580007	"1"	13090.729450385	12820.679135651	1.5	0.1
0.01	1	1.7314653049998	1	102	NA	73.4524571720012	0	0.47	0.47	1	57.4080122570012	59.139477562001	"2"	13090.729450385	12820.679135651	1.5	0.1
0.01	1	0.00365742100075295	1	102	NA	73.4524571720012	0	0.47	0.47	1	59.3780291290004	59.3816865500012	"2"	13090.729450385	12820.679135651	1.5	0.1
0.01	1	0.126254150000022	1	102	NA	73.4524571720012	0	0.47	0.47	1	59.6117186570009	59.7379728070009	"2"	13090.729450385	12820.679135651	1.5	0.1
0.01	1	0.00239399000020057	1	102	NA	73.4524571720012	0	0.47	0.47	1	59.9622665260013	59.9646605160015	"2"	13090.729450385	12820.679135651	1.5	0.1
0.01	1	0.00463640700036194	1	102	NA	73.4524571720012	0	0.47	0.47	1	60.196078637	60.2007150440004	"2"	13090.729450385	12820.679135651	1.5	0.1
0.01	1	0.00401440099994943	1	102	NA	73.4524571720012	0	0.47	0.47	1	60.4297673090005	60.4337817100004	"2"	13090.729450385	12820.679135651	1.5	0.1
0.01	1	0.0043727950014727	1	102	NA	73.4524571720012	0	0.47	0.47	1	60.6634887939999	60.6678615890014	"2"	13090.729450385	12820.679135651	1.5	0.1
0.01	1	0.13740393900116	1	102	NA	73.4524571720012	0	0.47	0.47	1	60.8973139320005	61.0347178710017	"2"	13090.729450385	12820.679135651	1.5	0.1
0.01	1	0.0111786420002318	1	102	NA	73.4524571720012	0	0.47	0.47	1	61.2645522920011	61.2757309340013	"2"	13090.729450385	12820.679135651	1.5	0.1
0.01	1	0.00254173400026048	1	102	NA	73.4524571720012	0	0.47	0.47	1	61.4981530180012	61.5006947520014	"2"	13090.729450385	12820.679135651	1.5	0.1
0.01	1	0.0020821430007345	1	102	NA	73.4524571720012	0	0.47	0.47	1	61.7318810790002	61.733963222001	"2"	13090.729450385	12820.679135651	1.5	0.1
0.01	1	0.00382442800037097	1	102	NA	73.4524571720012	0	0.47	0.47	1	61.965606754	61.9694311820003	"2"	13090.729450385	12820.679135651	1.5	0.1
0.01	1	0.00209605300005933	1	102	NA	73.4524571720012	0	0.47	0.47	1	62.1994579410002	62.2015539940003	"2"	13090.729450385	12820.679135651	1.5	0.1
0.01	1	0.00398356699952274	1	102	NA	73.4524571720012	0	0.47	0.47	1	62.4331212370016	62.4371048040011	"2"	13090.729450385	12820.679135651	1.5	0.1
0.01	1	0.136147393999636	1	102	NA	73.4524571720012	0	0.47	0.47	1	62.6667539220016	62.8029013160012	"2"	13090.729450385	12820.679135651	1.5	0.1
0.01	1	0.00257506699927035	1	102	NA	73.4524571720012	0	0.47	0.47	1	63.0341182500015	63.0366933170008	"2"	13090.729450385	12820.679135651	1.5	0.1
0.01	1	0.00450880700009293	1	102	NA	73.4524571720012	0	0.47	0.47	1	63.2679366020002	63.2724454090003	"2"	13090.729450385	12820.679135651	1.5	0.1
0.01	1	0.0210623550010496	1	102	NA	73.4524571720012	0	0.47	0.47	1	63.5015861520005	63.5226485070016	"2"	13090.729450385	12820.679135651	1.5	0.1
0.01	1	0.0428609919999872	1	102	NA	73.4524571720012	0	0.47	0.47	1	63.7520227020013	63.7948836940013	"2"	13090.729450385	12820.679135651	1.5	0.1
0.01	1	0.0474582010010636	1	102	NA	73.4524571720012	0	0.47	0.47	1	64.0191567490001	64.0666149500012	"2"	13090.729450385	12820.679135651	1.5	0.1
0.01	1	0.00664048900034686	1	102	NA	73.4524571720012	0	0.47	0.47	1	64.3028458790013	64.3094863680017	"2"	13090.729450385	12820.679135651	1.5	0.1
0.01	1	0.00981587800015404	1	102	NA	73.4524571720012	0	0.47	0.47	1	64.5365710320002	64.5463869100004	"2"	13090.729450385	12820.679135651	1.5	0.1
0.01	1	0.0319149700007983	1	102	NA	73.4524571720012	0	0.47	0.47	1	64.7703790680007	64.8022940380015	"2"	13090.729450385	12820.679135651	1.5	0.1
0.01	1	0.00222323900015908	1	102	NA	73.4524571720012	0	0.47	0.47	1	65.0376538600012	65.0398770990014	"2"	13090.729450385	12820.679135651	1.5	0.1
0.01	1	0.00220170100146788	1	102	NA	73.4524571720012	0	0.47	0.47	1	65.2712560170003	65.2734577180017	"2"	13090.729450385	12820.679135651	1.5	0.1
0.01	1	0.016865895000592	1	102	NA	73.4524571720012	0	0.47	0.47	1	65.5048552990011	65.5217211940017	"2"	13090.729450385	12820.679135651	1.5	0.1
0.01	1	0.00360262300091563	1	102	NA	73.4524571720012	0	0.47	0.47	1	65.7553089590001	65.758911582001	"2"	13090.729450385	12820.679135651	1.5	0.1
0.01	1	0.0209341200006747	1	102	NA	73.4524571720012	0	0.47	0.47	1	65.9891026519999	66.0100367720006	"2"	13090.729450385	12820.679135651	1.5	0.1
0.01	1	0.0268440719992213	1	102	NA	73.4524571720012	0	0.47	0.47	1	66.2396080520011	66.2664521240004	"2"	13090.729450385	12820.679135651	1.5	0.1
0.01	1	0.0484729029994924	1	102	NA	73.4524571720012	0	0.47	0.47	1	66.4899859320012	66.5384588350007	"2"	13090.729450385	12820.679135651	1.5	0.1
0.01	1	0.0445340229998692	1	102	NA	73.4524571720012	0	0.47	0.47	1	66.7737942520016	66.8183282750015	"2"	13090.729450385	12820.679135651	1.5	0.1
0.01	1	0.0505851520010765	1	102	NA	73.4524571720012	0	0.47	0.47	1	67.0410248070002	67.0916099590013	"2"	13090.729450385	12820.679135651	1.5	0.1
0.01	1	0.0227971439999237	1	102	NA	73.4524571720012	0	0.47	0.47	1	67.3247204670006	67.3475176110005	"2"	13090.729450385	12820.679135651	1.5	0.1
0.01	1	0.00696391499877791	1	102	NA	73.4524571720012	0	0.47	0.47	1	67.5751210570015	67.5820849720003	"2"	13090.729450385	12820.679135651	1.5	0.1
0.01	1	0.00957305200063274	1	102	NA	73.4524571720012	0	0.47	0.47	1	67.8088018369999	67.8183748890006	"2"	13090.729450385	12820.679135651	1.5	0.1
0.01	1	0.0311824519994843	1	102	NA	73.4524571720012	0	0.47	0.47	1	68.0425124570011	68.0736949090006	"2"	13090.729450385	12820.679135651	1.5	0.1
0.01	1	0.525529557999107	1	102	NA	73.4524571720012	0	0.47	0.47	1	68.309638398001	68.8351679560001	"2"	13090.729450385	12820.679135651	1.5	0.1
0.01	1	0.805545098999573	1	102	NA	73.4524571720012	0	0.47	0.47	1	69.0609987780008	69.8665438770004	"2"	13090.729450385	12820.679135651	1.5	0.1
0.01	1	0.475232680000772	1	102	NA	73.4524571720012	0	0.47	0.47	1	70.0960780370006	70.5713107170013	"2"	13090.729450385	12820.679135651	1.5	0.1
0.01	1	0.246193658000266	1	102	NA	73.4524571720012	0	0.47	0.47	1	70.7972571970004	71.0434508550006	"2"	13090.729450385	12820.679135651	1.5	0.1
0.01	1	0.0901700139984314	1	102	NA	73.4524571720012	0	0.47	0.47	1	71.2813982470016	71.371568261	"2"	13090.729450385	12820.679135651	1.5	0.1
0.01	1	0.0676942990012321	1	102	NA	73.4524571720012	0	0.47	0.47	1	71.5986372070001	71.6663315060014	"2"	13090.729450385	12820.679135651	1.5	0.1
0.01	1	0.0225197990002926	1	102	NA	73.4524571720012	0	0.47	0.47	1	71.8991029270001	71.9216227260004	"2"	13090.729450385	12820.679135651	1.5	0.1
0.01	1	0.0204815699999017	1	102	NA	73.4524571720012	0	0.47	0.47	1	72.1494361170007	72.1699176870006	"2"	13090.729450385	12820.679135651	1.5	0.1
0.01	1	0.019554930000595	1	102	NA	73.4524571720012	0	0.47	0.47	1	72.3998065270007	72.4193614570013	"2"	13090.729450385	12820.679135651	1.5	0.1
0.01	1	0.0111179969990189	1	102	NA	73.4524571720012	0	0.47	0.47	1	72.6503014670016	72.6614194640006	"2"	13090.729450385	12820.679135651	1.5	0.1
0.01	1	0.02261442300005	1	102	NA	73.4524571720012	0	0.47	0.47	1	72.8839653720006	72.9065797950007	"2"	13090.729450385	12820.679135651	1.5	0.1
0.01	1	0.316330195999399	2	102	NA	73.4524571720012	0	0.47	0.47	1	73.1345115590011	73.4508417550005	"2"	13090.729450385	12820.679135651	1.5	0.1
0.01	1	1.35376451200136	1	97	NA	94.3087588480012	0	0.51	0.98	1	75.5050722420001	76.8588367540015	"3"	13090.729450385	12820.679135651	1.5	0.1
0.01	1	0.00202037800045218	1	97	NA	94.3087588480012	0	0.51	0.98	1	77.0910662160004	77.0930865940009	"3"	13090.729450385	12820.679135651	1.5	0.1
0.01	1	0.109359529998983	1	97	NA	94.3087588480012	0	0.51	0.98	1	77.3247329220012	77.4340924520002	"3"	13090.729450385	12820.679135651	1.5	0.1
0.01	1	0.00436523000098532	1	97	NA	94.3087588480012	0	0.51	0.98	1	77.658832567	77.663197797001	"3"	13090.729450385	12820.679135651	1.5	0.1
0.01	1	0.133839538999382	1	97	NA	94.3087588480012	0	0.51	0.98	1	77.8924382470013	78.0262777860007	"3"	13090.729450385	12820.679135651	1.5	0.1
0.01	1	0.00200957099877996	1	97	NA	94.3087588480012	0	0.51	0.98	1	78.2597075210015	78.2617170920003	"3"	13090.729450385	12820.679135651	1.5	0.1
0.01	1	0.003817994000201	1	97	NA	94.3087588480012	0	0.51	0.98	1	78.4934843540013	78.4973023480015	"3"	13090.729450385	12820.679135651	1.5	0.1
0.01	1	0.116162065000026	1	97	NA	94.3087588480012	0	0.51	0.98	1	78.7272899670006	78.8434520320006	"3"	13090.729450385	12820.679135651	1.5	0.1
0.01	1	0.00208212200050184	1	97	NA	94.3087588480012	0	0.51	0.98	1	79.0777976270001	79.0798797490006	"3"	13090.729450385	12820.679135651	1.5	0.1
0.01	1	0.00207946100090339	1	97	NA	94.3087588480012	0	0.51	0.98	1	79.3114004870004	79.3134799480013	"3"	13090.729450385	12820.679135651	1.5	0.1
0.01	1	0.11305623500084	1	97	NA	94.3087588480012	0	0.51	0.98	1	79.5453277220004	79.6583839570012	"3"	13090.729450385	12820.679135651	1.5	0.1
0.01	1	0.00442230099906737	1	97	NA	94.3087588480012	0	0.51	0.98	1	79.8958623310009	79.900284632	"3"	13090.729450385	12820.679135651	1.5	0.1
0.01	1	0.003951689999667	1	97	NA	94.3087588480012	0	0.51	0.98	1	80.1295286920013	80.1334803820009	"3"	13090.729450385	12820.679135651	1.5	0.1
0.01	1	0.135774423000839	1	97	NA	94.3087588480012	0	0.51	0.98	1	80.3632504090001	80.4990248320009	"3"	13090.729450385	12820.679135651	1.5	0.1
0.01	1	0.224519252000391	1	97	NA	94.3087588480012	0	0.51	0.98	1	80.7305380690013	80.9550573210017	"3"	13090.729450385	12820.679135651	1.5	0.1
0.01	1	0.1972801360007	1	97	NA	94.3087588480012	0	0.51	0.98	1	81.1813293390005	81.3786094750012	"3"	13090.729450385	12820.679135651	1.5	0.1
0.01	1	0.298821615999259	1	97	NA	94.3087588480012	0	0.51	0.98	1	81.6152989070015	81.9141205230007	"3"	13090.729450385	12820.679135651	1.5	0.1
0.01	1	0.100581982000222	1	97	NA	94.3087588480012	0	0.51	0.98	1	82.149669892	82.2502518740002	"3"	13090.729450385	12820.679135651	1.5	0.1
0.01	1	0.0959298529996886	1	97	NA	94.3087588480012	0	0.51	0.98	1	82.4835881090003	82.579517962	"3"	13090.729450385	12820.679135651	1.5	0.1
0.01	1	0.0326149219999934	1	97	NA	94.3087588480012	0	0.51	0.98	1	82.8175279320003	82.8501428540003	"3"	13090.729450385	12820.679135651	1.5	0.1
0.01	1	0.0223939080005948	1	97	NA	94.3087588480012	0	0.51	0.98	1	83.0845844670002	83.1069783750008	"3"	13090.729450385	12820.679135651	1.5	0.1
0.01	1	0.0268766230001347	1	97	NA	94.3087588480012	0	0.51	0.98	1	83.335074992001	83.3619516150011	"3"	13090.729450385	12820.679135651	1.5	0.1
0.01	1	0.00385504400037462	1	97	NA	94.3087588480012	0	0.51	0.98	1	83.5852784720009	83.5891335160013	"3"	13090.729450385	12820.679135651	1.5	0.1
0.01	1	0.00231012299991562	1	97	NA	94.3087588480012	0	0.51	0.98	1	83.8189896780004	83.8212998010004	"3"	13090.729450385	12820.679135651	1.5	0.1
0.01	1	0.00451628699920548	1	97	NA	94.3087588480012	0	0.51	0.98	1	84.052865732001	84.0573820190002	"3"	13090.729450385	12820.679135651	1.5	0.1
0.01	1	0.00470863200098393	1	97	NA	94.3087588480012	0	0.51	0.98	1	84.2865214270005	84.2912300590015	"3"	13090.729450385	12820.679135651	1.5	0.1
0.01	1	1.29930156900082	1	97	NA	94.3087588480012	0	0.51	0.98	1	84.5203217790004	85.8196233480012	"3"	13090.729450385	12820.679135651	1.5	0.1
0.01	1	0.106279833000372	1	97	NA	94.3087588480012	0	0.51	0.98	1	86.0562224820005	86.1625023150009	"3"	13090.729450385	12820.679135651	1.5	0.1
0.01	1	0.0211339899997256	1	97	NA	94.3087588480012	0	0.51	0.98	1	86.3900854470012	86.4112194370009	"3"	13090.729450385	12820.679135651	1.5	0.1
0.01	1	0.0263723070002015	1	97	NA	94.3087588480012	0	0.51	0.98	1	86.6405795420014	86.6669518490016	"3"	13090.729450385	12820.679135651	1.5	0.1
0.01	1	0.0149645279998367	1	97	NA	94.3087588480012	0	0.51	0.98	1	86.8908963890008	86.9058609170006	"3"	13090.729450385	12820.679135651	1.5	0.1
0.01	1	0.00330059800035087	1	97	NA	94.3087588480012	0	0.51	0.98	1	87.1413114860006	87.144612084001	"3"	13090.729450385	12820.679135651	1.5	0.1
0.01	1	0.00463337200017122	1	97	NA	94.3087588480012	0	0.51	0.98	1	87.3751241570008	87.3797575290009	"3"	13090.729450385	12820.679135651	1.5	0.1
0.01	1	0.00320326200017007	1	97	NA	94.3087588480012	0	0.51	0.98	1	87.6087232860009	87.6119265480011	"3"	13090.729450385	12820.679135651	1.5	0.1
0.01	1	0.00238555400028417	1	97	NA	94.3087588480012	0	0.51	0.98	1	87.84249413	87.8448796840003	"3"	13090.729450385	12820.679135651	1.5	0.1
0.01	1	0.00200178699924436	1	97	NA	94.3087588480012	0	0.51	0.98	1	88.0762501380013	88.0782519250006	"3"	13090.729450385	12820.679135651	1.5	0.1
0.01	1	0.940246774000116	1	97	NA	94.3087588480012	0	0.51	0.98	1	88.3100256520011	89.2502724260012	"3"	13090.729450385	12820.679135651	1.5	0.1
0.01	1	0.0208838520011341	1	97	NA	94.3087588480012	0	0.51	0.98	1	89.4785925169999	89.4994763690011	"3"	13090.729450385	12820.679135651	1.5	0.1
0.01	1	0.0263149959992006	1	97	NA	94.3087588480012	0	0.51	0.98	1	89.729046714001	89.7553617100002	"3"	13090.729450385	12820.679135651	1.5	0.1
0.01	1	0.0020053239986737	1	97	NA	94.3087588480012	0	0.51	0.98	1	89.9962094320017	89.9982147560004	"3"	13090.729450385	12820.679135651	1.5	0.1
0.01	1	0.00207719200079737	1	97	NA	94.3087588480012	0	0.51	0.98	1	90.2298255170008	90.2319027090016	"3"	13090.729450385	12820.679135651	1.5	0.1
0.01	1	0.003752650000024	1	97	NA	94.3087588480012	0	0.51	0.98	1	90.4636343740003	90.4673870240003	"3"	13090.729450385	12820.679135651	1.5	0.1
0.01	1	0.00373537099949317	1	97	NA	94.3087588480012	0	0.51	0.98	1	90.6972653870016	90.7010007580011	"3"	13090.729450385	12820.679135651	1.5	0.1
0.01	1	0.0226563160013029	1	97	NA	94.3087588480012	0	0.51	0.98	1	90.9309898390002	90.9536461550015	"3"	13090.729450385	12820.679135651	1.5	0.1
0.01	1	0.0033663100002741	1	97	NA	94.3087588480012	0	0.51	0.98	1	91.1814390480013	91.1848053580015	"3"	13090.729450385	12820.679135651	1.5	0.1
0.01	1	0.00201853100043081	1	97	NA	94.3087588480012	0	0.51	0.98	1	91.4151740380003	91.4171925690007	"3"	13090.729450385	12820.679135651	1.5	0.1
0.01	1	1.28953883000031	1	97	NA	94.3087588480012	0	0.51	0.98	1	91.648978407	92.9385172370003	"3"	13090.729450385	12820.679135651	1.5	0.1
0.01	1	0.00207079299980251	1	97	NA	94.3087588480012	0	0.51	0.98	1	93.1681302340003	93.1702010270001	"3"	13090.729450385	12820.679135651	1.5	0.1
0.01	1	0.0020551739999064	1	97	NA	94.3087588480012	0	0.51	0.98	1	93.4019292420016	93.4039844160015	"3"	13090.729450385	12820.679135651	1.5	0.1
0.01	1	0.00372258000061265	1	97	NA	94.3087588480012	0	0.51	0.98	1	93.6356535720006	93.6393761520012	"3"	13090.729450385	12820.679135651	1.5	0.1
0.01	1	0.117633863999799	1	97	NA	94.3087588480012	0	0.51	0.98	1	93.8693410020005	93.9869748660003	"3"	13090.729450385	12820.679135651	1.5	0.1
0.01	1	0.0872597680008766	2	97	NA	94.3087588480012	0	0.51	0.98	1	94.2199742270004	94.3072339950013	"3"	13090.729450385	12820.679135651	1.5	0.1
0.01	1	1.26203559799978	1	51	116.927922799001	NA	1	0	0.98	1	96.3401527750011	97.6021883730009	"4"	13090.729450385	12820.679135651	1.5	0.1
0.01	1	0.128657895000288	1	51	116.927922799001	NA	1	0	0.98	1	97.8426034820004	97.9712613770007	"4"	13090.729450385	12820.679135651	1.5	0.1
0.01	1	0.0030068059986661	1	51	116.927922799001	NA	1	0	0.98	1	98.1932224620014	98.196229268	"4"	13090.729450385	12820.679135651	1.5	0.1
0.01	1	0.00198575299873482	1	51	116.927922799001	NA	1	0	0.98	1	98.4269930010014	98.4289787540001	"4"	13090.729450385	12820.679135651	1.5	0.1
0.01	1	0.00419355799931509	1	51	116.927922799001	NA	1	0	0.98	1	98.6606839720007	98.66487753	"4"	13090.729450385	12820.679135651	1.5	0.1
0.01	1	0.0766457350000564	1	51	116.927922799001	NA	1	0	0.98	1	98.8944162370008	98.9710619720008	"4"	13090.729450385	12820.679135651	1.5	0.1
0.01	1	0.00466588999915984	1	51	116.927922799001	NA	1	0	0.98	1	99.194978937001	99.1996448270002	"4"	13090.729450385	12820.679135651	1.5	0.1
0.01	1	0.00399230199946032	1	51	116.927922799001	NA	1	0	0.98	1	99.4286983720012	99.4326906740007	"4"	13090.729450385	12820.679135651	1.5	0.1
0.01	1	0.805287397999564	1	51	116.927922799001	NA	1	0	0.98	1	99.6623354420008	100.46762284	"4"	13090.729450385	12820.679135651	1.5	0.1
0.01	1	0.00452817999939725	1	51	116.927922799001	NA	1	0	0.98	1	100.697412097001	100.701940277	"4"	13090.729450385	12820.679135651	1.5	0.1
0.01	1	0.0962529079988599	1	51	116.927922799001	NA	1	0	0.98	1	100.931212529002	101.027465437001	"4"	13090.729450385	12820.679135651	1.5	0.1
0.01	1	0.00462534500002221	1	51	116.927922799001	NA	1	0	0.98	1	101.264998582001	101.269623927001	"4"	13090.729450385	12820.679135651	1.5	0.1
0.01	1	0.0872882180010492	1	51	116.927922799001	NA	1	0	0.98	1	101.498918669	101.586206887001	"4"	13090.729450385	12820.679135651	1.5	0.1
0.01	1	0.00387123499967856	1	51	116.927922799001	NA	1	0	0.98	1	101.816105277001	101.819976512001	"4"	13090.729450385	12820.679135651	1.5	0.1
0.01	1	0.13684489499974	1	51	116.927922799001	NA	1	0	0.98	1	102.049782731001	102.186627626001	"4"	13090.729450385	12820.679135651	1.5	0.1
0.01	1	0.98502009799995	1	51	116.927922799001	NA	1	0	0.98	1	102.417090739002	103.402110837002	"4"	13090.729450385	12820.679135651	1.5	0.1
0.01	1	0.00242174900085956	1	51	116.927922799001	NA	1	0	0.98	1	103.63576214	103.638183889001	"4"	13090.729450385	12820.679135651	1.5	0.1
0.01	1	0.00460251000004064	1	51	116.927922799001	NA	1	0	0.98	1	103.869440637001	103.874043147001	"4"	13090.729450385	12820.679135651	1.5	0.1
0.01	1	0.106281701999251	1	51	116.927922799001	NA	1	0	0.98	1	104.103365222001	104.209646924	"4"	13090.729450385	12820.679135651	1.5	0.1
0.01	1	0.00465545999941241	1	51	116.927922799001	NA	1	0	0.98	1	104.437054882001	104.441710342	"4"	13090.729450385	12820.679135651	1.5	0.1
0.01	1	0.00399948000085715	1	51	116.927922799001	NA	1	0	0.98	1	104.670798072	104.674797552001	"4"	13090.729450385	12820.679135651	1.5	0.1
0.01	1	0.0899675450000359	1	51	116.927922799001	NA	1	0	0.98	1	104.904489679	104.994457224	"4"	13090.729450385	12820.679135651	1.5	0.1
0.01	1	0.00201768400074798	1	51	116.927922799001	NA	1	0	0.98	1	105.22177285	105.223790534001	"4"	13090.729450385	12820.679135651	1.5	0.1
0.01	1	0.979495143999884	1	51	116.927922799001	NA	1	0	0.98	1	105.455447177001	106.434942321001	"4"	13090.729450385	12820.679135651	1.5	0.1
0.01	1	0.00249182599873166	1	51	116.927922799001	NA	1	0	0.98	1	106.657496012002	106.659987838	"4"	13090.729450385	12820.679135651	1.5	0.1
0.01	1	0.00379283199981728	1	51	116.927922799001	NA	1	0	0.98	1	106.891190432001	106.894983264001	"4"	13090.729450385	12820.679135651	1.5	0.1
0.01	1	0.118509706000623	1	51	116.927922799001	NA	1	0	0.98	1	107.124935727001	107.243445433001	"4"	13090.729450385	12820.679135651	1.5	0.1
0.01	1	0.00243527100064966	1	51	116.927922799001	NA	1	0	0.98	1	107.475529056001	107.477964327001	"4"	13090.729450385	12820.679135651	1.5	0.1
0.01	1	0.00461732499934442	1	51	116.927922799001	NA	1	0	0.98	1	107.709314557002	107.713931882001	"4"	13090.729450385	12820.679135651	1.5	0.1
0.01	1	0.0999252199999319	1	51	116.927922799001	NA	1	0	0.98	1	107.943019989001	108.042945209001	"4"	13090.729450385	12820.679135651	1.5	0.1
0.01	1	0.00458650200016564	1	51	116.927922799001	NA	1	0	0.98	1	108.276792917	108.281379419001	"4"	13090.729450385	12820.679135651	1.5	0.1
0.01	1	0.812617050998597	1	51	116.927922799001	NA	1	0	0.98	1	108.510700047002	109.323317098	"4"	13090.729450385	12820.679135651	1.5	0.1
0.01	1	0.00461932000143861	1	51	116.927922799001	NA	1	0	0.98	1	109.545715422	109.550334742002	"4"	13090.729450385	12820.679135651	1.5	0.1
0.01	1	0.00399171500066586	1	51	116.927922799001	NA	1	0	0.98	1	109.779468287001	109.783460002001	"4"	13090.729450385	12820.679135651	1.5	0.1
0.01	1	0.0775958569993236	1	51	116.927922799001	NA	1	0	0.98	1	110.013078802001	110.090674659001	"4"	13090.729450385	12820.679135651	1.5	0.1
0.01	1	0.00229852799930086	1	51	116.927922799001	NA	1	0	0.98	1	110.313629400001	110.315927928001	"4"	13090.729450385	12820.679135651	1.5	0.1
0.01	1	0.00402138000026753	1	51	116.927922799001	NA	1	0	0.98	1	110.547315814001	110.551337194001	"4"	13090.729450385	12820.679135651	1.5	0.1
0.01	1	0.102020582000478	1	51	116.927922799001	NA	1	0	0.98	1	110.781148217	110.883168799	"4"	13090.729450385	12820.679135651	1.5	0.1
0.01	1	0.00201408400062064	1	51	116.927922799001	NA	1	0	0.98	1	111.114965331	111.116979415001	"4"	13090.729450385	12820.679135651	1.5	0.1
0.01	1	0.869823824999912	1	51	116.927922799001	NA	1	0	0.98	1	111.348618757002	112.218442582001	"4"	13090.729450385	12820.679135651	1.5	0.1
0.01	1	0.0046143370000209	1	51	116.927922799001	NA	1	0	0.98	1	112.450564587001	112.455178924001	"4"	13090.729450385	12820.679135651	1.5	0.1
0.01	1	0.110059929000272	1	51	116.927922799001	NA	1	0	0.98	1	112.684324889	112.794384818	"4"	13090.729450385	12820.679135651	1.5	0.1
0.01	1	0.00211642199974449	1	51	116.927922799001	NA	1	0	0.98	1	113.018131518002	113.020247940001	"4"	13090.729450385	12820.679135651	1.5	0.1
0.01	1	0.00383799399969575	1	51	116.927922799001	NA	1	0	0.98	1	113.251919904002	113.255757898001	"4"	13090.729450385	12820.679135651	1.5	0.1
0.01	1	0.0693761620004807	1	51	116.927922799001	NA	1	0	0.98	1	113.485633087001	113.555009249001	"4"	13090.729450385	12820.679135651	1.5	0.1
0.01	1	0.0020901120005874	1	51	116.927922799001	NA	1	0	0.98	1	113.786219018	113.788309130001	"4"	13090.729450385	12820.679135651	1.5	0.1
0.01	1	1.68771671000104	1	51	116.927922799001	NA	1	0	0.98	1	114.019858017	115.707574727001	"4"	13090.729450385	12820.679135651	1.5	0.1
0.01	1	0.00381717600066622	1	51	116.927922799001	NA	1	0	0.98	1	115.939813114001	115.943630290001	"4"	13090.729450385	12820.679135651	1.5	0.1
0.01	1	0.0843121289999544	1	51	116.927922799001	NA	1	0	0.98	1	116.173449277001	116.257761406001	"4"	13090.729450385	12820.679135651	1.5	0.1
0.01	1	0.00372636300016893	1	51	116.927922799001	NA	1	0	0.98	1	116.490703289001	116.494429652001	"4"	13090.729450385	12820.679135651	1.5	0.1
0.01	1	0.0934167630002776	1	51	116.927922799001	NA	1	0	0.98	1	116.724443092	116.817859855	"4"	13090.729450385	12820.679135651	1.5	0.1
0.01	1	1.2244649990007	1	116	NA	132.436517260001	0	0.38	1.36	1	118.978257089	120.202722088001	"5"	13090.729450385	12820.679135651	1.5	0.1
0.01	1	0.00203485200108844	1	116	NA	132.436517260001	0	0.38	1.36	1	120.430634209	120.432669061001	"5"	13090.729450385	12820.679135651	1.5	0.1
0.01	1	0.00387895299900265	1	116	NA	132.436517260001	0	0.38	1.36	1	120.664340607002	120.668219560001	"5"	13090.729450385	12820.679135651	1.5	0.1
0.01	1	0.0970982279995951	1	116	NA	132.436517260001	0	0.38	1.36	1	120.898131012002	120.995229240001	"5"	13090.729450385	12820.679135651	1.5	0.1
0.01	1	0.00466202500138024	1	116	NA	132.436517260001	0	0.38	1.36	1	121.231942872	121.236604897002	"5"	13090.729450385	12820.679135651	1.5	0.1
0.01	1	0.0800298850008403	1	116	NA	132.436517260001	0	0.38	1.36	1	121.465688639	121.545718524001	"5"	13090.729450385	12820.679135651	1.5	0.1
0.01	1	0.00464317000114534	1	116	NA	132.436517260001	0	0.38	1.36	1	121.782981377	121.787624547002	"5"	13090.729450385	12820.679135651	1.5	0.1
0.01	1	0.482336428998678	1	116	NA	132.436517260001	0	0.38	1.36	1	122.016583919001	122.498920348	"5"	13090.729450385	12820.679135651	1.5	0.1
0.01	1	0.00207966700145334	1	116	NA	132.436517260001	0	0.38	1.36	1	122.73448689	122.736566557001	"5"	13090.729450385	12820.679135651	1.5	0.1
0.01	1	0.106112915000267	1	116	NA	132.436517260001	0	0.38	1.36	1	122.968227552001	123.074340467001	"5"	13090.729450385	12820.679135651	1.5	0.1
0.01	1	0.00207692200092424	1	116	NA	132.436517260001	0	0.38	1.36	1	123.302196598001	123.304273520002	"5"	13090.729450385	12820.679135651	1.5	0.1
0.01	1	0.00460577699959686	1	116	NA	132.436517260001	0	0.38	1.36	1	123.535847197001	123.540452974001	"5"	13090.729450385	12820.679135651	1.5	0.1
0.01	1	0.0039173370005301	1	116	NA	132.436517260001	0	0.38	1.36	1	123.769556829	123.773474166001	"5"	13090.729450385	12820.679135651	1.5	0.1
0.01	1	0.112326780999865	1	116	NA	132.436517260001	0	0.38	1.36	1	124.003379842001	124.115706623001	"5"	13090.729450385	12820.679135651	1.5	0.1
0.01	1	0.00446096700034104	1	116	NA	132.436517260001	0	0.38	1.36	1	124.337215947	124.341676914	"5"	13090.729450385	12820.679135651	1.5	0.1
0.01	1	0.496647330999622	1	116	NA	132.436517260001	0	0.38	1.36	1	124.571011007001	125.067658338001	"5"	13090.729450385	12820.679135651	1.5	0.1
0.01	1	0.0041683750005177	1	116	NA	132.436517260001	0	0.38	1.36	1	125.305580354001	125.309748729002	"5"	13090.729450385	12820.679135651	1.5	0.1
0.01	1	0.0040530200003559	1	116	NA	132.436517260001	0	0.38	1.36	1	125.539232942001	125.543285962001	"5"	13090.729450385	12820.679135651	1.5	0.1
0.01	1	0.0928932930000883	1	116	NA	132.436517260001	0	0.38	1.36	1	125.772970092001	125.865863385001	"5"	13090.729450385	12820.679135651	1.5	0.1
0.01	1	0.00208457100052328	1	116	NA	132.436517260001	0	0.38	1.36	1	126.090175990001	126.092260561001	"5"	13090.729450385	12820.679135651	1.5	0.1
0.01	1	0.00428496199856454	1	116	NA	132.436517260001	0	0.38	1.36	1	126.323971385002	126.328256347	"5"	13090.729450385	12820.679135651	1.5	0.1
0.01	1	0.00400515000001178	1	116	NA	132.436517260001	0	0.38	1.36	1	126.557678362	126.561683512	"5"	13090.729450385	12820.679135651	1.5	0.1
0.01	1	0.0673525860001973	1	116	NA	132.436517260001	0	0.38	1.36	1	126.791364009001	126.858716595001	"5"	13090.729450385	12820.679135651	1.5	0.1
0.01	1	0.58355678999942	1	116	NA	132.436517260001	0	0.38	1.36	1	127.091941422001	127.675498212	"5"	13090.729450385	12820.679135651	1.5	0.1
0.01	1	0.00459881499955372	1	116	NA	132.436517260001	0	0.38	1.36	1	127.909907062001	127.914505877001	"5"	13090.729450385	12820.679135651	1.5	0.1
0.01	1	0.00457870999889565	1	116	NA	132.436517260001	0	0.38	1.36	1	128.143628102001	128.148206812	"5"	13090.729450385	12820.679135651	1.5	0.1
0.01	1	0.0972937189999357	1	116	NA	132.436517260001	0	0.38	1.36	1	128.377392542001	128.474686261001	"5"	13090.729450385	12820.679135651	1.5	0.1
0.01	1	0.00397961800081248	1	116	NA	132.436517260001	0	0.38	1.36	1	128.711274154	128.715253772001	"5"	13090.729450385	12820.679135651	1.5	0.1
0.01	1	0.00388971600114019	1	116	NA	132.436517260001	0	0.38	1.36	1	128.945066782	128.948956498001	"5"	13090.729450385	12820.679135651	1.5	0.1
0.01	1	0.0885191639990808	1	116	NA	132.436517260001	0	0.38	1.36	1	129.178712382001	129.267231546	"5"	13090.729450385	12820.679135651	1.5	0.1
0.01	1	0.00220154599992384	1	116	NA	132.436517260001	0	0.38	1.36	1	129.49598874	129.498190286	"5"	13090.729450385	12820.679135651	1.5	0.1
0.01	1	0.648325025000304	1	116	NA	132.436517260001	0	0.38	1.36	1	129.729640812	130.377965837	"5"	13090.729450385	12820.679135651	1.5	0.1
0.01	1	0.00428213499981211	1	116	NA	132.436517260001	0	0.38	1.36	1	130.614520402001	130.618802537001	"5"	13090.729450385	12820.679135651	1.5	0.1
0.01	1	0.122735747998377	1	116	NA	132.436517260001	0	0.38	1.36	1	130.848214709002	130.970950457	"5"	13090.729450385	12820.679135651	1.5	0.1
0.01	1	0.00202481399901444	1	116	NA	132.436517260001	0	0.38	1.36	1	131.198733401001	131.200758215	"5"	13090.729450385	12820.679135651	1.5	0.1
0.01	1	0.00394805600080872	1	116	NA	132.436517260001	0	0.38	1.36	1	131.432487254	131.436435310001	"5"	13090.729450385	12820.679135651	1.5	0.1
0.01	1	0.00402093500088085	1	116	NA	132.436517260001	0	0.38	1.36	1	131.666251077	131.670272012001	"5"	13090.729450385	12820.679135651	1.5	0.1
0.01	1	0.0778645700011111	1	116	NA	132.436517260001	0	0.38	1.36	1	131.899866219001	131.977730789002	"5"	13090.729450385	12820.679135651	1.5	0.1
0.01	1	0.234501512000861	2	116	NA	132.436517260001	0	0.38	1.36	1	132.200436072	132.434937584001	"5"	13090.729450385	12820.679135651	1.5	0.1
0.01	1	2.72895899999821	1	118	NA	157.097497795001	0	0.54	1.9	1	134.487635607002	137.216594607	"6"	13090.729450385	12820.679135651	1.5	0.1
0.01	1	0.269523382999978	1	118	NA	157.097497795001	0	0.54	1.9	1	137.442572794002	137.712096177002	"6"	13090.729450385	12820.679135651	1.5	0.1
0.01	1	0.224497622999479	1	118	NA	157.097497795001	0	0.54	1.9	1	137.943465817001	138.167963440001	"6"	13090.729450385	12820.679135651	1.5	0.1
0.01	1	0.188597004000258	1	118	NA	157.097497795001	0	0.54	1.9	1	138.394154817001	138.582751821001	"6"	13090.729450385	12820.679135651	1.5	0.1
0.01	1	0.164496936000432	1	118	NA	157.097497795001	0	0.54	1.9	1	138.811632902001	138.976129838002	"6"	13090.729450385	12820.679135651	1.5	0.1
0.01	1	0.204208592998839	1	118	NA	157.097497795001	0	0.54	1.9	1	139.212165247001	139.41637384	"6"	13090.729450385	12820.679135651	1.5	0.1
0.01	1	0.153019662999213	1	118	NA	157.097497795001	0	0.54	1.9	1	139.646196037002	139.799215700001	"6"	13090.729450385	12820.679135651	1.5	0.1
0.01	1	0.161195863998728	1	118	NA	157.097497795001	0	0.54	1.9	1	140.030239737001	140.191435601	"6"	13090.729450385	12820.679135651	1.5	0.1
0.01	1	0.096958033998817	1	118	NA	157.097497795001	0	0.54	1.9	1	140.414231792001	140.511189826	"6"	13090.729450385	12820.679135651	1.5	0.1
0.01	1	0.0597716949996538	1	118	NA	157.097497795001	0	0.54	1.9	1	140.748311087002	140.808082782001	"6"	13090.729450385	12820.679135651	1.5	0.1
0.01	1	0.695521954001379	1	118	NA	157.097497795001	0	0.54	1.9	1	141.031926558	141.727448512002	"6"	13090.729450385	12820.679135651	1.5	0.1
0.01	1	0.096485224999924	1	118	NA	157.097497795001	0	0.54	1.9	1	141.950222459001	142.046707684001	"6"	13090.729450385	12820.679135651	1.5	0.1
0.01	1	0.0443284640005004	1	118	NA	157.097497795001	0	0.54	1.9	1	142.284065099	142.328393563001	"6"	13090.729450385	12820.679135651	1.5	0.1
0.01	1	0.0492228499988414	1	118	NA	157.097497795001	0	0.54	1.9	1	142.551168732001	142.600391582	"6"	13090.729450385	12820.679135651	1.5	0.1
0.01	1	0.052519389999361	1	118	NA	157.097497795001	0	0.54	1.9	1	142.834937799002	142.887457189001	"6"	13090.729450385	12820.679135651	1.5	0.1
0.01	1	0.0575798449990543	1	118	NA	157.097497795001	0	0.54	1.9	1	143.118780337001	143.176360182	"6"	13090.729450385	12820.679135651	1.5	0.1
0.01	1	0.116288355000506	1	118	NA	157.097497795001	0	0.54	1.9	1	143.402580459	143.518868814001	"6"	13090.729450385	12820.679135651	1.5	0.1
0.01	1	0.0135671280004317	1	118	NA	157.097497795001	0	0.54	1.9	1	143.753194769	143.766761897001	"6"	13090.729450385	12820.679135651	1.5	0.1
0.01	1	0.0445159139999305	1	118	NA	157.097497795001	0	0.54	1.9	1	144.003577757001	144.048093671001	"6"	13090.729450385	12820.679135651	1.5	0.1
0.01	1	0.0320297599992045	1	118	NA	157.097497795001	0	0.54	1.9	1	144.270715992001	144.302745752	"6"	13090.729450385	12820.679135651	1.5	0.1
0.01	1	0.446473236999736	1	118	NA	157.097497795001	0	0.54	1.9	1	144.537828727001	144.984301964001	"6"	13090.729450385	12820.679135651	1.5	0.1
0.01	1	0.0815445970001747	1	118	NA	157.097497795001	0	0.54	1.9	1	145.222300509	145.303845106	"6"	13090.729450385	12820.679135651	1.5	0.1
0.01	1	0.0359522050002852	1	118	NA	157.097497795001	0	0.54	1.9	1	145.539523407	145.575475612	"6"	13090.729450385	12820.679135651	1.5	0.1
0.01	1	0.033874487000503	1	118	NA	157.097497795001	0	0.54	1.9	1	145.806598792	145.840473279	"6"	13090.729450385	12820.679135651	1.5	0.1
0.01	1	0.0307510630009347	1	118	NA	157.097497795001	0	0.54	1.9	1	146.073905567	146.104656630001	"6"	13090.729450385	12820.679135651	1.5	0.1
0.01	1	0.0424785880004492	1	118	NA	157.097497795001	0	0.54	1.9	1	146.340852452	146.38333104	"6"	13090.729450385	12820.679135651	1.5	0.1
0.01	1	0.0558732099998451	1	118	NA	157.097497795001	0	0.54	1.9	1	146.607993659001	146.663866869001	"6"	13090.729450385	12820.679135651	1.5	0.1
0.01	1	0.0516404579993832	1	118	NA	157.097497795001	0	0.54	1.9	1	146.891837734001	146.943478192001	"6"	13090.729450385	12820.679135651	1.5	0.1
0.01	1	0.0157362700010708	1	118	NA	157.097497795001	0	0.54	1.9	1	147.175542114001	147.191278384002	"6"	13090.729450385	12820.679135651	1.5	0.1
0.01	1	0.0294434030001867	1	118	NA	157.097497795001	0	0.54	1.9	1	147.426111957	147.45555536	"6"	13090.729450385	12820.679135651	1.5	0.1
0.01	1	0.809754804000477	1	118	NA	157.097497795001	0	0.54	1.9	1	147.693199262001	148.502954066002	"6"	13090.729450385	12820.679135651	1.5	0.1
0.01	1	0.0625479579994135	1	118	NA	157.097497795001	0	0.54	1.9	1	148.728156434001	148.790704392	"6"	13090.729450385	12820.679135651	1.5	0.1
0.01	1	0.0112261539998144	1	118	NA	157.097497795001	0	0.54	1.9	1	149.028726577	149.039952731	"6"	13090.729450385	12820.679135651	1.5	0.1
0.01	1	0.0572063440013153	1	118	NA	157.097497795001	0	0.54	1.9	1	149.262498078	149.319704422001	"6"	13090.729450385	12820.679135651	1.5	0.1
0.01	1	0.0212807850002719	1	118	NA	157.097497795001	0	0.54	1.9	1	149.546249807001	149.567530592001	"6"	13090.729450385	12820.679135651	1.5	0.1
0.01	1	0.0666021180004464	1	118	NA	157.097497795001	0	0.54	1.9	1	149.796655254	149.863257372001	"6"	13090.729450385	12820.679135651	1.5	0.1
0.01	1	0.0232564630005072	1	118	NA	157.097497795001	0	0.54	1.9	1	150.097239807001	150.120496270001	"6"	13090.729450385	12820.679135651	1.5	0.1
0.01	1	0.0115426209995348	1	118	NA	157.097497795001	0	0.54	1.9	1	150.347659299001	150.35920192	"6"	13090.729450385	12820.679135651	1.5	0.1
0.01	1	0.0267275149999477	1	118	NA	157.097497795001	0	0.54	1.9	1	150.581309247002	150.608036762002	"6"	13090.729450385	12820.679135651	1.5	0.1
0.01	1	0.00263139699927706	1	118	NA	157.097497795001	0	0.54	1.9	1	150.831765652001	150.834397049	"6"	13090.729450385	12820.679135651	1.5	0.1
0.01	1	0.734459535000497	1	118	NA	157.097497795001	0	0.54	1.9	1	151.065438697	151.799898232	"6"	13090.729450385	12820.679135651	1.5	0.1
0.01	1	0.0462652449987218	1	118	NA	157.097497795001	0	0.54	1.9	1	152.033836629002	152.080101874	"6"	13090.729450385	12820.679135651	1.5	0.1
0.01	1	0.0409932840011606	1	118	NA	157.097497795001	0	0.54	1.9	1	152.317586379	152.358579663001	"6"	13090.729450385	12820.679135651	1.5	0.1
0.01	1	0.0779268599999341	1	118	NA	157.097497795001	0	0.54	1.9	1	152.584708644001	152.662635504001	"6"	13090.729450385	12820.679135651	1.5	0.1
0.01	1	0.0740096449990233	1	118	NA	157.097497795001	0	0.54	1.9	1	152.885138795002	152.959148440001	"6"	13090.729450385	12820.679135651	1.5	0.1
0.01	1	0.0928747199995996	1	118	NA	157.097497795001	0	0.54	1.9	1	153.185823149	153.278697869	"6"	13090.729450385	12820.679135651	1.5	0.1
0.01	1	0.00365116100147134	1	118	NA	157.097497795001	0	0.54	1.9	1	153.519566359	153.523217520002	"6"	13090.729450385	12820.679135651	1.5	0.1
0.01	1	0.0140913489995	1	118	NA	157.097497795001	0	0.54	1.9	1	153.753312372	153.767403721	"6"	13090.729450385	12820.679135651	1.5	0.1
0.01	1	0.0287498059988138	1	118	NA	157.097497795001	0	0.54	1.9	1	154.003786602001	154.032536408	"6"	13090.729450385	12820.679135651	1.5	0.1
0.01	1	0.00385646100039594	1	118	NA	157.097497795001	0	0.54	1.9	1	154.270773577	154.274630038	"6"	13090.729450385	12820.679135651	1.5	0.1
0.01	1	1.2558525580007	1	118	NA	157.097497795001	0	0.54	1.9	1	154.504656659001	155.760509217002	"6"	13090.729450385	12820.679135651	1.5	0.1
0.01	1	0.00317849000020942	1	118	NA	157.097497795001	0	0.54	1.9	1	155.990417300001	155.993595790002	"6"	13090.729450385	12820.679135651	1.5	0.1
0.01	1	0.00462920700010727	1	118	NA	157.097497795001	0	0.54	1.9	1	156.224197307001	156.228826514001	"6"	13090.729450385	12820.679135651	1.5	0.1
0.01	1	0.109339384998748	1	118	NA	157.097497795001	0	0.54	1.9	1	156.457856177001	156.567195562	"6"	13090.729450385	12820.679135651	1.5	0.1
0.01	1	0.287425645999974	2	118	NA	157.097497795001	0	0.54	1.9	1	156.808476037	157.095901683	"6"	13090.729450385	12820.679135651	1.5	0.1
0.01	1	1.8140570609994	1	87	NA	186.593463090001	0	0.57	2.47	1	159.129025067001	160.943082128	"7"	13090.729450385	12820.679135651	1.5	0.1
0.01	1	0.00393597799848067	1	87	NA	186.593463090001	0	0.57	2.47	1	161.182510162002	161.18644614	"7"	13090.729450385	12820.679135651	1.5	0.1
0.01	1	0.00209347599957255	1	87	NA	186.593463090001	0	0.57	2.47	1	161.416296955002	161.418390431001	"7"	13090.729450385	12820.679135651	1.5	0.1
0.01	1	0.00252786700002616	1	87	NA	186.593463090001	0	0.57	2.47	1	161.649986738001	161.652514605001	"7"	13090.729450385	12820.679135651	1.5	0.1
0.01	1	0.00234874799934914	1	87	NA	186.593463090001	0	0.57	2.47	1	161.883693678001	161.886042426	"7"	13090.729450385	12820.679135651	1.5	0.1
0.01	1	0.00208156699954998	1	87	NA	186.593463090001	0	0.57	2.47	1	162.117471942001	162.119553509001	"7"	13090.729450385	12820.679135651	1.5	0.1
0.01	1	0.00457467199885286	1	87	NA	186.593463090001	0	0.57	2.47	1	162.351094077001	162.355668749	"7"	13090.729450385	12820.679135651	1.5	0.1
0.01	1	0.00454994200117653	1	87	NA	186.593463090001	0	0.57	2.47	1	162.584854212	162.589404154001	"7"	13090.729450385	12820.679135651	1.5	0.1
0.01	1	0.0038911100000405	1	87	NA	186.593463090001	0	0.57	2.47	1	162.818622422001	162.822513532001	"7"	13090.729450385	12820.679135651	1.5	0.1
0.01	1	0.00396452899985889	1	87	NA	186.593463090001	0	0.57	2.47	1	163.052335129001	163.056299658001	"7"	13090.729450385	12820.679135651	1.5	0.1
0.01	1	2.8259071650009	1	87	NA	186.593463090001	0	0.57	2.47	1	163.285982912001	166.111890077002	"7"	13090.729450385	12820.679135651	1.5	0.1
0.01	1	0.00387764099832566	1	87	NA	186.593463090001	0	0.57	2.47	1	166.341247687002	166.345125328	"7"	13090.729450385	12820.679135651	1.5	0.1
0.01	1	0.00460990200008382	1	87	NA	186.593463090001	0	0.57	2.47	1	166.574987327002	166.579597229002	"7"	13090.729450385	12820.679135651	1.5	0.1
0.01	1	0.00387076799961505	1	87	NA	186.593463090001	0	0.57	2.47	1	166.808608352001	166.812479120001	"7"	13090.729450385	12820.679135651	1.5	0.1
0.01	1	0.13243372100078	1	87	NA	186.593463090001	0	0.57	2.47	1	167.042411214001	167.174844935002	"7"	13090.729450385	12820.679135651	1.5	0.1
0.01	1	0.00344696799947997	1	87	NA	186.593463090001	0	0.57	2.47	1	167.409633292002	167.413080260001	"7"	13090.729450385	12820.679135651	1.5	0.1
0.01	1	0.740207232000103	1	87	NA	186.593463090001	0	0.57	2.47	1	167.643342357002	168.383549589002	"7"	13090.729450385	12820.679135651	1.5	0.1
0.01	1	0.307436155999312	1	87	NA	186.593463090001	0	0.57	2.47	1	168.611727282001	168.919163438	"7"	13090.729450385	12820.679135651	1.5	0.1
0.01	1	0.309392595998361	1	87	NA	186.593463090001	0	0.57	2.47	1	169.145848204002	169.4552408	"7"	13090.729450385	12820.679135651	1.5	0.1
0.01	1	0.782379756001319	1	87	NA	186.593463090001	0	0.57	2.47	1	169.696835122	170.479214878002	"7"	13090.729450385	12820.679135651	1.5	0.1
0.01	1	0.156108859000597	1	87	NA	186.593463090001	0	0.57	2.47	1	170.715195487001	170.871304346001	"7"	13090.729450385	12820.679135651	1.5	0.1
0.01	1	0.092465824998726	1	87	NA	186.593463090001	0	0.57	2.47	1	171.099171397002	171.191637222	"7"	13090.729450385	12820.679135651	1.5	0.1
0.01	1	0.054015462001189	1	87	NA	186.593463090001	0	0.57	2.47	1	171.416343347	171.470358809001	"7"	13090.729450385	12820.679135651	1.5	0.1
0.01	1	0.0593784030006645	1	87	NA	186.593463090001	0	0.57	2.47	1	171.700186705	171.759565108001	"7"	13090.729450385	12820.679135651	1.5	0.1
0.01	1	0.0876360709989967	1	87	NA	186.593463090001	0	0.57	2.47	1	171.983972757002	172.071608828001	"7"	13090.729450385	12820.679135651	1.5	0.1
0.01	1	0.21846299400022	1	87	NA	186.593463090001	0	0.57	2.47	1	172.301108222	172.519571216	"7"	13090.729450385	12820.679135651	1.5	0.1
0.01	1	0.27109129100063	1	87	NA	186.593463090001	0	0.57	2.47	1	172.751851859	173.022943150001	"7"	13090.729450385	12820.679135651	1.5	0.1
0.01	1	0.345231280000007	1	87	NA	186.593463090001	0	0.57	2.47	1	173.252817892	173.598049172	"7"	13090.729450385	12820.679135651	1.5	0.1
0.01	1	0.306463720000465	1	87	NA	186.593463090001	0	0.57	2.47	1	173.820447137001	174.126910857001	"7"	13090.729450385	12820.679135651	1.5	0.1
0.01	1	0.380967384999167	1	87	NA	186.593463090001	0	0.57	2.47	1	174.354624672002	174.735592057001	"7"	13090.729450385	12820.679135651	1.5	0.1
0.01	1	0.2512413129989	1	87	NA	186.593463090001	0	0.57	2.47	1	174.972402537001	175.22364385	"7"	13090.729450385	12820.679135651	1.5	0.1
0.01	1	0.158217779999177	1	87	NA	186.593463090001	0	0.57	2.47	1	175.456535597001	175.614753377	"7"	13090.729450385	12820.679135651	1.5	0.1
0.01	1	0.182020121999813	1	87	NA	186.593463090001	0	0.57	2.47	1	175.840469332001	176.022489454001	"7"	13090.729450385	12820.679135651	1.5	0.1
0.01	1	0.110086528999091	1	87	NA	186.593463090001	0	0.57	2.47	1	176.257862337001	176.367948866	"7"	13090.729450385	12820.679135651	1.5	0.1
0.01	1	0.118285226999433	1	87	NA	186.593463090001	0	0.57	2.47	1	176.591802827001	176.710088054	"7"	13090.729450385	12820.679135651	1.5	0.1
0.01	1	0.112473720000708	1	87	NA	186.593463090001	0	0.57	2.47	1	176.942473657	177.054947377001	"7"	13090.729450385	12820.679135651	1.5	0.1
0.01	1	0.0977392080003483	1	87	NA	186.593463090001	0	0.57	2.47	1	177.292932292001	177.390671500001	"7"	13090.729450385	12820.679135651	1.5	0.1
0.01	1	0.092025518999435	1	87	NA	186.593463090001	0	0.57	2.47	1	177.626805142001	177.718830661001	"7"	13090.729450385	12820.679135651	1.5	0.1
0.01	1	0.134485230000791	1	87	NA	186.593463090001	0	0.57	2.47	1	177.944019947001	178.078505177002	"7"	13090.729450385	12820.679135651	1.5	0.1
0.01	1	0.103922714000873	1	87	NA	186.593463090001	0	0.57	2.47	1	178.311404017	178.415326731001	"7"	13090.729450385	12820.679135651	1.5	0.1
0.01	1	0.593904089999342	1	87	NA	186.593463090001	0	0.57	2.47	1	178.645246202001	179.239150292	"7"	13090.729450385	12820.679135651	1.5	0.1
0.01	1	0.11893564699858	1	87	NA	186.593463090001	0	0.57	2.47	1	179.479957389001	179.598893036	"7"	13090.729450385	12820.679135651	1.5	0.1
0.01	1	0.136839634998978	1	87	NA	186.593463090001	0	0.57	2.47	1	179.830556832001	179.967396467	"7"	13090.729450385	12820.679135651	1.5	0.1
0.01	1	0.104177989998789	1	87	NA	186.593463090001	0	0.57	2.47	1	180.197986107001	180.302164097	"7"	13090.729450385	12820.679135651	1.5	0.1
0.01	1	0.114541396000277	1	87	NA	186.593463090001	0	0.57	2.47	1	180.531650714001	180.646192110002	"7"	13090.729450385	12820.679135651	1.5	0.1
0.01	1	0.10161651999988	1	87	NA	186.593463090001	0	0.57	2.47	1	180.882243679001	180.983860199001	"7"	13090.729450385	12820.679135651	1.5	0.1
0.01	1	0.0943377439998585	1	87	NA	186.593463090001	0	0.57	2.47	1	181.216146127001	181.310483871001	"7"	13090.729450385	12820.679135651	1.5	0.1
0.01	1	0.12219738299973	1	87	NA	186.593463090001	0	0.57	2.47	1	181.533432537	181.65562992	"7"	13090.729450385	12820.679135651	1.5	0.1
0.01	1	0.140018325999336	1	87	NA	186.593463090001	0	0.57	2.47	1	181.884025437001	182.024043763	"7"	13090.729450385	12820.679135651	1.5	0.1
0.01	1	0.0677677769999718	1	87	NA	186.593463090001	0	0.57	2.47	1	182.251277472002	182.319045249002	"7"	13090.729450385	12820.679135651	1.5	0.1
0.01	1	0.951822191000247	1	87	NA	186.593463090001	0	0.57	2.47	1	182.551707937	183.503530128	"7"	13090.729450385	12820.679135651	1.5	0.1
0.01	1	0.125992260000203	1	87	NA	186.593463090001	0	0.57	2.47	1	183.737093857	183.863086117	"7"	13090.729450385	12820.679135651	1.5	0.1
0.01	1	0.0633205119993363	1	87	NA	186.593463090001	0	0.57	2.47	1	184.087754454002	184.151074966001	"7"	13090.729450385	12820.679135651	1.5	0.1
0.01	1	0.0342052559990407	1	87	NA	186.593463090001	0	0.57	2.47	1	184.388231030001	184.422436286	"7"	13090.729450385	12820.679135651	1.5	0.1
0.01	1	0.0720375729997613	1	87	NA	186.593463090001	0	0.57	2.47	1	184.655428529	184.727466102	"7"	13090.729450385	12820.679135651	1.5	0.1
0.01	1	0.611815424999804	1	87	NA	186.593463090001	0	0.57	2.47	1	184.955883339	185.567698764	"7"	13090.729450385	12820.679135651	1.5	0.1
0.01	1	0.27939047000109	1	87	NA	186.593463090001	0	0.57	2.47	1	185.807266971	186.086657441001	"7"	13090.729450385	12820.679135651	1.5	0.1
0.01	1	0.267084192999391	2	87	NA	186.593463090001	0	0.57	2.47	1	186.324841062002	186.591925255001	"7"	13090.729450385	12820.679135651	1.5	0.1
0.01	1	2.62613889900058	1	6	192.622222714001	NA	1	0	2.47	1	188.628686055001	191.254824954001	"8"	13090.729450385	12820.679135651	1.5	0.1
0.01	1	0.00214638199940964	1	6	192.622222714001	NA	1	0	2.47	1	191.483481630001	191.485628012	"8"	13090.729450385	12820.679135651	1.5	0.1
0.01	1	0.00432123199971102	1	6	192.622222714001	NA	1	0	2.47	1	191.71710003	191.721421262	"8"	13090.729450385	12820.679135651	1.5	0.1
0.01	1	0.00454663199889183	1	6	192.622222714001	NA	1	0	2.47	1	191.950977912002	191.955524544001	"8"	13090.729450385	12820.679135651	1.5	0.1
0.01	1	0.0945247199997539	1	6	192.622222714001	NA	1	0	2.47	1	192.184684869	192.279209589	"8"	13090.729450385	12820.679135651	1.5	0.1
0.01	1	0.00227865600027144	1	6	192.622222714001	NA	1	0	2.47	1	192.501881432001	192.504160088001	"8"	13090.729450385	12820.679135651	1.5	0.1
0.01	1	0.800782258000254	1	106	NA	218.129738157	0	0.61	3.08	1	194.655421172001	195.456203430002	"9"	13090.729450385	12820.679135651	1.5	0.1
0.01	1	0.0140451669994945	1	106	NA	218.129738157	0	0.61	3.08	1	195.690550839001	195.704596006	"9"	13090.729450385	12820.679135651	1.5	0.1
0.01	1	0.0113526770001044	1	106	NA	218.129738157	0	0.61	3.08	1	195.940894474001	195.952247151001	"9"	13090.729450385	12820.679135651	1.5	0.1
0.01	1	0.00293564800085733	1	106	NA	218.129738157	0	0.61	3.08	1	196.174654230001	196.177589878002	"9"	13090.729450385	12820.679135651	1.5	0.1
0.01	1	0.0025151959998766	1	106	NA	218.129738157	0	0.61	3.08	1	196.408427210001	196.410942406001	"9"	13090.729450385	12820.679135651	1.5	0.1
0.01	1	0.00235058600082994	1	106	NA	218.129738157	0	0.61	3.08	1	196.642130008	196.644480594001	"9"	13090.729450385	12820.679135651	1.5	0.1
0.01	1	0.0023957209996297	1	106	NA	218.129738157	0	0.61	3.08	1	196.875885230002	196.878280951001	"9"	13090.729450385	12820.679135651	1.5	0.1
0.01	1	0.00208390999978292	1	106	NA	218.129738157	0	0.61	3.08	1	197.109653262001	197.111737172001	"9"	13090.729450385	12820.679135651	1.5	0.1
0.01	1	0.00213120599983085	1	106	NA	218.129738157	0	0.61	3.08	1	197.343325076001	197.345456282001	"9"	13090.729450385	12820.679135651	1.5	0.1
0.01	1	0.00207922200024768	1	106	NA	218.129738157	0	0.61	3.08	1	197.576948204001	197.579027426002	"9"	13090.729450385	12820.679135651	1.5	0.1
0.01	1	0.740963497000848	1	106	NA	218.129738157	0	0.61	3.08	1	197.810891667001	198.551855164002	"9"	13090.729450385	12820.679135651	1.5	0.1
0.01	1	0.0524398039997322	1	106	NA	218.129738157	0	0.61	3.08	1	198.779069485001	198.831509289001	"9"	13090.729450385	12820.679135651	1.5	0.1
0.01	1	0.00377215799926489	1	106	NA	218.129738157	0	0.61	3.08	1	199.062795184002	199.066567342001	"9"	13090.729450385	12820.679135651	1.5	0.1
0.01	1	0.00217446900023788	1	106	NA	218.129738157	0	0.61	3.08	1	199.296574649001	199.298749118001	"9"	13090.729450385	12820.679135651	1.5	0.1
0.01	1	0.00810841800011985	1	106	NA	218.129738157	0	0.61	3.08	1	199.530413974	199.538522392	"9"	13090.729450385	12820.679135651	1.5	0.1
0.01	1	0.0112837570013653	1	106	NA	218.129738157	0	0.61	3.08	1	199.764098927	199.775382684002	"9"	13090.729450385	12820.679135651	1.5	0.1
0.01	1	0.00301777000095171	1	106	NA	218.129738157	0	0.61	3.08	1	199.997782462	200.000800232001	"9"	13090.729450385	12820.679135651	1.5	0.1
0.01	1	0.0045885770014138	1	106	NA	218.129738157	0	0.61	3.08	1	200.231501577	200.236090154001	"9"	13090.729450385	12820.679135651	1.5	0.1
0.01	1	0.00257045900070807	1	106	NA	218.129738157	0	0.61	3.08	1	200.465188018001	200.467758477002	"9"	13090.729450385	12820.679135651	1.5	0.1
0.01	1	0.00205638900115446	1	106	NA	218.129738157	0	0.61	3.08	1	200.698971677	200.701028066002	"9"	13090.729450385	12820.679135651	1.5	0.1
0.01	1	0.971807742998863	1	106	NA	218.129738157	0	0.61	3.08	1	200.932767662001	201.904575405	"9"	13090.729450385	12820.679135651	1.5	0.1
0.01	1	0.0025406179993297	1	106	NA	218.129738157	0	0.61	3.08	1	202.134699252001	202.13723987	"9"	13090.729450385	12820.679135651	1.5	0.1
0.01	1	0.00256733500100381	1	106	NA	218.129738157	0	0.61	3.08	1	202.368476992	202.371044327001	"9"	13090.729450385	12820.679135651	1.5	0.1
0.01	1	0.00207848799982457	1	106	NA	218.129738157	0	0.61	3.08	1	202.602232590001	202.604311078001	"9"	13090.729450385	12820.679135651	1.5	0.1
0.01	1	0.00223410699982196	1	106	NA	218.129738157	0	0.61	3.08	1	202.835873763001	202.83810787	"9"	13090.729450385	12820.679135651	1.5	0.1
0.01	1	0.00205837999965297	1	106	NA	218.129738157	0	0.61	3.08	1	203.069646917002	203.071705297001	"9"	13090.729450385	12820.679135651	1.5	0.1
0.01	1	0.00204474100064544	1	106	NA	218.129738157	0	0.61	3.08	1	203.303313176	203.305357917001	"9"	13090.729450385	12820.679135651	1.5	0.1
0.01	1	0.00459408999995503	1	106	NA	218.129738157	0	0.61	3.08	1	203.537140952001	203.541735042001	"9"	13090.729450385	12820.679135651	1.5	0.1
0.01	1	0.00232743999913509	1	106	NA	218.129738157	0	0.61	3.08	1	203.770807668001	203.773135108	"9"	13090.729450385	12820.679135651	1.5	0.1
0.01	1	0.00205757499861647	1	106	NA	218.129738157	0	0.61	3.08	1	204.004408117002	204.006465692	"9"	13090.729450385	12820.679135651	1.5	0.1
0.01	1	0.00208547000147519	1	106	NA	218.129738157	0	0.61	3.08	1	204.238212262	204.240297732002	"9"	13090.729450385	12820.679135651	1.5	0.1
0.01	1	0.647329498000545	1	106	NA	218.129738157	0	0.61	3.08	1	204.471957519001	205.119287017002	"9"	13090.729450385	12820.679135651	1.5	0.1
0.01	1	0.0673400129999209	1	106	NA	218.129738157	0	0.61	3.08	1	205.356702959001	205.424042972001	"9"	13090.729450385	12820.679135651	1.5	0.1
0.01	1	0.119053518001238	1	106	NA	218.129738157	0	0.61	3.08	1	205.657209842	205.776263360001	"9"	13090.729450385	12820.679135651	1.5	0.1
0.01	1	0.087684067999362	1	106	NA	218.129738157	0	0.61	3.08	1	206.007784827001	206.095468895001	"9"	13090.729450385	12820.679135651	1.5	0.1
0.01	1	0.114295534998746	1	106	NA	218.129738157	0	0.61	3.08	1	206.325107432001	206.439402967	"9"	13090.729450385	12820.679135651	1.5	0.1
0.01	1	0.0998100720007642	1	106	NA	218.129738157	0	0.61	3.08	1	206.675646087	206.775456159001	"9"	13090.729450385	12820.679135651	1.5	0.1
0.01	1	0.0781857570000284	1	106	NA	218.129738157	0	0.61	3.08	1	207.009612067	207.087797824001	"9"	13090.729450385	12820.679135651	1.5	0.1
0.01	1	0.0337654750001093	1	106	NA	218.129738157	0	0.61	3.08	1	207.310041362001	207.343806837001	"9"	13090.729450385	12820.679135651	1.5	0.1
0.01	1	0.0548623699996824	1	106	NA	218.129738157	0	0.61	3.08	1	207.577145950001	207.632008320001	"9"	13090.729450385	12820.679135651	1.5	0.1
0.01	1	0.0267788800010749	1	106	NA	218.129738157	0	0.61	3.08	1	207.861059667001	207.887838547002	"9"	13090.729450385	12820.679135651	1.5	0.1
0.01	1	0.264642803000243	1	106	NA	218.129738157	0	0.61	3.08	1	208.111376258001	208.376019061001	"9"	13090.729450385	12820.679135651	1.5	0.1
0.01	1	0.626298870000028	1	106	NA	218.129738157	0	0.61	3.08	1	208.612327977	209.238626847	"9"	13090.729450385	12820.679135651	1.5	0.1
0.01	1	0.0793768910007202	1	106	NA	218.129738157	0	0.61	3.08	1	209.463595249001	209.542972140001	"9"	13090.729450385	12820.679135651	1.5	0.1
0.01	1	0.00405527099974279	1	106	NA	218.129738157	0	0.61	3.08	1	209.780961319	209.78501659	"9"	13090.729450385	12820.679135651	1.5	0.1
0.01	1	0.0168350960011594	1	106	NA	218.129738157	0	0.61	3.08	1	210.014531617	210.031366713001	"9"	13090.729450385	12820.679135651	1.5	0.1
0.01	1	0.00219290699897101	1	106	NA	218.129738157	0	0.61	3.08	1	210.265088723001	210.26728163	"9"	13090.729450385	12820.679135651	1.5	0.1
0.01	1	0.00334790399938356	1	106	NA	218.129738157	0	0.61	3.08	1	210.498715888001	210.502063792001	"9"	13090.729450385	12820.679135651	1.5	0.1
0.01	1	0.00251024200042593	1	106	NA	218.129738157	0	0.61	3.08	1	210.732473588001	210.734983830002	"9"	13090.729450385	12820.679135651	1.5	0.1
0.01	1	0.00451826199969219	1	106	NA	218.129738157	0	0.61	3.08	1	210.966305992	210.970824254	"9"	13090.729450385	12820.679135651	1.5	0.1
0.01	1	0.00375037699996028	1	106	NA	218.129738157	0	0.61	3.08	1	211.199918989001	211.203669366001	"9"	13090.729450385	12820.679135651	1.5	0.1
0.01	1	0.00398418199984008	1	106	NA	218.129738157	0	0.61	3.08	1	211.433837292001	211.437821474001	"9"	13090.729450385	12820.679135651	1.5	0.1
0.01	1	1.18842118599969	1	106	NA	218.129738157	0	0.61	3.08	1	211.667302069001	212.855723255001	"9"	13090.729450385	12820.679135651	1.5	0.1
0.01	1	0.00263918200107582	1	106	NA	218.129738157	0	0.61	3.08	1	213.086393596001	213.089032778002	"9"	13090.729450385	12820.679135651	1.5	0.1
0.01	1	0.00266212899987295	1	106	NA	218.129738157	0	0.61	3.08	1	213.320179468001	213.322841597001	"9"	13090.729450385	12820.679135651	1.5	0.1
0.01	1	0.00203487799990398	1	106	NA	218.129738157	0	0.61	3.08	1	213.553856847	213.555891725	"9"	13090.729450385	12820.679135651	1.5	0.1
0.01	1	0.579754881999179	1	106	NA	218.129738157	0	0.61	3.08	1	213.787584299002	214.367339181001	"9"	13090.729450385	12820.679135651	1.5	0.1
0.01	1	0.0894891070001904	1	106	NA	218.129738157	0	0.61	3.08	1	214.605712547002	214.695201654002	"9"	13090.729450385	12820.679135651	1.5	0.1
0.01	1	0.540153966001526	1	106	NA	218.129738157	0	0.61	3.08	1	214.922938529	215.463092495002	"9"	13090.729450385	12820.679135651	1.5	0.1
0.01	1	0.324515043999781	1	106	NA	218.129738157	0	0.61	3.08	1	215.690910052001	216.015425096	"9"	13090.729450385	12820.679135651	1.5	0.1
0.01	1	0.541804659000263	1	106	NA	218.129738157	0	0.61	3.08	1	216.241766517001	216.783571176002	"9"	13090.729450385	12820.679135651	1.5	0.1
0.01	1	1.11842774300021	2	106	NA	218.129738157	0	0.61	3.08	1	217.009739277	218.128167020001	"9"	13090.729450385	12820.679135651	1.5	0.1
0.01	1	0.537350549999246	1	21	227.330830909001	NA	1	0	3.08	1	220.181734032001	220.719084582001	"10"	13090.729450385	12820.679135651	1.5	0.1
0.01	1	0.0345504699998855	1	21	227.330830909001	NA	1	0	3.08	1	220.949601182001	220.984151652001	"10"	13090.729450385	12820.679135651	1.5	0.1
0.01	1	0.00224248300037289	1	21	227.330830909001	NA	1	0	3.08	1	221.216793952	221.219036435001	"10"	13090.729450385	12820.679135651	1.5	0.1
0.01	1	0.00219722000110778	1	21	227.330830909001	NA	1	0	3.08	1	221.450453604	221.452650824001	"10"	13090.729450385	12820.679135651	1.5	0.1
0.01	1	0.0043382739986555	1	21	227.330830909001	NA	1	0	3.08	1	221.684180445001	221.688518719	"10"	13090.729450385	12820.679135651	1.5	0.1
0.01	1	0.13036423900121	1	21	227.330830909001	NA	1	0	3.08	1	221.917940289	222.048304528002	"10"	13090.729450385	12820.679135651	1.5	0.1
0.01	1	0.00207904499984579	1	21	227.330830909001	NA	1	0	3.08	1	222.285282507	222.287361552	"10"	13090.729450385	12820.679135651	1.5	0.1
0.01	1	0.00209186200117983	1	21	227.330830909001	NA	1	0	3.08	1	222.518912268	222.521004130002	"10"	13090.729450385	12820.679135651	1.5	0.1
0.01	1	0.00393325000004552	1	21	227.330830909001	NA	1	0	3.08	1	222.752698802	222.756632052	"10"	13090.729450385	12820.679135651	1.5	0.1
0.01	1	0.756909699000971	1	21	227.330830909001	NA	1	0	3.08	1	222.986362689	223.743272388001	"10"	13090.729450385	12820.679135651	1.5	0.1
0.01	1	0.0434103919997142	1	21	227.330830909001	NA	1	0	3.08	1	223.971429179001	224.014839571	"10"	13090.729450385	12820.679135651	1.5	0.1
0.01	1	0.00252551899939135	1	21	227.330830909001	NA	1	0	3.08	1	224.255252110001	224.257777629	"10"	13090.729450385	12820.679135651	1.5	0.1
0.01	1	0.00213112399978854	1	21	227.330830909001	NA	1	0	3.08	1	224.489018576001	224.491149700001	"10"	13090.729450385	12820.679135651	1.5	0.1
0.01	1	0.00261831599891593	1	21	227.330830909001	NA	1	0	3.08	1	224.722649648002	224.725267964001	"10"	13090.729450385	12820.679135651	1.5	0.1
0.01	1	0.00253543600047124	1	21	227.330830909001	NA	1	0	3.08	1	224.956442642	224.958978078001	"10"	13090.729450385	12820.679135651	1.5	0.1
0.01	1	0.00264262599921494	1	21	227.330830909001	NA	1	0	3.08	1	225.190026952001	225.192669578	"10"	13090.729450385	12820.679135651	1.5	0.1
0.01	1	0.00388873900010367	1	21	227.330830909001	NA	1	0	3.08	1	225.423817857001	225.427706596001	"10"	13090.729450385	12820.679135651	1.5	0.1
0.01	1	0.00376772200070263	1	21	227.330830909001	NA	1	0	3.08	1	225.657631882001	225.661399604001	"10"	13090.729450385	12820.679135651	1.5	0.1
0.01	1	0.00451024500034691	1	21	227.330830909001	NA	1	0	3.08	1	225.891424442001	225.895934687001	"10"	13090.729450385	12820.679135651	1.5	0.1
0.01	1	0.0901118379988475	1	21	227.330830909001	NA	1	0	3.08	1	226.125048589001	226.215160427	"10"	13090.729450385	12820.679135651	1.5	0.1
0.01	1	0.773200921999887	1	21	227.330830909001	NA	1	0	3.08	1	226.442275508001	227.215476430001	"10"	13090.729450385	12820.679135651	1.5	0.1
0.01	1	1.32389310700091	1	19	236.412083929001	NA	1	0	3.08	1	229.380566919001	230.704460026001	"11"	13090.729450385	12820.679135651	1.5	0.1
0.01	1	0.041903684999852	1	19	236.412083929001	NA	1	0	3.08	1	230.933148992	230.975052677	"11"	13090.729450385	12820.679135651	1.5	0.1
0.01	1	0.00768346600125369	1	19	236.412083929001	NA	1	0	3.08	1	231.200182364	231.207865830002	"11"	13090.729450385	12820.679135651	1.5	0.1
0.01	1	0.00258403900079429	1	19	236.412083929001	NA	1	0	3.08	1	231.434034370001	231.436618409001	"11"	13090.729450385	12820.679135651	1.5	0.1
0.01	1	0.00392087699947297	1	19	236.412083929001	NA	1	0	3.08	1	231.667642859002	231.671563736001	"11"	13090.729450385	12820.679135651	1.5	0.1
0.01	1	0.0991640320007718	1	19	236.412083929001	NA	1	0	3.08	1	231.901466489	232.000630521001	"11"	13090.729450385	12820.679135651	1.5	0.1
0.01	1	0.00385442599872476	1	19	236.412083929001	NA	1	0	3.08	1	232.235234504002	232.23908893	"11"	13090.729450385	12820.679135651	1.5	0.1
0.01	1	0.123580606999894	1	19	236.412083929001	NA	1	0	3.08	1	232.469079488001	232.592660095001	"11"	13090.729450385	12820.679135651	1.5	0.1
0.01	1	0.428351884000222	1	19	236.412083929001	NA	1	0	3.08	1	232.819677872001	233.248029756001	"11"	13090.729450385	12820.679135651	1.5	0.1
0.01	1	0.0249364699993748	1	19	236.412083929001	NA	1	0	3.08	1	233.470638149001	233.495574619001	"11"	13090.729450385	12820.679135651	1.5	0.1
0.01	1	0.00810977199944318	1	19	236.412083929001	NA	1	0	3.08	1	233.721242962001	233.729352734001	"11"	13090.729450385	12820.679135651	1.5	0.1
0.01	1	0.00210141999923508	1	19	236.412083929001	NA	1	0	3.08	1	233.954934147001	233.957035567	"11"	13090.729450385	12820.679135651	1.5	0.1
0.01	1	0.00211090700031491	1	19	236.412083929001	NA	1	0	3.08	1	234.188655189	234.190766096001	"11"	13090.729450385	12820.679135651	1.5	0.1
0.01	1	0.129110893998586	1	19	236.412083929001	NA	1	0	3.08	1	234.422356812001	234.551467706	"11"	13090.729450385	12820.679135651	1.5	0.1
0.01	1	0.00199680900004751	1	19	236.412083929001	NA	1	0	3.08	1	234.789626371001	234.791623180001	"11"	13090.729450385	12820.679135651	1.5	0.1
0.01	1	0.00402374300028896	1	19	236.412083929001	NA	1	0	3.08	1	235.023315567001	235.027339310001	"11"	13090.729450385	12820.679135651	1.5	0.1
0.01	1	0.567022294999333	1	19	236.412083929001	NA	1	0	3.08	1	235.257166917001	235.824189212	"11"	13090.729450385	12820.679135651	1.5	0.1
0.01	1	0.00257824099935533	1	19	236.412083929001	NA	1	0	3.08	1	236.058436598001	236.061014839001	"11"	13090.729450385	12820.679135651	1.5	0.1
0.01	1	0.00233504999960132	1	19	236.412083929001	NA	1	0	3.08	1	236.292069782001	236.294404832001	"11"	13090.729450385	12820.679135651	1.5	0.1
0.01	1	1.27282497799933	1	63	NA	259.945390243001	0	0.48	3.56	1	238.462414262001	239.735239240001	"12"	13090.729450385	12820.679135651	1.5	0.1
0.01	1	0.00398656399920583	1	63	NA	259.945390243001	0	0.48	3.56	1	239.965002272002	239.968988836001	"12"	13090.729450385	12820.679135651	1.5	0.1
0.01	1	0.00458752499980619	1	63	NA	259.945390243001	0	0.48	3.56	1	240.198811112001	240.203398637001	"12"	13090.729450385	12820.679135651	1.5	0.1
0.01	1	0.110740493999401	1	63	NA	259.945390243001	0	0.48	3.56	1	240.432380802002	240.543121296001	"12"	13090.729450385	12820.679135651	1.5	0.1
0.01	1	0.0020387180011312	1	63	NA	259.945390243001	0	0.48	3.56	1	240.76639527	240.768433988002	"12"	13090.729450385	12820.679135651	1.5	0.1
0.01	1	0.112051316000361	1	63	NA	259.945390243001	0	0.48	3.56	1	241.000060884	241.1121122	"12"	13090.729450385	12820.679135651	1.5	0.1
0.01	1	0.00463355200008664	1	63	NA	259.945390243001	0	0.48	3.56	1	241.333967207001	241.338600759002	"12"	13090.729450385	12820.679135651	1.5	0.1
0.01	1	0.00442490500063286	1	63	NA	259.945390243001	0	0.48	3.56	1	241.567731707	241.572156612001	"12"	13090.729450385	12820.679135651	1.5	0.1
0.01	1	0.941681053000138	1	63	NA	259.945390243001	0	0.48	3.56	1	241.801388092001	242.743069145001	"12"	13090.729450385	12820.679135651	1.5	0.1
0.01	1	0.00216947799890477	1	63	NA	259.945390243001	0	0.48	3.56	1	242.969909877002	242.972079355	"12"	13090.729450385	12820.679135651	1.5	0.1
0.01	1	0.00391775599928224	1	63	NA	259.945390243001	0	0.48	3.56	1	243.203679452001	243.207597208	"12"	13090.729450385	12820.679135651	1.5	0.1
0.01	1	0.137745833999361	1	63	NA	259.945390243001	0	0.48	3.56	1	243.437384532001	243.575130366	"12"	13090.729450385	12820.679135651	1.5	0.1
0.01	1	0.155011728000318	1	63	NA	259.945390243001	0	0.48	3.56	1	243.804688619	243.959700347001	"12"	13090.729450385	12820.679135651	1.5	0.1
0.01	1	0.00270431500030099	1	63	NA	259.945390243001	0	0.48	3.56	1	244.188846672001	244.191550987001	"12"	13090.729450385	12820.679135651	1.5	0.1
0.01	1	0.00206188700030907	1	63	NA	259.945390243001	0	0.48	3.56	1	244.422535952001	244.424597839001	"12"	13090.729450385	12820.679135651	1.5	0.1
0.01	1	0.00386157100001583	1	63	NA	259.945390243001	0	0.48	3.56	1	244.656228419	244.66008999	"12"	13090.729450385	12820.679135651	1.5	0.1
0.01	1	0.0944233120007993	1	63	NA	259.945390243001	0	0.48	3.56	1	244.889966622	244.984389934001	"12"	13090.729450385	12820.679135651	1.5	0.1
0.01	1	0.00254802800009202	1	63	NA	259.945390243001	0	0.48	3.56	1	245.207160022001	245.209708050001	"12"	13090.729450385	12820.679135651	1.5	0.1
0.01	1	0.893988492000062	1	63	NA	259.945390243001	0	0.48	3.56	1	245.440882577001	246.334871069001	"12"	13090.729450385	12820.679135651	1.5	0.1
0.01	1	0.00243488199885178	1	63	NA	259.945390243001	0	0.48	3.56	1	246.576175204002	246.578610086	"12"	13090.729450385	12820.679135651	1.5	0.1
0.01	1	0.00453488699895388	1	63	NA	259.945390243001	0	0.48	3.56	1	246.809841522001	246.814376409	"12"	13090.729450385	12820.679135651	1.5	0.1
0.01	1	0.00395558300078847	1	63	NA	259.945390243001	0	0.48	3.56	1	247.043517099	247.047472682001	"12"	13090.729450385	12820.679135651	1.5	0.1
0.01	1	0.0981525330007571	1	63	NA	259.945390243001	0	0.48	3.56	1	247.277336567	247.375489100001	"12"	13090.729450385	12820.679135651	1.5	0.1
0.01	1	0.00461970200012729	1	63	NA	259.945390243001	0	0.48	3.56	1	247.611177497001	247.615797199001	"12"	13090.729450385	12820.679135651	1.5	0.1
0.01	1	0.00375302999964333	1	63	NA	259.945390243001	0	0.48	3.56	1	247.844923592002	247.848676622001	"12"	13090.729450385	12820.679135651	1.5	0.1
0.01	1	0.112845150000794	1	63	NA	259.945390243001	0	0.48	3.56	1	248.078555087	248.191400237001	"12"	13090.729450385	12820.679135651	1.5	0.1
0.01	1	0.881287483000051	1	63	NA	259.945390243001	0	0.48	3.56	1	248.429288291001	249.310575774001	"12"	13090.729450385	12820.679135651	1.5	0.1
0.01	1	0.00226077600018471	1	63	NA	259.945390243001	0	0.48	3.56	1	249.547785496001	249.550046272001	"12"	13090.729450385	12820.679135651	1.5	0.1
0.01	1	0.00463760999991791	1	63	NA	259.945390243001	0	0.48	3.56	1	249.781456862002	249.786094472001	"12"	13090.729450385	12820.679135651	1.5	0.1
0.01	1	0.00462103000063507	1	63	NA	259.945390243001	0	0.48	3.56	1	250.015134052001	250.019755082001	"12"	13090.729450385	12820.679135651	1.5	0.1
0.01	1	0.158818157000496	1	63	NA	259.945390243001	0	0.48	3.56	1	250.249076227001	250.407894384001	"12"	13090.729450385	12820.679135651	1.5	0.1
0.01	1	0.150745745999302	1	63	NA	259.945390243001	0	0.48	3.56	1	250.632914674001	250.78366042	"12"	13090.729450385	12820.679135651	1.5	0.1
0.01	1	0.279649291000169	1	63	NA	259.945390243001	0	0.48	3.56	1	251.016992267001	251.296641558001	"12"	13090.729450385	12820.679135651	1.5	0.1
0.01	1	0.257653337999727	1	63	NA	259.945390243001	0	0.48	3.56	1	251.534322977001	251.791976315	"12"	13090.729450385	12820.679135651	1.5	0.1
0.01	1	0.308323060000475	1	63	NA	259.945390243001	0	0.48	3.56	1	252.018556532001	252.326879592001	"12"	13090.729450385	12820.679135651	1.5	0.1
0.01	1	0.463842801000283	1	63	NA	259.945390243001	0	0.48	3.56	1	252.552711757	253.016554558	"12"	13090.729450385	12820.679135651	1.5	0.1
0.01	1	0.409582420999868	1	63	NA	259.945390243001	0	0.48	3.56	1	253.253947259002	253.663529680001	"12"	13090.729450385	12820.679135651	1.5	0.1
0.01	1	0.311676985000304	1	63	NA	259.945390243001	0	0.48	3.56	1	253.888371504001	254.200048489001	"12"	13090.729450385	12820.679135651	1.5	0.1
0.01	1	0.337724372000594	1	63	NA	259.945390243001	0	0.48	3.56	1	254.422693602	254.760417974001	"12"	13090.729450385	12820.679135651	1.5	0.1
0.01	1	0.21804284099926	1	63	NA	259.945390243001	0	0.48	3.56	1	254.990289609001	255.20833245	"12"	13090.729450385	12820.679135651	1.5	0.1
0.01	1	0.207293786999799	1	63	NA	259.945390243001	0	0.48	3.56	1	255.441117374001	255.648411161001	"12"	13090.729450385	12820.679135651	1.5	0.1
0.01	1	0.491904022999734	1	63	NA	259.945390243001	0	0.48	3.56	1	255.874960954001	256.366864977001	"12"	13090.729450385	12820.679135651	1.5	0.1
0.01	1	0.263021269000092	1	63	NA	259.945390243001	0	0.48	3.56	1	256.592843562001	256.855864831001	"12"	13090.729450385	12820.679135651	1.5	0.1
0.01	1	0.897045507999792	1	63	NA	259.945390243001	0	0.48	3.56	1	257.093727679001	257.990773187001	"12"	13090.729450385	12820.679135651	1.5	0.1
0.01	1	0.139543875000527	1	63	NA	259.945390243001	0	0.48	3.56	1	258.229002582	258.368546457001	"12"	13090.729450385	12820.679135651	1.5	0.1
0.01	1	0.0986412080001173	1	63	NA	259.945390243001	0	0.48	3.56	1	258.596234256001	258.694875464002	"12"	13090.729450385	12820.679135651	1.5	0.1
0.01	1	0.109320157998809	1	63	NA	259.945390243001	0	0.48	3.56	1	258.930160499001	259.039480657	"12"	13090.729450385	12820.679135651	1.5	0.1
0.01	1	0.144170366000253	1	63	NA	259.945390243001	0	0.48	3.56	1	259.264134869001	259.408305235002	"12"	13090.729450385	12820.679135651	1.5	0.1
0.01	1	0.312452318999931	2	63	NA	259.945390243001	0	0.48	3.56	1	259.631384902001	259.943837221001	"12"	13090.729450385	12820.679135651	1.5	0.1
0.01	1	1.23069279599986	1	54	279.033597169	NA	1	0	3.56	1	262.002152267001	263.232845063001	"13"	13090.729450385	12820.679135651	1.5	0.1
0.01	1	0.00347520600007556	1	54	279.033597169	NA	1	0	3.56	1	263.471145454001	263.474620660001	"13"	13090.729450385	12820.679135651	1.5	0.1
0.01	1	0.0382070659998135	1	54	279.033597169	NA	1	0	3.56	1	263.704955637	263.743162703	"13"	13090.729450385	12820.679135651	1.5	0.1
0.01	1	0.00372318700101459	1	54	279.033597169	NA	1	0	3.56	1	263.972023537	263.975746724002	"13"	13090.729450385	12820.679135651	1.5	0.1
0.01	1	0.0503753599987249	1	54	279.033597169	NA	1	0	3.56	1	264.205636727002	264.256012087	"13"	13090.729450385	12820.679135651	1.5	0.1
0.01	1	0.00378842499958409	1	54	279.033597169	NA	1	0	3.56	1	264.489574459001	264.493362884001	"13"	13090.729450385	12820.679135651	1.5	0.1
0.01	1	0.0597595719991659	1	54	279.033597169	NA	1	0	3.56	1	264.723236032001	264.782995604	"13"	13090.729450385	12820.679135651	1.5	0.1
0.01	1	0.00250030999995943	1	54	279.033597169	NA	1	0	3.56	1	265.007121600001	265.009621910001	"13"	13090.729450385	12820.679135651	1.5	0.1
0.01	1	0.038935307000429	1	54	279.033597169	NA	1	0	3.56	1	265.240861059001	265.279796366001	"13"	13090.729450385	12820.679135651	1.5	0.1
0.01	1	0.00390224600050715	1	54	279.033597169	NA	1	0	3.56	1	265.507993482001	265.511895728001	"13"	13090.729450385	12820.679135651	1.5	0.1
0.01	1	0.0825424239992572	1	54	279.033597169	NA	1	0	3.56	1	265.741684677001	265.824227101	"13"	13090.729450385	12820.679135651	1.5	0.1
0.01	1	0.00380011100060074	1	54	279.033597169	NA	1	0	3.56	1	266.058869077	266.062669188001	"13"	13090.729450385	12820.679135651	1.5	0.1
0.01	1	0.0588886649984488	1	54	279.033597169	NA	1	0	3.56	1	266.292639652002	266.351528317	"13"	13090.729450385	12820.679135651	1.5	0.1
0.01	1	0.00394740699994145	1	54	279.033597169	NA	1	0	3.56	1	266.576426917001	266.580374324001	"13"	13090.729450385	12820.679135651	1.5	0.1
0.01	1	0.0764392259989108	1	54	279.033597169	NA	1	0	3.56	1	266.810133554001	266.88657278	"13"	13090.729450385	12820.679135651	1.5	0.1
0.01	1	0.00392562699926202	1	54	279.033597169	NA	1	0	3.56	1	267.110631459002	267.114557086001	"13"	13090.729450385	12820.679135651	1.5	0.1
0.01	1	0.0790918620004959	1	54	279.033597169	NA	1	0	3.56	1	267.344416509	267.423508371001	"13"	13090.729450385	12820.679135651	1.5	0.1
0.01	1	0.00372469399917463	1	54	279.033597169	NA	1	0	3.56	1	267.661559322001	267.665284016	"13"	13090.729450385	12820.679135651	1.5	0.1
0.01	1	0.127299387999301	1	54	279.033597169	NA	1	0	3.56	1	267.895247472001	268.02254686	"13"	13090.729450385	12820.679135651	1.5	0.1
0.01	1	0.00299262800035649	1	54	279.033597169	NA	1	0	3.56	1	268.245769070001	268.248761698002	"13"	13090.729450385	12820.679135651	1.5	0.1
0.01	1	0.00368114299999434	1	54	279.033597169	NA	1	0	3.56	1	268.479586557001	268.483267700001	"13"	13090.729450385	12820.679135651	1.5	0.1
0.01	1	0.102298366000468	1	54	279.033597169	NA	1	0	3.56	1	268.713304357001	268.815602723002	"13"	13090.729450385	12820.679135651	1.5	0.1
0.01	1	0.00260806100050104	1	54	279.033597169	NA	1	0	3.56	1	269.0471889	269.049796961001	"13"	13090.729450385	12820.679135651	1.5	0.1
0.01	1	0.00394576200051233	1	54	279.033597169	NA	1	0	3.56	1	269.280983542001	269.284929304002	"13"	13090.729450385	12820.679135651	1.5	0.1
0.01	1	0.0934119180001289	1	54	279.033597169	NA	1	0	3.56	1	269.514681029001	269.608092947001	"13"	13090.729450385	12820.679135651	1.5	0.1
0.01	1	0.00211786399995617	1	54	279.033597169	NA	1	0	3.56	1	269.831931522001	269.834049386001	"13"	13090.729450385	12820.679135651	1.5	0.1
0.01	1	0.414670797001236	1	54	279.033597169	NA	1	0	3.56	1	270.065512612	270.480183409001	"13"	13090.729450385	12820.679135651	1.5	0.1
0.01	1	0.00202341799922579	1	54	279.033597169	NA	1	0	3.56	1	270.716753301002	270.718776719001	"13"	13090.729450385	12820.679135651	1.5	0.1
0.01	1	0.00399358099821256	1	54	279.033597169	NA	1	0	3.56	1	270.950427029002	270.95442061	"13"	13090.729450385	12820.679135651	1.5	0.1
0.01	1	0.00391495399890118	1	54	279.033597169	NA	1	0	3.56	1	271.184103032001	271.188017986	"13"	13090.729450385	12820.679135651	1.5	0.1
0.01	1	0.00454811000054178	1	54	279.033597169	NA	1	0	3.56	1	271.417875982001	271.422424092001	"13"	13090.729450385	12820.679135651	1.5	0.1
0.01	1	0.092173957000341	1	54	279.033597169	NA	1	0	3.56	1	271.651588329001	271.743762286002	"13"	13090.729450385	12820.679135651	1.5	0.1
0.01	1	0.00451713700022083	1	54	279.033597169	NA	1	0	3.56	1	271.968861492001	271.973378629002	"13"	13090.729450385	12820.679135651	1.5	0.1
0.01	1	0.0039722419987811	1	54	279.033597169	NA	1	0	3.56	1	272.202497854001	272.206470096	"13"	13090.729450385	12820.679135651	1.5	0.1
0.01	1	0.0994768429991382	1	54	279.033597169	NA	1	0	3.56	1	272.436207992001	272.535684835	"13"	13090.729450385	12820.679135651	1.5	0.1
0.01	1	0.00241819700022461	1	54	279.033597169	NA	1	0	3.56	1	272.770211912	272.772630109001	"13"	13090.729450385	12820.679135651	1.5	0.1
0.01	1	0.00388264100001834	1	54	279.033597169	NA	1	0	3.56	1	273.003936817	273.007819458	"13"	13090.729450385	12820.679135651	1.5	0.1
0.01	1	0.00340627999867138	1	54	279.033597169	NA	1	0	3.56	1	273.237567392001	273.240973672	"13"	13090.729450385	12820.679135651	1.5	0.1
0.01	1	0.120693237000523	1	54	279.033597169	NA	1	0	3.56	1	273.471283809	273.591977046	"13"	13090.729450385	12820.679135651	1.5	0.1
0.01	1	0.00212345699947036	1	54	279.033597169	NA	1	0	3.56	1	273.821986440002	273.824109897001	"13"	13090.729450385	12820.679135651	1.5	0.1
0.01	1	0.00373287500042352	1	54	279.033597169	NA	1	0	3.56	1	274.055583597001	274.059316472001	"13"	13090.729450385	12820.679135651	1.5	0.1
0.01	1	0.0951904659996217	1	54	279.033597169	NA	1	0	3.56	1	274.289397482002	274.384587948001	"13"	13090.729450385	12820.679135651	1.5	0.1
0.01	1	0.00386177699874679	1	54	279.033597169	NA	1	0	3.56	1	274.606486829001	274.610348606	"13"	13090.729450385	12820.679135651	1.5	0.1
0.01	1	0.00382917299975816	1	54	279.033597169	NA	1	0	3.56	1	274.840261809	274.844090982	"13"	13090.729450385	12820.679135651	1.5	0.1
0.01	1	0.0936633820001589	1	54	279.033597169	NA	1	0	3.56	1	275.073985802001	275.167649184001	"13"	13090.729450385	12820.679135651	1.5	0.1
0.01	1	0.00250980599957984	1	54	279.033597169	NA	1	0	3.56	1	275.391230068	275.393739874	"13"	13090.729450385	12820.679135651	1.5	0.1
0.01	1	1.0378560019999	1	54	279.033597169	NA	1	0	3.56	1	275.624955299001	276.662811301001	"13"	13090.729450385	12820.679135651	1.5	0.1
0.01	1	0.402552012999877	1	54	279.033597169	NA	1	0	3.56	1	276.893744627001	277.296296640001	"13"	13090.729450385	12820.679135651	1.5	0.1
0.01	1	0.0883745699993597	1	54	279.033597169	NA	1	0	3.56	1	277.528164172001	277.616538742001	"13"	13090.729450385	12820.679135651	1.5	0.1
0.01	1	0.00212597400059167	1	54	279.033597169	NA	1	0	3.56	1	277.845347017001	277.847472991001	"13"	13090.729450385	12820.679135651	1.5	0.1
0.01	1	0.0878904580004018	1	54	279.033597169	NA	1	0	3.56	1	278.079036729001	278.166927187001	"13"	13090.729450385	12820.679135651	1.5	0.1
0.01	1	0.00455128500107094	1	54	279.033597169	NA	1	0	3.56	1	278.396353877	278.400905162001	"13"	13090.729450385	12820.679135651	1.5	0.1
0.01	1	0.0488831510010641	1	54	279.033597169	NA	1	0	3.56	1	278.630050387001	278.678933538002	"13"	13090.729450385	12820.679135651	1.5	0.1
0.01	1	0.00450221499886538	1	54	279.033597169	NA	1	0	3.56	1	278.913834292001	278.918336507	"13"	13090.729450385	12820.679135651	1.5	0.1
0.01	1	1.15605333999883	1	103	NA	297.768584526	0	0.45	4.01	1	281.084086759001	282.240140099	"14"	13090.729450385	12820.679135651	1.5	0.1
0.01	1	0.00208631900022738	1	103	NA	297.768584526	0	0.45	4.01	1	282.469713107001	282.471799426001	"14"	13090.729450385	12820.679135651	1.5	0.1
0.01	1	0.0713858449998952	1	103	NA	297.768584526	0	0.45	4.01	1	282.703527079	282.774912924	"14"	13090.729450385	12820.679135651	1.5	0.1
0.01	1	0.115865207000752	1	103	NA	297.768584526	0	0.45	4.01	1	283.003974551	283.119839758001	"14"	13090.729450385	12820.679135651	1.5	0.1
0.01	1	0.00388702900090721	1	103	NA	297.768584526	0	0.45	4.01	1	283.354528087	283.358415116001	"14"	13090.729450385	12820.679135651	1.5	0.1
0.01	1	0.0429170029983652	1	103	NA	297.768584526	0	0.45	4.01	1	283.588266252002	283.631183255	"14"	13090.729450385	12820.679135651	1.5	0.1
0.01	1	0.00394957099888416	1	103	NA	297.768584526	0	0.45	4.01	1	283.855481289002	283.85943086	"14"	13090.729450385	12820.679135651	1.5	0.1
0.01	1	0.00377063700034341	1	103	NA	297.768584526	0	0.45	4.01	1	284.089116739	284.092887376	"14"	13090.729450385	12820.679135651	1.5	0.1
0.01	1	1.09255836699958	1	103	NA	297.768584526	0	0.45	4.01	1	284.322943939002	285.415502306001	"14"	13090.729450385	12820.679135651	1.5	0.1
0.01	1	0.01415776399881	1	103	NA	297.768584526	0	0.45	4.01	1	285.641692107001	285.655849871	"14"	13090.729450385	12820.679135651	1.5	0.1
0.01	1	0.00261804799993115	1	103	NA	297.768584526	0	0.45	4.01	1	285.892163534001	285.894781582001	"14"	13090.729450385	12820.679135651	1.5	0.1
0.01	1	0.0111784630007605	1	103	NA	297.768584526	0	0.45	4.01	1	286.126011827	286.137190290001	"14"	13090.729450385	12820.679135651	1.5	0.1
0.01	1	0.00385092400028952	1	103	NA	297.768584526	0	0.45	4.01	1	286.359675002001	286.363525926001	"14"	13090.729450385	12820.679135651	1.5	0.1
0.01	1	0.00268799700097588	1	103	NA	297.768584526	0	0.45	4.01	1	286.593465934	286.596153931001	"14"	13090.729450385	12820.679135651	1.5	0.1
0.01	1	0.002667640999789	1	103	NA	297.768584526	0	0.45	4.01	1	286.827136090002	286.829803731001	"14"	13090.729450385	12820.679135651	1.5	0.1
0.01	1	0.138163573999918	1	103	NA	297.768584526	0	0.45	4.01	1	287.060817377002	287.198980951001	"14"	13090.729450385	12820.679135651	1.5	0.1
0.01	1	0.00459437199970125	1	103	NA	297.768584526	0	0.45	4.01	1	287.428135407001	287.432729779001	"14"	13090.729450385	12820.679135651	1.5	0.1
0.01	1	0.680690286000754	1	103	NA	297.768584526	0	0.45	4.01	1	287.661859644	288.342549930001	"14"	13090.729450385	12820.679135651	1.5	0.1
0.01	1	0.0046070320004219	1	103	NA	297.768584526	0	0.45	4.01	1	288.580009342	288.584616374001	"14"	13090.729450385	12820.679135651	1.5	0.1
0.01	1	0.00453075500081468	1	103	NA	297.768584526	0	0.45	4.01	1	288.813844042001	288.818374797002	"14"	13090.729450385	12820.679135651	1.5	0.1
0.01	1	0.00397187800081156	1	103	NA	297.768584526	0	0.45	4.01	1	289.047505814	289.051477692001	"14"	13090.729450385	12820.679135651	1.5	0.1
0.01	1	0.110332659000051	1	103	NA	297.768584526	0	0.45	4.01	1	289.281172677001	289.391505336002	"14"	13090.729450385	12820.679135651	1.5	0.1
0.01	1	0.0020262139987608	1	103	NA	297.768584526	0	0.45	4.01	1	289.615073382001	289.617099596	"14"	13090.729450385	12820.679135651	1.5	0.1
0.01	1	0.00453102699975716	1	103	NA	297.768584526	0	0.45	4.01	1	289.848968152	289.853499179	"14"	13090.729450385	12820.679135651	1.5	0.1
0.01	1	0.00461091500073962	1	103	NA	297.768584526	0	0.45	4.01	1	290.082569812001	290.087180727001	"14"	13090.729450385	12820.679135651	1.5	0.1
0.01	1	0.619148652000149	1	103	NA	297.768584526	0	0.45	4.01	1	290.316302252	290.935450904	"14"	13090.729450385	12820.679135651	1.5	0.1
0.01	1	0.00265253399993526	1	103	NA	297.768584526	0	0.45	4.01	1	291.167661434001	291.170313968001	"14"	13090.729450385	12820.679135651	1.5	0.1
0.01	1	0.00249503999839362	1	103	NA	297.768584526	0	0.45	4.01	1	291.401446426002	291.403941466	"14"	13090.729450385	12820.679135651	1.5	0.1
0.01	1	0.0045861149992561	1	103	NA	297.768584526	0	0.45	4.01	1	291.635156527002	291.639742642001	"14"	13090.729450385	12820.679135651	1.5	0.1
0.01	1	0.115033440999468	1	103	NA	297.768584526	0	0.45	4.01	1	291.868985849002	291.984019290001	"14"	13090.729450385	12820.679135651	1.5	0.1
0.01	1	0.00201874199956364	1	103	NA	297.768584526	0	0.45	4.01	1	292.219588363001	292.221607105001	"14"	13090.729450385	12820.679135651	1.5	0.1
0.01	1	0.129607748000126	1	103	NA	297.768584526	0	0.45	4.01	1	292.453229889001	292.582837637001	"14"	13090.729450385	12820.679135651	1.5	0.1
0.01	1	0.00259676599853265	1	103	NA	297.768584526	0	0.45	4.01	1	292.820585566002	292.823182332	"14"	13090.729450385	12820.679135651	1.5	0.1
0.01	1	0.003732110000783	1	103	NA	297.768584526	0	0.45	4.01	1	293.054276502	293.058008612001	"14"	13090.729450385	12820.679135651	1.5	0.1
0.01	1	0.855459930999132	1	103	NA	297.768584526	0	0.45	4.01	1	293.287928457001	294.143388388	"14"	13090.729450385	12820.679135651	1.5	0.1
0.01	1	0.00205162000020209	1	103	NA	297.768584526	0	0.45	4.01	1	294.373150297	294.375201917001	"14"	13090.729450385	12820.679135651	1.5	0.1
0.01	1	0.00203340599910007	1	103	NA	297.768584526	0	0.45	4.01	1	294.606857420002	294.608890826001	"14"	13090.729450385	12820.679135651	1.5	0.1
0.01	1	0.111301918001118	1	103	NA	297.768584526	0	0.45	4.01	1	294.840580259	294.951882177002	"14"	13090.729450385	12820.679135651	1.5	0.1
0.01	1	0.00247834299989336	1	103	NA	297.768584526	0	0.45	4.01	1	295.174523126001	295.177001469001	"14"	13090.729450385	12820.679135651	1.5	0.1
0.01	1	0.00386959499883233	1	103	NA	297.768584526	0	0.45	4.01	1	295.408236967001	295.412106562	"14"	13090.729450385	12820.679135651	1.5	0.1
0.01	1	0.102003187999799	1	103	NA	297.768584526	0	0.45	4.01	1	295.641948329001	295.743951517001	"14"	13090.729450385	12820.679135651	1.5	0.1
0.01	1	0.00435218999882636	1	103	NA	297.768584526	0	0.45	4.01	1	295.975815032001	295.980167222	"14"	13090.729450385	12820.679135651	1.5	0.1
0.01	1	0.639068742000745	1	103	NA	297.768584526	0	0.45	4.01	1	296.209573362001	296.848642104002	"14"	13090.729450385	12820.679135651	1.5	0.1
0.01	1	0.00206116399931489	1	103	NA	297.768584526	0	0.45	4.01	1	297.077653776001	297.07971494	"14"	13090.729450385	12820.679135651	1.5	0.1
0.01	1	0.0966627429988876	1	103	NA	297.768584526	0	0.45	4.01	1	297.311374877001	297.40803762	"14"	13090.729450385	12820.679135651	1.5	0.1
0.01	1	0.121803312000338	2	103	NA	297.768584526	0	0.45	4.01	1	297.645237732	297.767041044001	"14"	13090.729450385	12820.679135651	1.5	0.1
0.01	1	0.584882245999324	1	120	NA	315.249274620001	0	0.47	4.48	1	299.798852424001	300.38373467	"15"	13090.729450385	12820.679135651	1.5	0.1
0.01	1	0.00249596100002236	1	120	NA	315.249274620001	0	0.47	4.48	1	300.616889216	300.619385177	"15"	13090.729450385	12820.679135651	1.5	0.1
0.01	1	0.00207065100039472	1	120	NA	315.249274620001	0	0.47	4.48	1	300.850626748001	300.852697399001	"15"	13090.729450385	12820.679135651	1.5	0.1
0.01	1	0.131236732999241	1	120	NA	315.249274620001	0	0.47	4.48	1	301.084422266002	301.215658999001	"15"	13090.729450385	12820.679135651	1.5	0.1
0.01	1	0.00460626699896238	1	120	NA	315.249274620001	0	0.47	4.48	1	301.451669027001	301.456275294	"15"	13090.729450385	12820.679135651	1.5	0.1
0.01	1	0.0991189209998993	1	120	NA	315.249274620001	0	0.47	4.48	1	301.685452702	301.784571623	"15"	13090.729450385	12820.679135651	1.5	0.1
0.01	1	0.00209289700069348	1	120	NA	315.249274620001	0	0.47	4.48	1	302.019363162	302.021456059001	"15"	13090.729450385	12820.679135651	1.5	0.1
0.01	1	0.921911123999962	1	120	NA	315.249274620001	0	0.47	4.48	1	302.253078079	303.174989203	"15"	13090.729450385	12820.679135651	1.5	0.1
0.01	1	0.00230159799866669	1	120	NA	315.249274620001	0	0.47	4.48	1	303.404925980001	303.407227578	"15"	13090.729450385	12820.679135651	1.5	0.1
0.01	1	0.0044309009990684	1	120	NA	315.249274620001	0	0.47	4.48	1	303.638679508002	303.643110409001	"15"	13090.729450385	12820.679135651	1.5	0.1
0.01	1	0.102849707998757	1	120	NA	315.249274620001	0	0.47	4.48	1	303.872402452002	303.97525216	"15"	13090.729450385	12820.679135651	1.5	0.1
0.01	1	0.00204130500060273	1	120	NA	315.249274620001	0	0.47	4.48	1	304.206330827001	304.208372132001	"15"	13090.729450385	12820.679135651	1.5	0.1
0.01	1	0.00380086100085464	1	120	NA	315.249274620001	0	0.47	4.48	1	304.440113569	304.443914430001	"15"	13090.729450385	12820.679135651	1.5	0.1
0.01	1	0.0949724590009282	1	120	NA	315.249274620001	0	0.47	4.48	1	304.673804549	304.768777008001	"15"	13090.729450385	12820.679135651	1.5	0.1
0.01	1	0.00211988800037943	1	120	NA	315.249274620001	0	0.47	4.48	1	304.991030160001	304.993150048002	"15"	13090.729450385	12820.679135651	1.5	0.1
0.01	1	0.303109182999833	1	120	NA	315.249274620001	0	0.47	4.48	1	305.224634017	305.5277432	"15"	13090.729450385	12820.679135651	1.5	0.1
0.01	1	0.00224706600056379	1	120	NA	315.249274620001	0	0.47	4.48	1	305.758918796	305.761165862001	"15"	13090.729450385	12820.679135651	1.5	0.1
0.01	1	0.00387716500154056	1	120	NA	315.249274620001	0	0.47	4.48	1	305.992733817	305.996610982002	"15"	13090.729450385	12820.679135651	1.5	0.1
0.01	1	0.0923802689994773	1	120	NA	315.249274620001	0	0.47	4.48	1	306.226422737001	306.318803006001	"15"	13090.729450385	12820.679135651	1.5	0.1
0.01	1	0.00466704199970991	1	120	NA	315.249274620001	0	0.47	4.48	1	306.543690217	306.548357259	"15"	13090.729450385	12820.679135651	1.5	0.1
0.01	1	0.119193249998716	1	120	NA	315.249274620001	0	0.47	4.48	1	306.777267307001	306.896460557	"15"	13090.729450385	12820.679135651	1.5	0.1
0.01	1	0.00210028800029249	1	120	NA	315.249274620001	0	0.47	4.48	1	307.127923792001	307.130024080001	"15"	13090.729450385	12820.679135651	1.5	0.1
0.01	1	0.00394530499943357	1	120	NA	315.249274620001	0	0.47	4.48	1	307.361695729001	307.365641034001	"15"	13090.729450385	12820.679135651	1.5	0.1
0.01	1	0.4997112380006	1	120	NA	315.249274620001	0	0.47	4.48	1	307.595393759	308.095104997001	"15"	13090.729450385	12820.679135651	1.5	0.1
0.01	1	0.00267726200036122	1	120	NA	315.249274620001	0	0.47	4.48	1	308.330001712	308.332678974	"15"	13090.729450385	12820.679135651	1.5	0.1
0.01	1	0.00209355299921299	1	120	NA	315.249274620001	0	0.47	4.48	1	308.563665463002	308.565759016001	"15"	13090.729450385	12820.679135651	1.5	0.1
0.01	1	0.138288071000716	1	120	NA	315.249274620001	0	0.47	4.48	1	308.797389894	308.935677965001	"15"	13090.729450385	12820.679135651	1.5	0.1
0.01	1	0.00243111800045881	1	120	NA	315.249274620001	0	0.47	4.48	1	309.164719116001	309.167150234001	"15"	13090.729450385	12820.679135651	1.5	0.1
0.01	1	0.121175850999862	1	120	NA	315.249274620001	0	0.47	4.48	1	309.398518832	309.519694683	"15"	13090.729450385	12820.679135651	1.5	0.1
0.01	1	0.00197875899903011	1	120	NA	315.249274620001	0	0.47	4.48	1	309.749033065002	309.751011824001	"15"	13090.729450385	12820.679135651	1.5	0.1
0.01	1	0.00457591499980481	1	120	NA	315.249274620001	0	0.47	4.48	1	309.982809857001	309.987385772001	"15"	13090.729450385	12820.679135651	1.5	0.1
0.01	1	0.303082630000063	1	120	NA	315.249274620001	0	0.47	4.48	1	310.216404384	310.519487014	"15"	13090.729450385	12820.679135651	1.5	0.1
0.01	1	0.00267788100063626	1	120	NA	315.249274620001	0	0.47	4.48	1	310.750656194001	310.753334075001	"15"	13090.729450385	12820.679135651	1.5	0.1
0.01	1	0.00203168500047468	1	120	NA	315.249274620001	0	0.47	4.48	1	310.984407752001	310.986439437002	"15"	13090.729450385	12820.679135651	1.5	0.1
0.01	1	0.125055806000091	1	120	NA	315.249274620001	0	0.47	4.48	1	311.218088832	311.343144638	"15"	13090.729450385	12820.679135651	1.5	0.1
0.01	1	0.00244624399965687	1	120	NA	315.249274620001	0	0.47	4.48	1	311.568781222	311.571227466	"15"	13090.729450385	12820.679135651	1.5	0.1
0.01	1	0.00380605799909972	1	120	NA	315.249274620001	0	0.47	4.48	1	311.802500122001	311.80630618	"15"	13090.729450385	12820.679135651	1.5	0.1
0.01	1	0.11612568900091	1	120	NA	315.249274620001	0	0.47	4.48	1	312.036097872	312.152223561001	"15"	13090.729450385	12820.679135651	1.5	0.1
0.01	1	0.00243118000071263	1	120	NA	315.249274620001	0	0.47	4.48	1	312.386789362001	312.389220542002	"15"	13090.729450385	12820.679135651	1.5	0.1
0.01	1	0.31447165300051	1	120	NA	315.249274620001	0	0.47	4.48	1	312.620405137	312.934876790001	"15"	13090.729450385	12820.679135651	1.5	0.1
0.01	1	0.00457637500039709	1	120	NA	315.249274620001	0	0.47	4.48	1	313.171334422001	313.175910797001	"15"	13090.729450385	12820.679135651	1.5	0.1
0.01	1	0.00390812000114238	1	120	NA	315.249274620001	0	0.47	4.48	1	313.405215244	313.409123364001	"15"	13090.729450385	12820.679135651	1.5	0.1
0.01	1	0.127959788998851	1	120	NA	315.249274620001	0	0.47	4.48	1	313.638818319001	313.766778108	"15"	13090.729450385	12820.679135651	1.5	0.1
0.01	1	0.0024441850000585	1	120	NA	315.249274620001	0	0.47	4.48	1	314.006081708001	314.008525893001	"15"	13090.729450385	12820.679135651	1.5	0.1
0.01	1	0.0042476609996811	1	120	NA	315.249274620001	0	0.47	4.48	1	314.239848078001	314.244095739001	"15"	13090.729450385	12820.679135651	1.5	0.1
0.01	1	0.141904576001252	1	120	NA	315.249274620001	0	0.47	4.48	1	314.473641867	314.615546443001	"15"	13090.729450385	12820.679135651	1.5	0.1
0.01	1	0.00464975499926368	1	120	NA	315.249274620001	0	0.47	4.48	1	314.840976597001	314.845626352	"15"	13090.729450385	12820.679135651	1.5	0.1
0.01	1	0.173097828999744	2	120	NA	315.249274620001	0	0.47	4.48	1	315.074604492002	315.247702321001	"15"	13090.729450385	12820.679135651	1.5	0.1
0.01	1	0.233504350000658	1	109	NA	330.210127169001	0	0.48	4.96	1	317.278298571	317.511802921001	"16"	13090.729450385	12820.679135651	1.5	0.1
0.01	1	0.00373248399955628	1	109	NA	330.210127169001	0	0.48	4.96	1	317.745778682001	317.749511166001	"16"	13090.729450385	12820.679135651	1.5	0.1
0.01	1	0.00370411000039894	1	109	NA	330.210127169001	0	0.48	4.96	1	317.979398442001	317.983102552002	"16"	13090.729450385	12820.679135651	1.5	0.1
0.01	1	0.0187847930010321	1	109	NA	330.210127169001	0	0.48	4.96	1	318.213239662	318.232024455001	"16"	13090.729450385	12820.679135651	1.5	0.1
0.01	1	0.0635824300006789	1	109	NA	330.210127169001	0	0.48	4.96	1	318.463576112001	318.527158542001	"16"	13090.729450385	12820.679135651	1.5	0.1
0.01	1	0.0434449829990626	1	109	NA	330.210127169001	0	0.48	4.96	1	318.764126917002	318.807571900001	"16"	13090.729450385	12820.679135651	1.5	0.1
0.01	1	0.00398794400098268	1	109	NA	330.210127169001	0	0.48	4.96	1	319.031224414	319.035212358001	"16"	13090.729450385	12820.679135651	1.5	0.1
0.01	1	0.0702159009997558	1	109	NA	330.210127169001	0	0.48	4.96	1	319.264995019001	319.33521092	"16"	13090.729450385	12820.679135651	1.5	0.1
0.01	1	0.0493735349991766	1	109	NA	330.210127169001	0	0.48	4.96	1	319.565469595002	319.614843130001	"16"	13090.729450385	12820.679135651	1.5	0.1
0.01	1	0.00207920699904207	1	109	NA	330.210127169001	0	0.48	4.96	1	319.849270350001	319.851349557001	"16"	13090.729450385	12820.679135651	1.5	0.1
0.01	1	0.0764082090008742	1	109	NA	330.210127169001	0	0.48	4.96	1	320.083009497001	320.159417706001	"16"	13090.729450385	12820.679135651	1.5	0.1
0.01	1	0.327258237999558	1	109	NA	330.210127169001	0	0.48	4.96	1	320.383443469002	320.710701707001	"16"	13090.729450385	12820.679135651	1.5	0.1
0.01	1	0.00462810200042441	1	109	NA	330.210127169001	0	0.48	4.96	1	320.951099427	320.955727529001	"16"	13090.729450385	12820.679135651	1.5	0.1
0.01	1	0.102048344999275	1	109	NA	330.210127169001	0	0.48	4.96	1	321.185050412001	321.287098757	"16"	13090.729450385	12820.679135651	1.5	0.1
0.01	1	0.00244571399889537	1	109	NA	330.210127169001	0	0.48	4.96	1	321.518680832001	321.521126546	"16"	13090.729450385	12820.679135651	1.5	0.1
0.01	1	0.102466611000636	1	109	NA	330.210127169001	0	0.48	4.96	1	321.752420118	321.854886729001	"16"	13090.729450385	12820.679135651	1.5	0.1
0.01	1	0.00268458899881807	1	109	NA	330.210127169001	0	0.48	4.96	1	322.086397210001	322.089081799	"16"	13090.729450385	12820.679135651	1.5	0.1
0.01	1	0.00460543699955451	1	109	NA	330.210127169001	0	0.48	4.96	1	322.320339782002	322.324945219001	"16"	13090.729450385	12820.679135651	1.5	0.1
0.01	1	0.142392529998688	1	109	NA	330.210127169001	0	0.48	4.96	1	322.553842234001	322.696234764	"16"	13090.729450385	12820.679135651	1.5	0.1
0.01	1	0.00222305299939762	1	109	NA	330.210127169001	0	0.48	4.96	1	322.921166274002	322.923389327001	"16"	13090.729450385	12820.679135651	1.5	0.1
0.01	1	0.00245788100073696	1	109	NA	330.210127169001	0	0.48	4.96	1	323.154839508001	323.157297389002	"16"	13090.729450385	12820.679135651	1.5	0.1
0.01	1	0.00210497799889708	1	109	NA	330.210127169001	0	0.48	4.96	1	323.388584412001	323.39068939	"16"	13090.729450385	12820.679135651	1.5	0.1
0.01	1	0.00391466800101625	1	109	NA	330.210127169001	0	0.48	4.96	1	323.622385302	323.626299970001	"16"	13090.729450385	12820.679135651	1.5	0.1
0.01	1	0.00400566800090019	1	109	NA	330.210127169001	0	0.48	4.96	1	323.856005674001	323.860011342002	"16"	13090.729450385	12820.679135651	1.5	0.1
0.01	1	0.132891372000813	1	109	NA	330.210127169001	0	0.48	4.96	1	324.089817992	324.222709364001	"16"	13090.729450385	12820.679135651	1.5	0.1
0.01	1	0.0307809589994577	1	109	NA	330.210127169001	0	0.48	4.96	1	324.456977122001	324.487758081001	"16"	13090.729450385	12820.679135651	1.5	0.1
0.01	1	0.00388397299866483	1	109	NA	330.210127169001	0	0.48	4.96	1	324.724170357002	324.72805433	"16"	13090.729450385	12820.679135651	1.5	0.1
0.01	1	0.026514547998886	1	109	NA	330.210127169001	0	0.48	4.96	1	324.957865747001	324.984380295	"16"	13090.729450385	12820.679135651	1.5	0.1
0.01	1	0.0802025809989573	1	109	NA	330.210127169001	0	0.48	4.96	1	325.208243082001	325.288445663	"16"	13090.729450385	12820.679135651	1.5	0.1
0.01	1	0.0113832740007638	1	109	NA	330.210127169001	0	0.48	4.96	1	325.525518144001	325.536901418001	"16"	13090.729450385	12820.679135651	1.5	0.1
0.01	1	0.0245421489998989	1	109	NA	330.210127169001	0	0.48	4.96	1	325.759214829	325.783756978	"16"	13090.729450385	12820.679135651	1.5	0.1
0.01	1	0.0139179309990141	1	109	NA	330.210127169001	0	0.48	4.96	1	326.009585187001	326.023503118	"16"	13090.729450385	12820.679135651	1.5	0.1
0.01	1	0.00391635099913401	1	109	NA	330.210127169001	0	0.48	4.96	1	326.260135277002	326.264051628001	"16"	13090.729450385	12820.679135651	1.5	0.1
0.01	1	0.00385357800041675	1	109	NA	330.210127169001	0	0.48	4.96	1	326.493793404001	326.497646982001	"16"	13090.729450385	12820.679135651	1.5	0.1
0.01	1	0.00385485299921129	1	109	NA	330.210127169001	0	0.48	4.96	1	326.727528947002	326.731383800001	"16"	13090.729450385	12820.679135651	1.5	0.1
0.01	1	0.00207359100022586	1	109	NA	330.210127169001	0	0.48	4.96	1	326.961260291	326.963333882	"16"	13090.729450385	12820.679135651	1.5	0.1
0.01	1	0.00317716000063228	1	109	NA	330.210127169001	0	0.48	4.96	1	327.194967252	327.198144412001	"16"	13090.729450385	12820.679135651	1.5	0.1
0.01	1	0.00328811799954565	1	109	NA	330.210127169001	0	0.48	4.96	1	327.428623716001	327.431911834001	"16"	13090.729450385	12820.679135651	1.5	0.1
0.01	1	0.00226258100155974	1	109	NA	330.210127169001	0	0.48	4.96	1	327.6624013	327.664663881002	"16"	13090.729450385	12820.679135651	1.5	0.1
