"payoff.level"	"balloon"	"rt"	"resp"	"explode.trial"	"explode.time"	"finish.time"	"exploded"	"trial.total"	"cumulative.total"	"finished"	"trial.start"	"trial.end"	"trial.num"	"secs"	"start.time"	"iti"	"isi"
0.01	1	1.75369234199752	1	64	NA	56.5621281200001	0	0.5	0.5	1	0.0072932100010803	1.7609855519986	"1"	40114.380338346	40109.655933436	1.5	0.1
0.01	1	0.855131208001694	1	64	NA	56.5621281200001	0	0.5	0.5	1	2.14415833699604	2.99928954499774	"1"	40114.380338346	40109.655933436	1.5	0.1
0.01	1	1.0175489989997	1	64	NA	56.5621281200001	0	0.5	0.5	1	3.22931903800054	4.24686803700024	"1"	40114.380338346	40109.655933436	1.5	0.1
0.01	1	0.837733820000722	1	64	NA	56.5621281200001	0	0.5	0.5	1	4.48136390999571	5.31909772999643	"1"	40114.380338346	40109.655933436	1.5	0.1
0.01	1	0.929192465999222	1	64	NA	56.5621281200001	0	0.5	0.5	1	5.549883089996	6.47907555599522	"1"	40114.380338346	40109.655933436	1.5	0.1
0.01	1	0.938594306993764	1	64	NA	56.5621281200001	0	0.5	0.5	1	6.70181240700185	7.64040671399562	"1"	40114.380338346	40109.655933436	1.5	0.1
0.01	1	0.802802753998549	1	64	NA	56.5621281200001	0	0.5	0.5	1	7.87042327100062	8.67322602499917	"1"	40114.380338346	40109.655933436	1.5	0.1
0.01	1	0.734798044002673	1	64	NA	56.5621281200001	0	0.5	0.5	1	8.90550374599843	9.6403017900011	"1"	40114.380338346	40109.655933436	1.5	0.1
0.01	1	0.813098778002313	1	64	NA	56.5621281200001	0	0.5	0.5	1	9.87377519899746	10.6868739769998	"1"	40114.380338346	40109.655933436	1.5	0.1
0.01	1	0.707472704001702	1	64	NA	56.5621281200001	0	0.5	0.5	1	10.9088890459971	11.6163617499988	"1"	40114.380338346	40109.655933436	1.5	0.1
0.01	1	0.756097568999394	1	64	NA	56.5621281200001	0	0.5	0.5	1	11.8438485779989	12.5999461469983	"1"	40114.380338346	40109.655933436	1.5	0.1
0.01	1	0.691069494998374	1	64	NA	56.5621281200001	0	0.5	0.5	1	12.8287707889976	13.519840283996	"1"	40114.380338346	40109.655933436	1.5	0.1
0.01	1	0.717095277999761	1	64	NA	56.5621281200001	0	0.5	0.5	1	13.747074066996	14.4641693449958	"1"	40114.380338346	40109.655933436	1.5	0.1
0.01	1	1.34895284100639	1	64	NA	56.5621281200001	0	0.5	0.5	1	14.6985169889958	16.0474698300022	"1"	40114.380338346	40109.655933436	1.5	0.1
0.01	1	0.762914371996885	1	64	NA	56.5621281200001	0	0.5	0.5	1	16.2845006249991	17.0474149969959	"1"	40114.380338346	40109.655933436	1.5	0.1
0.01	1	0.738657928995963	1	64	NA	56.5621281200001	0	0.5	0.5	1	17.2695122299992	18.0081701589952	"1"	40114.380338346	40109.655933436	1.5	0.1
0.01	1	0.62620930900448	1	64	NA	56.5621281200001	0	0.5	0.5	1	18.2378299389966	18.8640392480011	"1"	40114.380338346	40109.655933436	1.5	0.1
0.01	1	0.607202085004246	1	64	NA	56.5621281200001	0	0.5	0.5	1	19.0892846869974	19.6964867720017	"1"	40114.380338346	40109.655933436	1.5	0.1
0.01	1	0.643574809000711	1	64	NA	56.5621281200001	0	0.5	0.5	1	19.9239770790009	20.5675518880016	"1"	40114.380338346	40109.655933436	1.5	0.1
0.01	1	0.631509082995763	1	64	NA	56.5621281200001	0	0.5	0.5	1	20.7920843989996	21.4235934819953	"1"	40114.380338346	40109.655933436	1.5	0.1
0.01	1	0.586491227993974	1	64	NA	56.5621281200001	0	0.5	0.5	1	21.6603352070015	22.2468264349955	"1"	40114.380338346	40109.655933436	1.5	0.1
0.01	1	0.561899326996354	1	64	NA	56.5621281200001	0	0.5	0.5	1	22.4783083020011	23.0402076289975	"1"	40114.380338346	40109.655933436	1.5	0.1
0.01	1	0.688561951996235	1	64	NA	56.5621281200001	0	0.5	0.5	1	23.2629857749998	23.9515477269961	"1"	40114.380338346	40109.655933436	1.5	0.1
0.01	1	0.635283507996064	1	64	NA	56.5621281200001	0	0.5	0.5	1	24.1812812499993	24.8165647579954	"1"	40114.380338346	40109.655933436	1.5	0.1
0.01	1	0.710108815001149	1	64	NA	56.5621281200001	0	0.5	0.5	1	25.0492933689966	25.7594021839977	"1"	40114.380338346	40109.655933436	1.5	0.1
0.01	1	0.894772448998992	1	64	NA	56.5621281200001	0	0.5	0.5	1	25.9841615629994	26.8789340119984	"1"	40114.380338346	40109.655933436	1.5	0.1
0.01	1	0.713401451001118	1	64	NA	56.5621281200001	0	0.5	0.5	1	27.1029294159962	27.8163308669973	"1"	40114.380338346	40109.655933436	1.5	0.1
0.01	1	0.697418946998368	1	64	NA	56.5621281200001	0	0.5	0.5	1	28.0543470100019	28.7517659570003	"1"	40114.380338346	40109.655933436	1.5	0.1
0.01	1	0.651578374003293	1	64	NA	56.5621281200001	0	0.5	0.5	1	28.9893710569959	29.6409494309992	"1"	40114.380338346	40109.655933436	1.5	0.1
0.01	1	0.686451075998775	1	64	NA	56.5621281200001	0	0.5	0.5	1	29.8742122879994	30.5606633639982	"1"	40114.380338346	40109.655933436	1.5	0.1
0.01	1	1.15223241799686	1	64	NA	56.5621281200001	0	0.5	0.5	1	30.792309067001	31.9445414849979	"1"	40114.380338346	40109.655933436	1.5	0.1
0.01	1	0.629137544005061	1	64	NA	56.5621281200001	0	0.5	0.5	1	32.1780040059966	32.8071415500017	"1"	40114.380338346	40109.655933436	1.5	0.1
0.01	1	0.721176343002298	1	64	NA	56.5621281200001	0	0.5	0.5	1	33.0294979039973	33.7506742469996	"1"	40114.380338346	40109.655933436	1.5	0.1
0.01	1	0.626433331999579	1	64	NA	56.5621281200001	0	0.5	0.5	1	33.9810462480018	34.6074795800014	"1"	40114.380338346	40109.655933436	1.5	0.1
0.01	1	0.623057908000192	1	64	NA	56.5621281200001	0	0.5	0.5	1	34.8324926829955	35.4555505909957	"1"	40114.380338346	40109.655933436	1.5	0.1
0.01	1	1.16370139700302	1	64	NA	56.5621281200001	0	0.5	0.5	1	35.6839224709984	36.8476238680014	"1"	40114.380338346	40109.655933436	1.5	0.1
0.01	1	0.704563931001758	1	64	NA	56.5621281200001	0	0.5	0.5	1	37.0862580489993	37.7908219800011	"1"	40114.380338346	40109.655933436	1.5	0.1
0.01	1	0.756018189000315	1	64	NA	56.5621281200001	0	0.5	0.5	1	38.0211732969983	38.7771914859986	"1"	40114.380338346	40109.655933436	1.5	0.1
0.01	1	0.592866462000529	1	64	NA	56.5621281200001	0	0.5	0.5	1	39.0061534929991	39.5990199549997	"1"	40114.380338346	40109.655933436	1.5	0.1
0.01	1	0.704609639004047	1	64	NA	56.5621281200001	0	0.5	0.5	1	39.8241809519968	40.5287905910009	"1"	40114.380338346	40109.655933436	1.5	0.1
0.01	1	1.10409844300011	1	64	NA	56.5621281200001	0	0.5	0.5	1	40.7590556979994	41.8631541409995	"1"	40114.380338346	40109.655933436	1.5	0.1
0.01	1	0.577841156999057	1	64	NA	56.5621281200001	0	0.5	0.5	1	42.0947546800016	42.6725958370007	"1"	40114.380338346	40109.655933436	1.5	0.1
0.01	1	0.599571099999594	1	64	NA	56.5621281200001	0	0.5	0.5	1	42.8960074979987	43.4955785979982	"1"	40114.380338346	40109.655933436	1.5	0.1
0.01	1	0.630491010000696	1	64	NA	56.5621281200001	0	0.5	0.5	1	43.7307122569982	44.3612032669989	"1"	40114.380338346	40109.655933436	1.5	0.1
0.01	1	0.649022993995459	1	64	NA	56.5621281200001	0	0.5	0.5	1	44.5988826390021	45.2479056329976	"1"	40114.380338346	40109.655933436	1.5	0.1
0.01	1	0.643074849002005	1	64	NA	56.5621281200001	0	0.5	0.5	1	45.4837401039986	46.1268149530006	"1"	40114.380338346	40109.655933436	1.5	0.1
0.01	1	0.575335049004934	1	64	NA	56.5621281200001	0	0.5	0.5	1	46.3518131879973	46.9271482370023	"1"	40114.380338346	40109.655933436	1.5	0.1
0.01	1	0.647090682003181	1	64	NA	56.5621281200001	0	0.5	0.5	1	47.1531242959973	47.8002149780004	"1"	40114.380338346	40109.655933436	1.5	0.1
0.01	1	0.585379297001055	1	64	NA	56.5621281200001	0	0.5	0.5	1	48.0380775869999	48.6234568840009	"1"	40114.380338346	40109.655933436	1.5	0.1
0.01	1	0.631716695999785	1	64	NA	56.5621281200001	0	0.5	0.5	1	48.8560700689995	49.4877867649993	"1"	40114.380338346	40109.655933436	1.5	0.1
0.01	1	6.83639329700236	2	64	NA	56.5621281200001	0	0.5	0.5	1	49.7242009499969	56.5605942469992	"1"	40114.380338346	40109.655933436	1.5	0.1
0.01	1	0.777950024996244	1	15	68.3075430079989	NA	1	0	0.5	1	58.6224437420024	59.4003937669986	"2"	40114.380338346	40109.655933436	1.5	0.1
0.01	1	0.463832829002058	1	15	68.3075430079989	NA	1	0	0.5	1	59.6407697979957	60.1046026269978	"2"	40114.380338346	40109.655933436	1.5	0.1
0.01	1	0.49867941300181	1	15	68.3075430079989	NA	1	0	0.5	1	60.3419521269971	60.8406315399989	"2"	40114.380338346	40109.655933436	1.5	0.1
0.01	1	0.466657728000428	1	15	68.3075430079989	NA	1	0	0.5	1	61.0765935570016	61.543251285002	"2"	40114.380338346	40109.655933436	1.5	0.1
0.01	1	0.390308501999243	1	15	68.3075430079989	NA	1	0	0.5	1	61.7778617290023	62.1681702310016	"2"	40114.380338346	40109.655933436	1.5	0.1
0.01	1	0.379853410006035	1	15	68.3075430079989	NA	1	0	0.5	1	62.3955670989963	62.7754205090023	"2"	40114.380338346	40109.655933436	1.5	0.1
0.01	1	0.417909631003567	1	15	68.3075430079989	NA	1	0	0.5	1	63.0131710739952	63.4310807049987	"2"	40114.380338346	40109.655933436	1.5	0.1
0.01	1	0.390716332003649	1	15	68.3075430079989	NA	1	0	0.5	1	63.6643557619973	64.0550720940009	"2"	40114.380338346	40109.655933436	1.5	0.1
0.01	1	0.381118149998656	1	15	68.3075430079989	NA	1	0	0.5	1	64.2819380700021	64.6630562200007	"2"	40114.380338346	40109.655933436	1.5	0.1
0.01	1	0.339035600998614	1	15	68.3075430079989	NA	1	0	0.5	1	64.8997064680007	65.2387420689993	"2"	40114.380338346	40109.655933436	1.5	0.1
0.01	1	0.355856760994357	1	15	68.3075430079989	NA	1	0	0.5	1	65.4672920270023	65.8231487879966	"2"	40114.380338346	40109.655933436	1.5	0.1
0.01	1	0.380430707999039	1	15	68.3075430079989	NA	1	0	0.5	1	66.0515563059962	66.4319870139952	"2"	40114.380338346	40109.655933436	1.5	0.1
0.01	1	0.338139896004577	1	15	68.3075430079989	NA	1	0	0.5	1	66.6692341399976	67.0073740360021	"2"	40114.380338346	40109.655933436	1.5	0.1
0.01	1	0.354054359006113	1	15	68.3075430079989	NA	1	0	0.5	1	67.2370190059955	67.5910733650016	"2"	40114.380338346	40109.655933436	1.5	0.1
0.01	1	0.371371875997283	1	15	68.3075430079989	NA	1	0	0.5	1	67.8212561510009	68.1926280269981	"2"	40114.380338346	40109.655933436	1.5	0.1
0.01	1	0.537281475000782	1	66	NA	100.497195714001	0	0.49	0.99	1	70.3588099819972	70.896091456998	"3"	40114.380338346	40109.655933436	1.5	0.1
0.01	1	0.336768315995869	1	66	NA	100.497195714001	0	0.49	0.99	1	71.1267993889996	71.4635677049955	"3"	40114.380338346	40109.655933436	1.5	0.1
0.01	1	0.345014040001843	1	66	NA	100.497195714001	0	0.49	0.99	1	71.6943824689952	72.039396508997	"3"	40114.380338346	40109.655933436	1.5	0.1
0.01	1	0.331478150998009	1	66	NA	100.497195714001	0	0.49	0.99	1	72.2620868340018	72.5935649849998	"3"	40114.380338346	40109.655933436	1.5	0.1
0.01	1	0.313531367995893	1	66	NA	100.497195714001	0	0.49	0.99	1	72.8297401620002	73.1432715299961	"3"	40114.380338346	40109.655933436	1.5	0.1
0.01	1	0.315864178999618	1	66	NA	100.497195714001	0	0.49	0.99	1	73.3806583479964	73.696522526996	"3"	40114.380338346	40109.655933436	1.5	0.1
0.01	1	0.317238258998259	1	66	NA	100.497195714001	0	0.49	0.99	1	73.9315111649994	74.2487494239977	"3"	40114.380338346	40109.655933436	1.5	0.1
0.01	1	0.293799685001431	1	66	NA	100.497195714001	0	0.49	0.99	1	74.4824342139982	74.7762338989996	"3"	40114.380338346	40109.655933436	1.5	0.1
0.01	1	0.303137969996897	1	66	NA	100.497195714001	0	0.49	0.99	1	74.9999303889999	75.3030683589968	"3"	40114.380338346	40109.655933436	1.5	0.1
0.01	1	0.281531704000372	1	66	NA	100.497195714001	0	0.49	0.99	1	75.5342241659964	75.8157558699968	"3"	40114.380338346	40109.655933436	1.5	0.1
0.01	1	0.291175785998348	1	66	NA	100.497195714001	0	0.49	0.99	1	76.0517617989972	76.3429375849955	"3"	40114.380338346	40109.655933436	1.5	0.1
0.01	1	0.327424935996532	1	66	NA	100.497195714001	0	0.49	0.99	1	76.5692524539991	76.8966773899956	"3"	40114.380338346	40109.655933436	1.5	0.1
0.01	1	0.319059508001374	1	66	NA	100.497195714001	0	0.49	0.99	1	77.1369263599991	77.4559858680004	"3"	40114.380338346	40109.655933436	1.5	0.1
0.01	1	0.328698710996832	1	66	NA	100.497195714001	0	0.49	0.99	1	77.6877833789986	78.0164820899954	"3"	40114.380338346	40109.655933436	1.5	0.1
0.01	1	0.321815014001913	1	66	NA	100.497195714001	0	0.49	0.99	1	78.238803950997	78.5606189649989	"3"	40114.380338346	40109.655933436	1.5	0.1
0.01	1	0.337497430002259	1	66	NA	100.497195714001	0	0.49	0.99	1	78.7897189979994	79.1272164280017	"3"	40114.380338346	40109.655933436	1.5	0.1
0.01	1	0.401401032999274	1	66	NA	100.497195714001	0	0.49	0.99	1	79.3572640839993	79.7586651169986	"3"	40114.380338346	40109.655933436	1.5	0.1
0.01	1	0.400852909995592	1	66	NA	100.497195714001	0	0.49	0.99	1	79.991783079	80.3926359889956	"3"	40114.380338346	40109.655933436	1.5	0.1
0.01	1	0.325529173998802	1	66	NA	100.497195714001	0	0.49	0.99	1	80.6261407499987	80.9516699239975	"3"	40114.380338346	40109.655933436	1.5	0.1
0.01	1	0.335465203999775	1	66	NA	100.497195714001	0	0.49	0.99	1	81.1771162000005	81.5125814040002	"3"	40114.380338346	40109.655933436	1.5	0.1
0.01	1	0.374394345999463	1	66	NA	100.497195714001	0	0.49	0.99	1	81.7446142839981	82.1190086299976	"3"	40114.380338346	40109.655933436	1.5	0.1
0.01	1	0.351152084993373	1	66	NA	100.497195714001	0	0.49	0.99	1	82.3457358840024	82.6968879689957	"3"	40114.380338346	40109.655933436	1.5	0.1
0.01	1	0.358927061999566	1	66	NA	100.497195714001	0	0.49	0.99	1	82.9299602259998	83.2888872879994	"3"	40114.380338346	40109.655933436	1.5	0.1
0.01	1	0.373246062998078	1	66	NA	100.497195714001	0	0.49	0.99	1	83.5144246010022	83.8876706640003	"3"	40114.380338346	40109.655933436	1.5	0.1
0.01	1	0.331793673998618	1	66	NA	100.497195714001	0	0.49	0.99	1	84.1153027559994	84.4470964299981	"3"	40114.380338346	40109.655933436	1.5	0.1
0.01	1	0.372051780002948	1	66	NA	100.497195714001	0	0.49	0.99	1	84.6829681669988	85.0550199470017	"3"	40114.380338346	40109.655933436	1.5	0.1
0.01	1	0.404296699001861	1	66	NA	100.497195714001	0	0.49	0.99	1	85.2839177299975	85.6882144289993	"3"	40114.380338346	40109.655933436	1.5	0.1
0.01	1	0.385654514000635	1	66	NA	100.497195714001	0	0.49	0.99	1	85.918312957001	86.3039674710017	"3"	40114.380338346	40109.655933436	1.5	0.1
0.01	1	0.407713473003241	1	66	NA	100.497195714001	0	0.49	0.99	1	86.5359663869967	86.94367986	"3"	40114.380338346	40109.655933436	1.5	0.1
0.01	1	0.365014506001899	1	66	NA	100.497195714001	0	0.49	0.99	1	87.1704850499955	87.5354995559974	"3"	40114.380338346	40109.655933436	1.5	0.1
0.01	1	0.419289559999015	1	66	NA	100.497195714001	0	0.49	0.99	1	87.7714901739964	88.1907797339954	"3"	40114.380338346	40109.655933436	1.5	0.1
0.01	1	0.416885317004926	1	66	NA	100.497195714001	0	0.49	0.99	1	88.4225085309954	88.8393938480003	"3"	40114.380338346	40109.655933436	1.5	0.1
0.01	1	0.415236284999992	1	66	NA	100.497195714001	0	0.49	0.99	1	89.0736249389956	89.4888612239956	"3"	40114.380338346	40109.655933436	1.5	0.1
0.01	1	0.422177718006424	1	66	NA	100.497195714001	0	0.49	0.99	1	89.7246968229956	90.146874541002	"3"	40114.380338346	40109.655933436	1.5	0.1
0.01	1	0.400281520996941	1	66	NA	100.497195714001	0	0.49	0.99	1	90.3757553390024	90.7760368599993	"3"	40114.380338346	40109.655933436	1.5	0.1
0.01	1	0.416547167005774	1	66	NA	100.497195714001	0	0.49	0.99	1	91.0101601509959	91.4267073180017	"3"	40114.380338346	40109.655933436	1.5	0.1
0.01	1	0.506203642995388	1	66	NA	100.497195714001	0	0.49	0.99	1	91.6613309940003	92.1675346369957	"3"	40114.380338346	40109.655933436	1.5	0.1
0.01	1	0.412027286998637	1	66	NA	100.497195714001	0	0.49	0.99	1	92.3958600719998	92.8078873589984	"3"	40114.380338346	40109.655933436	1.5	0.1
0.01	1	0.433607439998013	1	66	NA	100.497195714001	0	0.49	0.99	1	93.0302003309989	93.4638077709969	"3"	40114.380338346	40109.655933436	1.5	0.1
0.01	1	0.479605719003303	1	66	NA	100.497195714001	0	0.49	0.99	1	93.698052669999	94.1776583890023	"3"	40114.380338346	40109.655933436	1.5	0.1
0.01	1	0.463514719005616	1	66	NA	100.497195714001	0	0.49	0.99	1	94.4159779229958	94.8794926420014	"3"	40114.380338346	40109.655933436	1.5	0.1
0.01	1	0.418950851999398	1	66	NA	100.497195714001	0	0.49	0.99	1	95.1171038280008	95.5360546800002	"3"	40114.380338346	40109.655933436	1.5	0.1
0.01	1	0.399582201003795	1	66	NA	100.497195714001	0	0.49	0.99	1	95.7682597719977	96.1678419730015	"3"	40114.380338346	40109.655933436	1.5	0.1
0.01	1	0.420985629003553	1	66	NA	100.497195714001	0	0.49	0.99	1	96.4026676509966	96.8236532800001	"3"	40114.380338346	40109.655933436	1.5	0.1
0.01	1	0.377447443002893	1	66	NA	100.497195714001	0	0.49	0.99	1	97.0536471579981	97.431094601001	"3"	40114.380338346	40109.655933436	1.5	0.1
0.01	1	0.416308649000712	1	66	NA	100.497195714001	0	0.49	0.99	1	97.6714877069971	98.0877963559979	"3"	40114.380338346	40109.655933436	1.5	0.1
0.01	1	0.397671603997878	1	66	NA	100.497195714001	0	0.49	0.99	1	98.3225532659999	98.7202248699978	"3"	40114.380338346	40109.655933436	1.5	0.1
0.01	1	0.370142615996883	1	66	NA	100.497195714001	0	0.49	0.99	1	98.9570342619991	99.327176877996	"3"	40114.380338346	40109.655933436	1.5	0.1
0.01	1	0.353658143998473	1	66	NA	100.497195714001	0	0.49	0.99	1	99.5578853359984	99.9115434799969	"3"	40114.380338346	40109.655933436	1.5	0.1
0.01	1	0.353328900004271	2	66	NA	100.497195714001	0	0.49	0.99	1	100.142273106998	100.495602007002	"3"	40114.380338346	40109.655933436	1.5	0.1
0.01	1	0.469724250004219	1	16	111.796998920996	NA	1	0	0.99	1	102.546306261997	103.016030512001	"4"	40114.380338346	40109.655933436	1.5	0.1
0.01	1	0.351361780005391	1	16	111.796998920996	NA	1	0	0.99	1	103.247400385997	103.598762166002	"4"	40114.380338346	40109.655933436	1.5	0.1
0.01	1	0.368772398993315	1	16	111.796998920996	NA	1	0	0.99	1	103.831800660002	104.200573058995	"4"	40114.380338346	40109.655933436	1.5	0.1
0.01	1	0.351248209000914	1	16	111.796998920996	NA	1	0	0.99	1	104.432766500999	104.78401471	"4"	40114.380338346	40109.655933436	1.5	0.1
0.01	1	0.312443746995996	1	16	111.796998920996	NA	1	0	0.99	1	105.017083152001	105.329526898997	"4"	40114.380338346	40109.655933436	1.5	0.1
0.01	1	0.311960386999999	1	16	111.796998920996	NA	1	0	0.99	1	105.551396281	105.863356668	"4"	40114.380338346	40109.655933436	1.5	0.1
0.01	1	0.313350181000715	1	16	111.796998920996	NA	1	0	0.99	1	106.102301129999	106.415651310999	"4"	40114.380338346	40109.655933436	1.5	0.1
0.01	1	0.298912236998149	1	16	111.796998920996	NA	1	0	0.99	1	106.653209582	106.952121818998	"4"	40114.380338346	40109.655933436	1.5	0.1
0.01	1	0.308717074003653	1	16	111.796998920996	NA	1	0	0.99	1	107.187360270997	107.496077345	"4"	40114.380338346	40109.655933436	1.5	0.1
0.01	1	0.364933001001191	1	16	111.796998920996	NA	1	0	0.99	1	107.721726358999	108.08665936	"4"	40114.380338346	40109.655933436	1.5	0.1
0.01	1	0.349993636002182	1	16	111.796998920996	NA	1	0	0.99	1	108.322647397996	108.672641033998	"4"	40114.380338346	40109.655933436	1.5	0.1
0.01	1	0.36624341699644	1	16	111.796998920996	NA	1	0	0.99	1	108.906956753999	109.273200170996	"4"	40114.380338346	40109.655933436	1.5	0.1
0.01	1	0.379521471004409	1	16	111.796998920996	NA	1	0	0.99	1	109.508008908997	109.887530380001	"4"	40114.380338346	40109.655933436	1.5	0.1
0.01	1	0.35330033399805	1	16	111.796998920996	NA	1	0	0.99	1	110.125708644999	110.479008978997	"4"	40114.380338346	40109.655933436	1.5	0.1
0.01	1	0.40243074499449	1	16	111.796998920996	NA	1	0	0.99	1	110.710037814002	111.112468558997	"4"	40114.380338346	40109.655933436	1.5	0.1
0.01	1	0.33517598900653	1	16	111.796998920996	NA	1	0	0.99	1	111.344473667996	111.679649657002	"4"	40114.380338346	40109.655933436	1.5	0.1
0.01	1	0.48680048299866	1	50	142.164367630001	NA	1	0	0.99	1	113.848632768997	114.335433251996	"5"	40114.380338346	40109.655933436	1.5	0.1
0.01	1	0.417142864003836	1	50	142.164367630001	NA	1	0	0.99	1	114.566472077997	114.983614942001	"5"	40114.380338346	40109.655933436	1.5	0.1
0.01	1	0.309521672999836	1	50	142.164367630001	NA	1	0	0.99	1	115.217569011002	115.527090684001	"5"	40114.380338346	40109.655933436	1.5	0.1
0.01	1	0.312682527997822	1	50	142.164367630001	NA	1	0	0.99	1	115.751861117998	116.064543645996	"5"	40114.380338346	40109.655933436	1.5	0.1
0.01	1	0.296689013004652	1	50	142.164367630001	NA	1	0	0.99	1	116.286063793996	116.582752807	"5"	40114.380338346	40109.655933436	1.5	0.1
0.01	1	0.244483962000231	1	50	142.164367630001	NA	1	0	0.99	1	116.820253065001	117.064737027002	"5"	40114.380338346	40109.655933436	1.5	0.1
0.01	1	0.303128398998524	1	50	142.164367630001	NA	1	0	0.99	1	117.287691534999	117.590819933997	"5"	40114.380338346	40109.655933436	1.5	0.1
0.01	1	0.290435737995722	1	50	142.164367630001	NA	1	0	0.99	1	117.822047399	118.112483136996	"5"	40114.380338346	40109.655933436	1.5	0.1
0.01	1	0.276995002001058	1	50	142.164367630001	NA	1	0	0.99	1	118.339531664999	118.616526667	"5"	40114.380338346	40109.655933436	1.5	0.1
0.01	1	0.342638258000079	1	50	142.164367630001	NA	1	0	0.99	1	118.840313061999	119.182951319999	"5"	40114.380338346	40109.655933436	1.5	0.1
0.01	1	0.351496887000394	1	50	142.164367630001	NA	1	0	0.99	1	119.407900596998	119.759397483998	"5"	40114.380338346	40109.655933436	1.5	0.1
0.01	1	0.37590843399812	1	50	142.164367630001	NA	1	0	0.99	1	119.992226887	120.368135320998	"5"	40114.380338346	40109.655933436	1.5	0.1
0.01	1	0.343059235994588	1	50	142.164367630001	NA	1	0	0.99	1	120.593237647001	120.936296882996	"5"	40114.380338346	40109.655933436	1.5	0.1
0.01	1	0.375019333994715	1	50	142.164367630001	NA	1	0	0.99	1	121.160931054001	121.535950387995	"5"	40114.380338346	40109.655933436	1.5	0.1
0.01	1	0.349938009996549	1	50	142.164367630001	NA	1	0	0.99	1	121.761975330002	122.111913339999	"5"	40114.380338346	40109.655933436	1.5	0.1
0.01	1	0.318128772996715	1	50	142.164367630001	NA	1	0	0.99	1	122.346267970999	122.664396743996	"5"	40114.380338346	40109.655933436	1.5	0.1
0.01	1	0.327571191999596	1	50	142.164367630001	NA	1	0	0.99	1	122.897211062002	123.224782254001	"5"	40114.380338346	40109.655933436	1.5	0.1
0.01	1	0.334704350003449	1	50	142.164367630001	NA	1	0	0.99	1	123.448163583998	123.782867934002	"5"	40114.380338346	40109.655933436	1.5	0.1
0.01	1	0.304904887998418	1	50	142.164367630001	NA	1	0	0.99	1	124.015765971999	124.320670859997	"5"	40114.380338346	40109.655933436	1.5	0.1
0.01	1	0.305914611999469	1	50	142.164367630001	NA	1	0	0.99	1	124.549972321998	124.855886933998	"5"	40114.380338346	40109.655933436	1.5	0.1
0.01	1	0.355845322003006	1	50	142.164367630001	NA	1	0	0.99	1	125.084293775995	125.440139097998	"5"	40114.380338346	40109.655933436	1.5	0.1
0.01	1	0.330149772998993	1	50	142.164367630001	NA	1	0	0.99	1	125.668548367001	125.99869814	"5"	40114.380338346	40109.655933436	1.5	0.1
0.01	1	0.338868970000476	1	50	142.164367630001	NA	1	0	0.99	1	126.236223950997	126.575092920997	"5"	40114.380338346	40109.655933436	1.5	0.1
0.01	1	0.363059620001877	1	50	142.164367630001	NA	1	0	0.99	1	126.803736107999	127.166795728001	"5"	40114.380338346	40109.655933436	1.5	0.1
0.01	1	0.32225627599837	1	50	142.164367630001	NA	1	0	0.99	1	127.404689028001	127.726945303999	"5"	40114.380338346	40109.655933436	1.5	0.1
0.01	1	0.397006216000591	1	50	142.164367630001	NA	1	0	0.99	1	127.955663041001	128.352669257001	"5"	40114.380338346	40109.655933436	1.5	0.1
0.01	1	0.339175741995859	1	50	142.164367630001	NA	1	0	0.99	1	128.590004853002	128.929180594998	"5"	40114.380338346	40109.655933436	1.5	0.1
0.01	1	0.362600786000257	1	50	142.164367630001	NA	1	0	0.99	1	129.157782502996	129.520383288997	"5"	40114.380338346	40109.655933436	1.5	0.1
0.01	1	0.312151546000678	1	50	142.164367630001	NA	1	0	0.99	1	129.758666276997	130.070817822998	"5"	40114.380338346	40109.655933436	1.5	0.1
0.01	1	0.32275892799953	1	50	142.164367630001	NA	1	0	0.99	1	130.292970759998	130.615729687997	"5"	40114.380338346	40109.655933436	1.5	0.1
0.01	1	0.474855594999099	1	50	142.164367630001	NA	1	0	0.99	1	130.843899412001	131.318755007	"5"	40114.380338346	40109.655933436	1.5	0.1
0.01	1	0.310063959004765	1	50	142.164367630001	NA	1	0	0.99	1	131.545069105996	131.855133065001	"5"	40114.380338346	40109.655933436	1.5	0.1
0.01	1	0.353335421998054	1	50	142.164367630001	NA	1	0	0.99	1	132.079231003998	132.432566425996	"5"	40114.380338346	40109.655933436	1.5	0.1
0.01	1	0.344394414998533	1	50	142.164367630001	NA	1	0	0.99	1	132.663552197999	133.007946612997	"5"	40114.380338346	40109.655933436	1.5	0.1
0.01	1	0.34357830999943	1	50	142.164367630001	NA	1	0	0.99	1	133.231247646996	133.574825956995	"5"	40114.380338346	40109.655933436	1.5	0.1
0.01	1	0.36084005000157	1	50	142.164367630001	NA	1	0	0.99	1	133.798885856995	134.159725906997	"5"	40114.380338346	40109.655933436	1.5	0.1
0.01	1	0.343983253995248	1	50	142.164367630001	NA	1	0	0.99	1	134.383193253001	134.727176506996	"5"	40114.380338346	40109.655933436	1.5	0.1
0.01	1	0.338943889000802	1	50	142.164367630001	NA	1	0	0.99	1	134.950798309997	135.289742198998	"5"	40114.380338346	40109.655933436	1.5	0.1
0.01	1	0.329118438996375	1	50	142.164367630001	NA	1	0	0.99	1	135.518341720999	135.847460159996	"5"	40114.380338346	40109.655933436	1.5	0.1
0.01	1	0.282436232999316	1	50	142.164367630001	NA	1	0	0.99	1	136.086056624998	136.368492857997	"5"	40114.380338346	40109.655933436	1.5	0.1
0.01	1	0.34080812400498	1	50	142.164367630001	NA	1	0	0.99	1	136.603571458996	136.944379583001	"5"	40114.380338346	40109.655933436	1.5	0.1
0.01	1	0.347879881999688	1	50	142.164367630001	NA	1	0	0.99	1	137.171255025998	137.519134907998	"5"	40114.380338346	40109.655933436	1.5	0.1
0.01	1	0.324512147002679	1	50	142.164367630001	NA	1	0	0.99	1	137.755524007	138.080036154002	"5"	40114.380338346	40109.655933436	1.5	0.1
0.01	1	0.325834543000383	1	50	142.164367630001	NA	1	0	0.99	1	138.306338506998	138.632173049999	"5"	40114.380338346	40109.655933436	1.5	0.1
0.01	1	0.328375059005339	1	50	142.164367630001	NA	1	0	0.99	1	138.857351517996	139.185726577001	"5"	40114.380338346	40109.655933436	1.5	0.1
0.01	1	0.335491094003373	1	50	142.164367630001	NA	1	0	0.99	1	139.424960534998	139.760451629001	"5"	40114.380338346	40109.655933436	1.5	0.1
0.01	1	0.351086367001699	1	50	142.164367630001	NA	1	0	0.99	1	139.992610103996	140.343696470998	"5"	40114.380338346	40109.655933436	1.5	0.1
0.01	1	0.335274035998737	1	50	142.164367630001	NA	1	0	0.99	1	140.576882567999	140.912156603998	"5"	40114.380338346	40109.655933436	1.5	0.1
0.01	1	0.335199729001033	1	50	142.164367630001	NA	1	0	0.99	1	141.144468986	141.479668715001	"5"	40114.380338346	40109.655933436	1.5	0.1
0.01	1	0.344962407994899	1	50	142.164367630001	NA	1	0	0.99	1	141.712154462002	142.057116869997	"5"	40114.380338346	40109.655933436	1.5	0.1
0.01	1	0.350543699001719	1	45	168.708966257997	NA	1	0	0.99	1	144.216306543	144.566850242001	"6"	40114.380338346	40109.655933436	1.5	0.1
0.01	1	0.294676598998194	1	45	168.708966257997	NA	1	0	0.99	1	144.800641927002	145.095318526	"6"	40114.380338346	40109.655933436	1.5	0.1
0.01	1	0.31339778599795	1	45	168.708966257997	NA	1	0	0.99	1	145.318179394002	145.63157718	"6"	40114.380338346	40109.655933436	1.5	0.1
0.01	1	0.291549667999789	1	45	168.708966257997	NA	1	0	0.99	1	145.869145632001	146.160695300001	"6"	40114.380338346	40109.655933436	1.5	0.1
0.01	1	0.32401287999528	1	45	168.708966257997	NA	1	0	0.99	1	146.386671077002	146.710683956997	"6"	40114.380338346	40109.655933436	1.5	0.1
0.01	1	0.317224142992927	1	45	168.708966257997	NA	1	0	0.99	1	146.937516067002	147.254740209995	"6"	40114.380338346	40109.655933436	1.5	0.1
0.01	1	0.3521666930028	1	45	168.708966257997	NA	1	0	0.99	1	147.488476307997	147.840643001	"6"	40114.380338346	40109.655933436	1.5	0.1
0.01	1	0.311177345000033	1	45	168.708966257997	NA	1	0	0.99	1	148.072748138999	148.383925483999	"6"	40114.380338346	40109.655933436	1.5	0.1
0.01	1	0.336914297004114	1	45	168.708966257997	NA	1	0	0.99	1	148.607166912996	148.94408121	"6"	40114.380338346	40109.655933436	1.5	0.1
0.01	1	0.312677636000444	1	45	168.708966257997	NA	1	0	0.99	1	149.174620621001	149.487298257001	"6"	40114.380338346	40109.655933436	1.5	0.1
0.01	1	0.34001003800222	1	45	168.708966257997	NA	1	0	0.99	1	149.708923259997	150.048933298	"6"	40114.380338346	40109.655933436	1.5	0.1
0.01	1	0.340548884996679	1	45	168.708966257997	NA	1	0	0.99	1	150.276565086999	150.617113971995	"6"	40114.380338346	40109.655933436	1.5	0.1
0.01	1	0.331452684004034	1	45	168.708966257997	NA	1	0	0.99	1	150.844124108997	151.175576793001	"6"	40114.380338346	40109.655933436	1.5	0.1
0.01	1	0.284383354999591	1	45	168.708966257997	NA	1	0	0.99	1	151.411793811996	151.696177166996	"6"	40114.380338346	40109.655933436	1.5	0.1
0.01	1	0.32600394700421	1	45	168.708966257997	NA	1	0	0.99	1	151.929316969996	152.255320917	"6"	40114.380338346	40109.655933436	1.5	0.1
0.01	1	0.382902511999418	1	45	168.708966257997	NA	1	0	0.99	1	152.480263336998	152.863165848998	"6"	40114.380338346	40109.655933436	1.5	0.1
0.01	1	0.365722250004183	1	45	168.708966257997	NA	1	0	0.99	1	153.097900009998	153.463622260002	"6"	40114.380338346	40109.655933436	1.5	0.1
0.01	1	0.36582007999823	1	45	168.708966257997	NA	1	0	0.99	1	153.699025394002	154.064845474	"6"	40114.380338346	40109.655933436	1.5	0.1
0.01	1	0.308098649002204	1	45	168.708966257997	NA	1	0	0.99	1	154.299906677996	154.608005326998	"6"	40114.380338346	40109.655933436	1.5	0.1
0.01	1	0.342921406001551	1	45	168.708966257997	NA	1	0	0.99	1	154.834159446997	155.177080852998	"6"	40114.380338346	40109.655933436	1.5	0.1
0.01	1	0.293641144999128	1	45	168.708966257997	NA	1	0	0.99	1	155.401752705002	155.695393850001	"6"	40114.380338346	40109.655933436	1.5	0.1
0.01	1	0.320707969003706	1	45	168.708966257997	NA	1	0	0.99	1	155.919320367997	156.240028337001	"6"	40114.380338346	40109.655933436	1.5	0.1
0.01	1	0.289208476999192	1	45	168.708966257997	NA	1	0	0.99	1	156.470380621999	156.759589098998	"6"	40114.380338346	40109.655933436	1.5	0.1
0.01	1	0.29927017299633	1	45	168.708966257997	NA	1	0	0.99	1	156.987779531999	157.287049704995	"6"	40114.380338346	40109.655933436	1.5	0.1
0.01	1	0.284925471998577	1	45	168.708966257997	NA	1	0	0.99	1	157.522072464002	157.806997936001	"6"	40114.380338346	40109.655933436	1.5	0.1
0.01	1	0.327379057998769	1	45	168.708966257997	NA	1	0	0.99	1	158.03968396	158.367063017999	"6"	40114.380338346	40109.655933436	1.5	0.1
0.01	1	0.00215177499921992	1	45	168.708966257997	NA	1	0	0.99	1	158.590447552997	158.592599327996	"6"	40114.380338346	40109.655933436	1.5	0.1
0.01	1	0.159080611003446	1	45	168.708966257997	NA	1	0	0.99	1	158.824262319999	158.983342931002	"6"	40114.380338346	40109.655933436	1.5	0.1
0.01	1	0.431631019004271	1	45	168.708966257997	NA	1	0	0.99	1	159.208230967997	159.639861987001	"6"	40114.380338346	40109.655933436	1.5	0.1
0.01	1	0.308052557003975	1	45	168.708966257997	NA	1	0	0.99	1	159.875932329996	160.183984887	"6"	40114.380338346	40109.655933436	1.5	0.1
0.01	1	0.277001000999007	1	45	168.708966257997	NA	1	0	0.99	1	160.410337387002	160.687338388001	"6"	40114.380338346	40109.655933436	1.5	0.1
0.01	1	0.31488824900589	1	45	168.708966257997	NA	1	0	0.99	1	160.927687967996	161.242576217002	"6"	40114.380338346	40109.655933436	1.5	0.1
0.01	1	0.296257670001069	1	45	168.708966257997	NA	1	0	0.99	1	161.478612040999	161.774869711	"6"	40114.380338346	40109.655933436	1.5	0.1
0.01	1	0.315145690001373	1	45	168.708966257997	NA	1	0	0.99	1	162.012934781	162.328080471001	"6"	40114.380338346	40109.655933436	1.5	0.1
0.01	1	0.291845844003547	1	45	168.708966257997	NA	1	0	0.99	1	162.563774497998	162.855620342001	"6"	40114.380338346	40109.655933436	1.5	0.1
0.01	1	0.359177304002515	1	45	168.708966257997	NA	1	0	0.99	1	163.081337465999	163.440514770002	"6"	40114.380338346	40109.655933436	1.5	0.1
0.01	1	0.310894852998899	1	45	168.708966257997	NA	1	0	0.99	1	163.665714930001	163.976609783	"6"	40114.380338346	40109.655933436	1.5	0.1
0.01	1	0.286879512001178	1	45	168.708966257997	NA	1	0	0.99	1	164.216889056996	164.503768568997	"6"	40114.380338346	40109.655933436	1.5	0.1
0.01	1	0.362407629996596	1	45	168.708966257997	NA	1	0	0.99	1	164.734155350001	165.096562979998	"6"	40114.380338346	40109.655933436	1.5	0.1
0.01	1	0.385911368000961	1	45	168.708966257997	NA	1	0	0.99	1	165.318514059996	165.704425427997	"6"	40114.380338346	40109.655933436	1.5	0.1
0.01	1	0.455706220003776	1	45	168.708966257997	NA	1	0	0.99	1	165.936169203997	166.391875424	"6"	40114.380338346	40109.655933436	1.5	0.1
0.01	1	0.379276406005374	1	45	168.708966257997	NA	1	0	0.99	1	166.620692389995	166.999968796001	"6"	40114.380338346	40109.655933436	1.5	0.1
0.01	1	0.288759784998547	1	45	168.708966257997	NA	1	0	0.99	1	167.238387313002	167.527147098001	"6"	40114.380338346	40109.655933436	1.5	0.1
0.01	1	0.332227177001187	1	45	168.708966257997	NA	1	0	0.99	1	167.755866137995	168.088093314997	"6"	40114.380338346	40109.655933436	1.5	0.1
0.01	1	0.275475985996309	1	45	168.708966257997	NA	1	0	0.99	1	168.323622333999	168.599098319995	"6"	40114.380338346	40109.655933436	1.5	0.1
0.01	1	0.126894820998132	1	7	174.101378629995	NA	1	0	0.99	1	170.760938767002	170.887833588	"7"	40114.380338346	40109.655933436	1.5	0.1
0.01	1	0.479917165997904	1	7	174.101378629995	NA	1	0	0.99	1	171.128220564002	171.60813773	"7"	40114.380338346	40109.655933436	1.5	0.1
0.01	1	0.298697404999984	1	7	174.101378629995	NA	1	0	0.99	1	171.846091034	172.144788439	"7"	40114.380338346	40109.655933436	1.5	0.1
0.01	1	0.250348104003933	1	7	174.101378629995	NA	1	0	0.99	1	172.380353107998	172.630701212001	"7"	40114.380338346	40109.655933436	1.5	0.1
0.01	1	0.223075054003857	1	7	174.101378629995	NA	1	0	0.99	1	172.864520479998	173.087595534002	"7"	40114.380338346	40109.655933436	1.5	0.1
0.01	1	0.25495915600186	1	7	174.101378629995	NA	1	0	0.99	1	173.315290697996	173.570249853998	"7"	40114.380338346	40109.655933436	1.5	0.1
0.01	1	0.192937698004243	1	7	174.101378629995	NA	1	0	0.99	1	173.799374946997	173.992312645001	"7"	40114.380338346	40109.655933436	1.5	0.1
0.01	1	0.39061135299562	1	34	192.298607906996	NA	1	0	0.99	1	176.153331057001	176.543942409997	"8"	40114.380338346	40109.655933436	1.5	0.1
0.01	1	0.244685054000001	1	34	192.298607906996	NA	1	0	0.99	1	176.771063829998	177.015748883998	"8"	40114.380338346	40109.655933436	1.5	0.1
0.01	1	0.216162976001215	1	34	192.298607906996	NA	1	0	0.99	1	177.255154717997	177.471317693999	"8"	40114.380338346	40109.655933436	1.5	0.1
0.01	1	0.213126251997892	1	34	192.298607906996	NA	1	0	0.99	1	177.705891817997	177.919018069995	"8"	40114.380338346	40109.655933436	1.5	0.1
0.01	1	0.235801205999451	1	34	192.298607906996	NA	1	0	0.99	1	178.156733497002	178.392534703002	"8"	40114.380338346	40109.655933436	1.5	0.1
0.01	1	0.232037927002239	1	34	192.298607906996	NA	1	0	0.99	1	178.624143322995	178.856181249997	"8"	40114.380338346	40109.655933436	1.5	0.1
0.01	1	0.195660899997165	1	34	192.298607906996	NA	1	0	0.99	1	179.091582752	179.287243651997	"8"	40114.380338346	40109.655933436	1.5	0.1
0.01	1	0.202638060000027	1	34	192.298607906996	NA	1	0	0.99	1	179.508944192996	179.711582252996	"8"	40114.380338346	40109.655933436	1.5	0.1
0.01	1	0.185132491998957	1	34	192.298607906996	NA	1	0	0.99	1	179.942988827002	180.128121319001	"8"	40114.380338346	40109.655933436	1.5	0.1
0.01	1	0.198468818998663	1	34	192.298607906996	NA	1	0	0.99	1	180.360370183	180.558839001998	"8"	40114.380338346	40109.655933436	1.5	0.1
0.01	1	0.175468187000661	1	34	192.298607906996	NA	1	0	0.99	1	180.794496588998	180.969964775999	"8"	40114.380338346	40109.655933436	1.5	0.1
0.01	1	0.189608487999067	1	34	192.298607906996	NA	1	0	0.99	1	181.195265331	181.384873818999	"8"	40114.380338346	40109.655933436	1.5	0.1
0.01	1	0.242309082001157	1	34	192.298607906996	NA	1	0	0.99	1	181.612472583998	181.854781665999	"8"	40114.380338346	40109.655933436	1.5	0.1
0.01	1	0.218852946003608	1	34	192.298607906996	NA	1	0	0.99	1	182.079947164995	182.298800110999	"8"	40114.380338346	40109.655933436	1.5	0.1
0.01	1	0.20516882299853	1	34	192.298607906996	NA	1	0	0.99	1	182.530826153998	182.735994976996	"8"	40114.380338346	40109.655933436	1.5	0.1
0.01	1	0.242463495000266	1	34	192.298607906996	NA	1	0	0.99	1	182.964732774999	183.207196269999	"8"	40114.380338346	40109.655933436	1.5	0.1
0.01	1	0.240537377998407	1	34	192.298607906996	NA	1	0	0.99	1	183.432262269002	183.672799647	"8"	40114.380338346	40109.655933436	1.5	0.1
0.01	1	0.236771415999101	1	34	192.298607906996	NA	1	0	0.99	1	183.899646546997	184.136417962996	"8"	40114.380338346	40109.655933436	1.5	0.1
0.01	1	0.216859195003053	1	34	192.298607906996	NA	1	0	0.99	1	184.367120196999	184.583979392002	"8"	40114.380338346	40109.655933436	1.5	0.1
0.01	1	0.205216279995511	1	34	192.298607906996	NA	1	0	0.99	1	184.818025298002	185.023241577997	"8"	40114.380338346	40109.655933436	1.5	0.1
0.01	1	0.308608804996766	1	34	192.298607906996	NA	1	0	0.99	1	185.251911350999	185.560520155996	"8"	40114.380338346	40109.655933436	1.5	0.1
0.01	1	0.300869582002633	1	34	192.298607906996	NA	1	0	0.99	1	185.786200675997	186.087070258	"8"	40114.380338346	40109.655933436	1.5	0.1
0.01	1	0.264176183001837	1	34	192.298607906996	NA	1	0	0.99	1	186.320485167998	186.584661351	"8"	40114.380338346	40109.655933436	1.5	0.1
0.01	1	0.267029704002198	1	34	192.298607906996	NA	1	0	0.99	1	186.821281008997	187.088310712999	"8"	40114.380338346	40109.655933436	1.5	0.1
0.01	1	0.27791237400379	1	34	192.298607906996	NA	1	0	0.99	1	187.322190913997	187.600103288001	"8"	40114.380338346	40109.655933436	1.5	0.1
0.01	1	0.297432708000997	1	34	192.298607906996	NA	1	0	0.99	1	187.822942558996	188.120375266997	"8"	40114.380338346	40109.655933436	1.5	0.1
0.01	1	0.26587246300187	1	34	192.298607906996	NA	1	0	0.99	1	188.357165173999	188.623037637	"8"	40114.380338346	40109.655933436	1.5	0.1
0.01	1	0.269090105000942	1	34	192.298607906996	NA	1	0	0.99	1	188.858099869998	189.127189974999	"8"	40114.380338346	40109.655933436	1.5	0.1
0.01	1	0.24878077700123	1	34	192.298607906996	NA	1	0	0.99	1	189.358830899997	189.607611676998	"8"	40114.380338346	40109.655933436	1.5	0.1
0.01	1	0.243863256000623	1	34	192.298607906996	NA	1	0	0.99	1	189.843000754998	190.086864010998	"8"	40114.380338346	40109.655933436	1.5	0.1
0.01	1	0.279574240004877	1	34	192.298607906996	NA	1	0	0.99	1	190.327076026995	190.606650267	"8"	40114.380338346	40109.655933436	1.5	0.1
0.01	1	0.282542321998335	1	34	192.298607906996	NA	1	0	0.99	1	190.844639862	191.127182183998	"8"	40114.380338346	40109.655933436	1.5	0.1
0.01	1	0.262104954999813	1	34	192.298607906996	NA	1	0	0.99	1	191.362190152999	191.624295107998	"8"	40114.380338346	40109.655933436	1.5	0.1
0.01	1	0.336978131999786	1	34	192.298607906996	NA	1	0	0.99	1	191.846314679999	192.183292811998	"8"	40114.380338346	40109.655933436	1.5	0.1
0.01	1	0.00214440400304738	1	110	NA	213.722107713998	0	0.34	1.33	1	194.350662117999	194.352806522002	"9"	40114.380338346	40109.655933436	1.5	0.1
0.01	1	0.400018817999808	1	110	NA	213.722107713998	0	0.34	1.33	1	194.584362351998	194.984381169998	"9"	40114.380338346	40109.655933436	1.5	0.1
0.01	1	0.284594917000504	1	110	NA	213.722107713998	0	0.34	1.33	1	195.218800566996	195.503395483996	"9"	40114.380338346	40109.655933436	1.5	0.1
0.01	1	0.239987232998828	1	110	NA	213.722107713998	0	0.34	1.33	1	195.736320406999	195.976307639998	"9"	40114.380338346	40109.655933436	1.5	0.1
0.01	1	0.227662683995732	1	110	NA	213.722107713998	0	0.34	1.33	1	196.203742079	196.431404762996	"9"	40114.380338346	40109.655933436	1.5	0.1
0.01	1	0.233271230004902	1	110	NA	213.722107713998	0	0.34	1.33	1	196.654491609996	196.887762840001	"9"	40114.380338346	40109.655933436	1.5	0.1
0.01	1	0.213530820001324	1	110	NA	213.722107713998	0	0.34	1.33	1	197.121874106997	197.335404926998	"9"	40114.380338346	40109.655933436	1.5	0.1
0.01	1	0.219070150000334	1	110	NA	213.722107713998	0	0.34	1.33	1	197.572601444001	197.791671594001	"9"	40114.380338346	40109.655933436	1.5	0.1
0.01	1	0.257340166004724	1	110	NA	213.722107713998	0	0.34	1.33	1	198.023387670997	198.280727837002	"9"	40114.380338346	40109.655933436	1.5	0.1
0.01	1	0.212977627001237	1	110	NA	213.722107713998	0	0.34	1.33	1	198.507495159996	198.720472786998	"9"	40114.380338346	40109.655933436	1.5	0.1
0.01	1	0.249720449995948	1	110	NA	213.722107713998	0	0.34	1.33	1	198.958299026002	199.208019475998	"9"	40114.380338346	40109.655933436	1.5	0.1
0.01	1	0.27745981499902	1	110	NA	213.722107713998	0	0.34	1.33	1	199.442411718999	199.719871533998	"9"	40114.380338346	40109.655933436	1.5	0.1
0.01	1	0.255195456004003	1	110	NA	213.722107713998	0	0.34	1.33	1	199.943472036997	200.198667493001	"9"	40114.380338346	40109.655933436	1.5	0.1
0.01	1	0.228038891000324	1	110	NA	213.722107713998	0	0.34	1.33	1	200.427406172996	200.655445063996	"9"	40114.380338346	40109.655933436	1.5	0.1
0.01	1	0.223915636997845	1	110	NA	213.722107713998	0	0.34	1.33	1	200.895005760001	201.118921396999	"9"	40114.380338346	40109.655933436	1.5	0.1
0.01	1	0.246674130998144	1	110	NA	213.722107713998	0	0.34	1.33	1	201.345630762	201.592304892998	"9"	40114.380338346	40109.655933436	1.5	0.1
0.01	1	0.258569777004595	1	110	NA	213.722107713998	0	0.34	1.33	1	201.829888280998	202.088458058002	"9"	40114.380338346	40109.655933436	1.5	0.1
0.01	1	0.238079456998094	1	110	NA	213.722107713998	0	0.34	1.33	1	202.314029488	202.552108944998	"9"	40114.380338346	40109.655933436	1.5	0.1
0.01	1	0.250913540003239	1	110	NA	213.722107713998	0	0.34	1.33	1	202.781341010996	203.032254550999	"9"	40114.380338346	40109.655933436	1.5	0.1
0.01	1	0.263023774998146	1	110	NA	213.722107713998	0	0.34	1.33	1	203.265572577999	203.528596352997	"9"	40114.380338346	40109.655933436	1.5	0.1
0.01	1	0.313084514004004	1	110	NA	213.722107713998	0	0.34	1.33	1	203.766434787998	204.079519302002	"9"	40114.380338346	40109.655933436	1.5	0.1
0.01	1	0.282064033999632	1	110	NA	213.722107713998	0	0.34	1.33	1	204.317305202996	204.599369236996	"9"	40114.380338346	40109.655933436	1.5	0.1
0.01	1	0.283848915998533	1	110	NA	213.722107713998	0	0.34	1.33	1	204.834811280001	205.118660196	"9"	40114.380338346	40109.655933436	1.5	0.1
0.01	1	0.256411694004782	1	110	NA	213.722107713998	0	0.34	1.33	1	205.352407262995	205.608818957	"9"	40114.380338346	40109.655933436	1.5	0.1
0.01	1	0.290471050997439	1	110	NA	213.722107713998	0	0.34	1.33	1	205.836548040999	206.127019091997	"9"	40114.380338346	40109.655933436	1.5	0.1
0.01	1	0.309655258002749	1	110	NA	213.722107713998	0	0.34	1.33	1	206.354134380999	206.663789639002	"9"	40114.380338346	40109.655933436	1.5	0.1
0.01	1	0.295153737999499	1	110	NA	213.722107713998	0	0.34	1.33	1	206.888311563998	207.183465301998	"9"	40114.380338346	40109.655933436	1.5	0.1
0.01	1	0.360959700999956	1	110	NA	213.722107713998	0	0.34	1.33	1	207.422524258996	207.783483959996	"9"	40114.380338346	40109.655933436	1.5	0.1
0.01	1	1.94538871400437	1	110	NA	213.722107713998	0	0.34	1.33	1	208.006796322996	209.952185037	"9"	40114.380338346	40109.655933436	1.5	0.1
0.01	1	0.958282655999938	1	110	NA	213.722107713998	0	0.34	1.33	1	210.177173791002	211.135456447002	"9"	40114.380338346	40109.655933436	1.5	0.1
0.01	1	0.285414191996097	1	110	NA	213.722107713998	0	0.34	1.33	1	211.362539426002	211.647953617998	"9"	40114.380338346	40109.655933436	1.5	0.1
0.01	1	0.247136306999892	1	110	NA	213.722107713998	0	0.34	1.33	1	211.880056902999	212.127193209999	"9"	40114.380338346	40109.655933436	1.5	0.1
0.01	1	0.291601191005611	1	110	NA	213.722107713998	0	0.34	1.33	1	212.364266236997	212.655867428002	"9"	40114.380338346	40109.655933436	1.5	0.1
0.01	1	0.285755931996391	1	110	NA	213.722107713998	0	0.34	1.33	1	212.881796841	213.167552772997	"9"	40114.380338346	40109.655933436	1.5	0.1
0.01	1	0.321337676999974	2	110	NA	213.722107713998	0	0.34	1.33	1	213.399211206997	213.720548883997	"9"	40114.380338346	40109.655933436	1.5	0.1
0.01	1	0.00213465600245399	1	8	218.826622128996	NA	1	0	1.33	1	215.770014043999	215.772148700002	"10"	40114.380338346	40109.655933436	1.5	0.1
0.01	1	0.284817149993614	1	8	218.826622128996	NA	1	0	1.33	1	216.003803637002	216.288620786996	"10"	40114.380338346	40109.655933436	1.5	0.1
0.01	1	0.173600686001009	1	8	218.826622128996	NA	1	0	1.33	1	216.521131766996	216.694732452997	"10"	40114.380338346	40109.655933436	1.5	0.1
0.01	1	0.190415527998994	1	8	218.826622128996	NA	1	0	1.33	1	216.921812795998	217.112228323997	"10"	40114.380338346	40109.655933436	1.5	0.1
0.01	1	0.173228538005787	1	8	218.826622128996	NA	1	0	1.33	1	217.339223908995	217.512452447001	"10"	40114.380338346	40109.655933436	1.5	0.1
0.01	1	0.180573564997758	1	8	218.826622128996	NA	1	0	1.33	1	217.739958359998	217.920531924996	"10"	40114.380338346	40109.655933436	1.5	0.1
0.01	1	0.15362166200066	1	8	218.826622128996	NA	1	0	1.33	1	218.157294154997	218.310915816997	"10"	40114.380338346	40109.655933436	1.5	0.1
0.01	1	0.177712923999934	1	8	218.826622128996	NA	1	0	1.33	1	218.541318413001	218.719031337001	"10"	40114.380338346	40109.655933436	1.5	0.1
0.01	1	0.450451611002791	1	52	NA	241.298092083998	0	0.43	1.76	1	220.878457966995	221.328909577998	"11"	40114.380338346	40109.655933436	1.5	0.1
0.01	1	0.22829497299972	1	52	NA	241.298092083998	0	0.43	1.76	1	221.563035139996	221.791330112996	"11"	40114.380338346	40109.655933436	1.5	0.1
0.01	1	0.163031550997403	1	52	NA	241.298092083998	0	0.43	1.76	1	222.013746687	222.176778237997	"11"	40114.380338346	40109.655933436	1.5	0.1
0.01	1	0.170484010996006	1	52	NA	241.298092083998	0	0.43	1.76	1	222.414478065002	222.584962075998	"11"	40114.380338346	40109.655933436	1.5	0.1
0.01	1	0.153980784998566	1	52	NA	241.298092083998	0	0.43	1.76	1	222.815070179	222.969050963999	"11"	40114.380338346	40109.655933436	1.5	0.1
0.01	1	0.151821083003597	1	52	NA	241.298092083998	0	0.43	1.76	1	223.199153955997	223.350975039	"11"	40114.380338346	40109.655933436	1.5	0.1
0.01	1	0.183690900004876	1	52	NA	241.298092083998	0	0.43	1.76	1	223.583114424997	223.766805325002	"11"	40114.380338346	40109.655933436	1.5	0.1
0.01	1	0.151228075003019	1	52	NA	241.298092083998	0	0.43	1.76	1	224.000452283995	224.151680358998	"11"	40114.380338346	40109.655933436	1.5	0.1
0.01	1	0.190911802004848	1	52	NA	241.298092083998	0	0.43	1.76	1	224.384362585995	224.575274388	"11"	40114.380338346	40109.655933436	1.5	0.1
0.01	1	0.166606143000536	1	52	NA	241.298092083998	0	0.43	1.76	1	224.801779745998	224.968385888998	"11"	40114.380338346	40109.655933436	1.5	0.1
0.01	1	0.230308737001906	1	52	NA	241.298092083998	0	0.43	1.76	1	225.202389419996	225.432698156998	"11"	40114.380338346	40109.655933436	1.5	0.1
0.01	1	0.209276264999062	1	52	NA	241.298092083998	0	0.43	1.76	1	225.669847894998	225.879124159997	"11"	40114.380338346	40109.655933436	1.5	0.1
0.01	1	0.208477758998924	1	52	NA	241.298092083998	0	0.43	1.76	1	226.104015220997	226.312492979996	"11"	40114.380338346	40109.655933436	1.5	0.1
0.01	1	0.229361364996294	1	52	NA	241.298092083998	0	0.43	1.76	1	226.538069602	226.767430966996	"11"	40114.380338346	40109.655933436	1.5	0.1
0.01	1	0.210042353006429	1	52	NA	241.298092083998	0	0.43	1.76	1	227.005548356996	227.215590710002	"11"	40114.380338346	40109.655933436	1.5	0.1
0.01	1	0.264487239997834	1	52	NA	241.298092083998	0	0.43	1.76	1	227.439505736998	227.703992976996	"11"	40114.380338346	40109.655933436	1.5	0.1
0.01	1	0.242499370993755	1	52	NA	241.298092083998	0	0.43	1.76	1	227.940405788002	228.182905158996	"11"	40114.380338346	40109.655933436	1.5	0.1
0.01	1	0.23148043800029	1	52	NA	241.298092083998	0	0.43	1.76	1	228.407812988997	228.639293426997	"11"	40114.380338346	40109.655933436	1.5	0.1
0.01	1	0.204012097994564	1	52	NA	241.298092083998	0	0.43	1.76	1	228.875332882002	229.079344979997	"11"	40114.380338346	40109.655933436	1.5	0.1
0.01	1	0.211214112001471	1	52	NA	241.298092083998	0	0.43	1.76	1	229.309397947	229.520612059001	"11"	40114.380338346	40109.655933436	1.5	0.1
0.01	1	0.264424539993342	1	52	NA	241.298092083998	0	0.43	1.76	1	229.743511446002	230.007935985996	"11"	40114.380338346	40109.655933436	1.5	0.1
0.01	1	0.220878683001501	1	52	NA	241.298092083998	0	0.43	1.76	1	230.244271627998	230.465150311	"11"	40114.380338346	40109.655933436	1.5	0.1
0.01	1	0.233121663994098	1	52	NA	241.298092083998	0	0.43	1.76	1	230.695037147001	230.928158810995	"11"	40114.380338346	40109.655933436	1.5	0.1
0.01	1	0.292531528997642	1	52	NA	241.298092083998	0	0.43	1.76	1	231.162473441	231.455004969997	"11"	40114.380338346	40109.655933436	1.5	0.1
0.01	1	0.222811953004566	1	52	NA	241.298092083998	0	0.43	1.76	1	231.680002351997	231.902814305002	"11"	40114.380338346	40109.655933436	1.5	0.1
0.01	1	0.221799819999433	1	52	NA	241.298092083998	0	0.43	1.76	1	232.130855080002	232.352654900002	"11"	40114.380338346	40109.655933436	1.5	0.1
0.01	1	0.257584833998408	1	52	NA	241.298092083998	0	0.43	1.76	1	232.581636130002	232.839220964001	"11"	40114.380338346	40109.655933436	1.5	0.1
0.01	1	0.248533015997964	1	52	NA	241.298092083998	0	0.43	1.76	1	233.065754447001	233.314287462999	"11"	40114.380338346	40109.655933436	1.5	0.1
0.01	1	0.241736454998318	1	52	NA	241.298092083998	0	0.43	1.76	1	233.549779499001	233.791515953999	"11"	40114.380338346	40109.655933436	1.5	0.1
0.01	1	0.269600126004661	1	52	NA	241.298092083998	0	0.43	1.76	1	234.017244229995	234.286844356	"11"	40114.380338346	40109.655933436	1.5	0.1
0.01	1	0.21826861199952	1	52	NA	241.298092083998	0	0.43	1.76	1	234.51806491	234.736333522	"11"	40114.380338346	40109.655933436	1.5	0.1
0.01	1	0.191167476994451	1	52	NA	241.298092083998	0	0.43	1.76	1	234.968888160001	235.160055636996	"11"	40114.380338346	40109.655933436	1.5	0.1
0.01	1	0.229282790998695	1	52	NA	241.298092083998	0	0.43	1.76	1	235.386249588999	235.615532379998	"11"	40114.380338346	40109.655933436	1.5	0.1
0.01	1	0.226654020996648	1	52	NA	241.298092083998	0	0.43	1.76	1	235.853834556001	236.080488576998	"11"	40114.380338346	40109.655933436	1.5	0.1
0.01	1	0.23155394600326	1	52	NA	241.298092083998	0	0.43	1.76	1	236.304432388999	236.535986335002	"11"	40114.380338346	40109.655933436	1.5	0.1
0.01	1	0.292102538005565	1	52	NA	241.298092083998	0	0.43	1.76	1	236.771868309996	237.063970848001	"11"	40114.380338346	40109.655933436	1.5	0.1
0.01	1	0.246800024004187	1	52	NA	241.298092083998	0	0.43	1.76	1	237.289426671996	237.536226696	"11"	40114.380338346	40109.655933436	1.5	0.1
0.01	1	0.226328666001791	1	52	NA	241.298092083998	0	0.43	1.76	1	237.773534178996	237.999862844998	"11"	40114.380338346	40109.655933436	1.5	0.1
0.01	1	0.375837841995235	1	52	NA	241.298092083998	0	0.43	1.76	1	238.224281618001	238.600119459996	"11"	40114.380338346	40109.655933436	1.5	0.1
0.01	1	0.262150802998804	1	52	NA	241.298092083998	0	0.43	1.76	1	238.825436587002	239.08758739	"11"	40114.380338346	40109.655933436	1.5	0.1
0.01	1	0.28140617099416	1	52	NA	241.298092083998	0	0.43	1.76	1	239.309473394002	239.590879564996	"11"	40114.380338346	40109.655933436	1.5	0.1
0.01	1	0.316321702994173	1	52	NA	241.298092083998	0	0.43	1.76	1	239.827081472002	240.143403174996	"11"	40114.380338346	40109.655933436	1.5	0.1
0.01	1	0.293958467998891	1	52	NA	241.298092083998	0	0.43	1.76	1	240.378042470998	240.672000938997	"11"	40114.380338346	40109.655933436	1.5	0.1
0.01	1	0.384327155996289	2	52	NA	241.298092083998	0	0.43	1.76	1	240.912218598001	241.296545753998	"11"	40114.380338346	40109.655933436	1.5	0.1
0.01	1	0.498712385000545	1	80	NA	273.577432608996	0	0.55	2.31	1	243.332899991998	243.831612376998	"12"	40114.380338346	40109.655933436	1.5	0.1
0.01	1	0.300946477997059	1	80	NA	273.577432608996	0	0.55	2.31	1	244.067525999999	244.368472477996	"12"	40114.380338346	40109.655933436	1.5	0.1
0.01	1	0.117080496005656	1	80	NA	273.577432608996	0	0.55	2.31	1	244.601715170997	244.718795667002	"12"	40114.380338346	40109.655933436	1.5	0.1
0.01	1	0.231855467995047	1	80	NA	273.577432608996	0	0.55	2.31	1	244.952285594001	245.184141061996	"12"	40114.380338346	40109.655933436	1.5	0.1
0.01	1	0.203986859996803	1	80	NA	273.577432608996	0	0.55	2.31	1	245.419749494002	245.623736353999	"12"	40114.380338346	40109.655933436	1.5	0.1
0.01	1	0.282504750000953	1	80	NA	273.577432608996	0	0.55	2.31	1	245.853869309001	246.136374059002	"12"	40114.380338346	40109.655933436	1.5	0.1
0.01	1	0.236846474996128	1	80	NA	273.577432608996	0	0.55	2.31	1	246.371456879002	246.608303353998	"12"	40114.380338346	40109.655933436	1.5	0.1
0.01	1	0.248578678998456	1	80	NA	273.577432608996	0	0.55	2.31	1	246.838835868999	247.087414547997	"12"	40114.380338346	40109.655933436	1.5	0.1
0.01	1	0.236883887999284	1	80	NA	273.577432608996	0	0.55	2.31	1	247.322996431998	247.559880319997	"12"	40114.380338346	40109.655933436	1.5	0.1
0.01	1	0.257020203003776	1	80	NA	273.577432608996	0	0.55	2.31	1	247.790376550998	248.047396754002	"12"	40114.380338346	40109.655933436	1.5	0.1
0.01	1	0.30883779800206	1	80	NA	273.577432608996	0	0.55	2.31	1	248.274619739997	248.583457537999	"12"	40114.380338346	40109.655933436	1.5	0.1
0.01	1	0.295171001002018	1	80	NA	273.577432608996	0	0.55	2.31	1	248.808830429996	249.104001430998	"12"	40114.380338346	40109.655933436	1.5	0.1
0.01	1	0.274105235999741	1	80	NA	273.577432608996	0	0.55	2.31	1	249.326264541996	249.600369777996	"12"	40114.380338346	40109.655933436	1.5	0.1
0.01	1	0.255556985001022	1	80	NA	273.577432608996	0	0.55	2.31	1	249.827204476998	250.082761461999	"12"	40114.380338346	40109.655933436	1.5	0.1
0.01	1	0.296358109997527	1	80	NA	273.577432608996	0	0.55	2.31	1	250.311232597	250.607590706997	"12"	40114.380338346	40109.655933436	1.5	0.1
0.01	1	0.306647507997695	1	80	NA	273.577432608996	0	0.55	2.31	1	250.845531783998	251.152179291996	"12"	40114.380338346	40109.655933436	1.5	0.1
0.01	1	0.275543389994709	1	80	NA	273.577432608996	0	0.55	2.31	1	251.379843996001	251.655387385996	"12"	40114.380338346	40109.655933436	1.5	0.1
0.01	1	0.319065594005224	1	80	NA	273.577432608996	0	0.55	2.31	1	251.880646931997	252.199712526002	"12"	40114.380338346	40109.655933436	1.5	0.1
0.01	1	0.240888849999465	1	80	NA	273.577432608996	0	0.55	2.31	1	252.431673826999	252.672562676998	"12"	40114.380338346	40109.655933436	1.5	0.1
0.01	1	0.299672394998197	1	80	NA	273.577432608996	0	0.55	2.31	1	252.899110327002	253.198782722	"12"	40114.380338346	40109.655933436	1.5	0.1
0.01	1	0.390297065001505	1	80	NA	273.577432608996	0	0.55	2.31	1	253.433170741999	253.823467807	"12"	40114.380338346	40109.655933436	1.5	0.1
0.01	1	0.285158970000339	1	80	NA	273.577432608996	0	0.55	2.31	1	254.051101489	254.336260459	"12"	40114.380338346	40109.655933436	1.5	0.1
0.01	1	0.295767830000841	1	80	NA	273.577432608996	0	0.55	2.31	1	254.568579516999	254.864347347	"12"	40114.380338346	40109.655933436	1.5	0.1
0.01	1	0.298588395999104	1	80	NA	273.577432608996	0	0.55	2.31	1	255.086005188998	255.384593584997	"12"	40114.380338346	40109.655933436	1.5	0.1
0.01	1	0.251927962999616	1	80	NA	273.577432608996	0	0.55	2.31	1	255.620308764002	255.872236727002	"12"	40114.380338346	40109.655933436	1.5	0.1
0.01	1	0.279196631003288	1	80	NA	273.577432608996	0	0.55	2.31	1	256.104440948999	256.383637580002	"12"	40114.380338346	40109.655933436	1.5	0.1
0.01	1	0.346582927995769	1	80	NA	273.577432608996	0	0.55	2.31	1	256.605338834001	256.951921761996	"12"	40114.380338346	40109.655933436	1.5	0.1
0.01	1	0.289648086996749	1	80	NA	273.577432608996	0	0.55	2.31	1	257.189633244001	257.479281330998	"12"	40114.380338346	40109.655933436	1.5	0.1
0.01	1	0.317559561000962	1	80	NA	273.577432608996	0	0.55	2.31	1	257.707174026997	258.024733587998	"12"	40114.380338346	40109.655933436	1.5	0.1
0.01	1	0.308931890001986	1	80	NA	273.577432608996	0	0.55	2.31	1	258.258074223995	258.567006113997	"12"	40114.380338346	40109.655933436	1.5	0.1
0.01	1	0.278988942998694	1	80	NA	273.577432608996	0	0.55	2.31	1	258.792312676997	259.071301619995	"12"	40114.380338346	40109.655933436	1.5	0.1
0.01	1	0.274275736002892	1	80	NA	273.577432608996	0	0.55	2.31	1	259.309846493998	259.584122230001	"12"	40114.380338346	40109.655933436	1.5	0.1
0.01	1	0.284286215006432	1	80	NA	273.577432608996	0	0.55	2.31	1	259.810901061996	260.095187277002	"12"	40114.380338346	40109.655933436	1.5	0.1
0.01	1	0.286873454002489	1	80	NA	273.577432608996	0	0.55	2.31	1	260.328272931998	260.615146386001	"12"	40114.380338346	40109.655933436	1.5	0.1
0.01	1	0.322259379994648	1	80	NA	273.577432608996	0	0.55	2.31	1	260.845746799001	261.168006178996	"12"	40114.380338346	40109.655933436	1.5	0.1
0.01	1	0.331340552002075	1	80	NA	273.577432608996	0	0.55	2.31	1	261.396755976995	261.728096528997	"12"	40114.380338346	40109.655933436	1.5	0.1
0.01	1	0.290782813994156	1	80	NA	273.577432608996	0	0.55	2.31	1	261.964289677002	262.255072490996	"12"	40114.380338346	40109.655933436	1.5	0.1
0.01	1	0.300936683997861	1	80	NA	273.577432608996	0	0.55	2.31	1	262.481889178998	262.782825862996	"12"	40114.380338346	40109.655933436	1.5	0.1
0.01	1	0.286564037996868	1	80	NA	273.577432608996	0	0.55	2.31	1	263.016155092002	263.302719129999	"12"	40114.380338346	40109.655933436	1.5	0.1
0.01	1	0.314493448997382	1	80	NA	273.577432608996	0	0.55	2.31	1	263.533657906999	263.848151355996	"12"	40114.380338346	40109.655933436	1.5	0.1
0.01	1	0.38662303199817	1	80	NA	273.577432608996	0	0.55	2.31	1	264.084478017001	264.471101048999	"12"	40114.380338346	40109.655933436	1.5	0.1
0.01	1	0.281055429004482	1	80	NA	273.577432608996	0	0.55	2.31	1	264.702202861998	264.983258291002	"12"	40114.380338346	40109.655933436	1.5	0.1
0.01	1	0.244043004000559	1	80	NA	273.577432608996	0	0.55	2.31	1	265.219867729	265.463910733	"12"	40114.380338346	40109.655933436	1.5	0.1
0.01	1	0.320738020003773	1	80	NA	273.577432608996	0	0.55	2.31	1	265.687306121996	266.008044142	"12"	40114.380338346	40109.655933436	1.5	0.1
0.01	1	0.290155276998121	1	80	NA	273.577432608996	0	0.55	2.31	1	266.238117328998	266.528272605996	"12"	40114.380338346	40109.655933436	1.5	0.1
0.01	1	0.28461390099983	1	80	NA	273.577432608996	0	0.55	2.31	1	266.755718298999	267.040332199998	"12"	40114.380338346	40109.655933436	1.5	0.1
0.01	1	0.253605705001974	1	80	NA	273.577432608996	0	0.55	2.31	1	267.273290316996	267.526896021998	"12"	40114.380338346	40109.655933436	1.5	0.1
0.01	1	0.265972225999576	1	80	NA	273.577432608996	0	0.55	2.31	1	267.757425616997	268.023397842997	"12"	40114.380338346	40109.655933436	1.5	0.1
0.01	1	0.318357819000084	1	80	NA	273.577432608996	0	0.55	2.31	1	268.258239308998	268.576597127998	"12"	40114.380338346	40109.655933436	1.5	0.1
0.01	1	1.76775251900108	1	80	NA	273.577432608996	0	0.55	2.31	1	268.809184646998	270.576937165999	"12"	40114.380338346	40109.655933436	1.5	0.1
0.01	1	0.242654028996185	1	80	NA	273.577432608996	0	0.55	2.31	1	270.812541642001	271.055195670997	"12"	40114.380338346	40109.655933436	1.5	0.1
0.01	1	0.246341583995672	1	80	NA	273.577432608996	0	0.55	2.31	1	271.296722667001	271.543064250996	"12"	40114.380338346	40109.655933436	1.5	0.1
0.01	1	0.187298404001922	1	80	NA	273.577432608996	0	0.55	2.31	1	271.780907041	271.968205445002	"12"	40114.380338346	40109.655933436	1.5	0.1
0.01	1	0.265542662004009	1	80	NA	273.577432608996	0	0.55	2.31	1	272.198100891997	272.463643554001	"12"	40114.380338346	40109.655933436	1.5	0.1
0.01	1	0.300632589998713	1	80	NA	273.577432608996	0	0.55	2.31	1	272.699026388997	272.999658978995	"12"	40114.380338346	40109.655933436	1.5	0.1
0.01	1	0.342549710003368	2	80	NA	273.577432608996	0	0.55	2.31	1	273.233341521998	273.575891232002	"12"	40114.380338346	40109.655933436	1.5	0.1
0.01	1	0.291917119000573	1	100	NA	312.833982766999	0	0.75	3.06	1	275.620586728997	275.912503847998	"13"	40114.380338346	40109.655933436	1.5	0.1
0.01	1	0.213807353997254	1	100	NA	312.833982766999	0	0.75	3.06	1	276.138149797	276.351957150997	"13"	40114.380338346	40109.655933436	1.5	0.1
0.01	1	0.211031741993793	1	100	NA	312.833982766999	0	0.75	3.06	1	276.588966809002	276.799998550996	"13"	40114.380338346	40109.655933436	1.5	0.1
0.01	1	0.18475961600052	1	100	NA	312.833982766999	0	0.75	3.06	1	277.022861863996	277.207621479996	"13"	40114.380338346	40109.655933436	1.5	0.1
0.01	1	0.280222606997995	1	100	NA	312.833982766999	0	0.75	3.06	1	277.440356122002	277.720578729	"13"	40114.380338346	40109.655933436	1.5	0.1
0.01	1	0.232734630000778	1	100	NA	312.833982766999	0	0.75	3.06	1	277.957957931998	278.190692561999	"13"	40114.380338346	40109.655933436	1.5	0.1
0.01	1	0.207083105000493	1	100	NA	312.833982766999	0	0.75	3.06	1	278.425291927	278.632375032001	"13"	40114.380338346	40109.655933436	1.5	0.1
0.01	1	0.228124232999107	1	100	NA	312.833982766999	0	0.75	3.06	1	278.859356187	279.087480419999	"13"	40114.380338346	40109.655933436	1.5	0.1
0.01	1	0.242404115000681	1	100	NA	312.833982766999	0	0.75	3.06	1	279.310063478995	279.552467593996	"13"	40114.380338346	40109.655933436	1.5	0.1
0.01	1	0.222651538002538	1	100	NA	312.833982766999	0	0.75	3.06	1	279.777626816998	280.000278355001	"13"	40114.380338346	40109.655933436	1.5	0.1
0.01	1	0.251880214003904	1	100	NA	312.833982766999	0	0.75	3.06	1	280.228444656997	280.480324871001	"13"	40114.380338346	40109.655933436	1.5	0.1
0.01	1	0.223005107996869	1	100	NA	312.833982766999	0	0.75	3.06	1	280.712406972001	280.935412079998	"13"	40114.380338346	40109.655933436	1.5	0.1
0.01	1	0.244024282001192	1	100	NA	312.833982766999	0	0.75	3.06	1	281.163224174001	281.407248456002	"13"	40114.380338346	40109.655933436	1.5	0.1
0.01	1	0.257892433000961	1	100	NA	312.833982766999	0	0.75	3.06	1	281.630685607	281.888578040001	"13"	40114.380338346	40109.655933436	1.5	0.1
0.01	1	0.237755453999853	1	100	NA	312.833982766999	0	0.75	3.06	1	282.114938606996	282.352694060995	"13"	40114.380338346	40109.655933436	1.5	0.1
0.01	1	0.289590583997779	1	100	NA	312.833982766999	0	0.75	3.06	1	282.582244163998	282.871834747995	"13"	40114.380338346	40109.655933436	1.5	0.1
0.01	1	0.275542338000378	1	100	NA	312.833982766999	0	0.75	3.06	1	283.099864796997	283.375407134998	"13"	40114.380338346	40109.655933436	1.5	0.1
0.01	1	0.263790885001072	1	100	NA	312.833982766999	0	0.75	3.06	1	283.600641541998	283.864432426999	"13"	40114.380338346	40109.655933436	1.5	0.1
0.01	1	0.233896202000324	1	100	NA	312.833982766999	0	0.75	3.06	1	284.101589828999	284.335486030999	"13"	40114.380338346	40109.655933436	1.5	0.1
0.01	1	0.239072573000158	1	100	NA	312.833982766999	0	0.75	3.06	1	284.568994387002	284.808066960002	"13"	40114.380338346	40109.655933436	1.5	0.1
0.01	1	0.251209740999911	1	100	NA	312.833982766999	0	0.75	3.06	1	285.036474111999	285.287683852999	"13"	40114.380338346	40109.655933436	1.5	0.1
0.01	1	0.223508102004416	1	100	NA	312.833982766999	0	0.75	3.06	1	285.520561166995	285.744069269	"13"	40114.380338346	40109.655933436	1.5	0.1
0.01	1	0.196110608005256	1	100	NA	312.833982766999	0	0.75	3.06	1	285.971348838997	286.167459447002	"13"	40114.380338346	40109.655933436	1.5	0.1
0.01	1	0.226010571997904	1	100	NA	312.833982766999	0	0.75	3.06	1	286.405378176998	286.631388748996	"13"	40114.380338346	40109.655933436	1.5	0.1
0.01	1	0.288590361000388	1	100	NA	312.833982766999	0	0.75	3.06	1	286.856222476999	287.144812838	"13"	40114.380338346	40109.655933436	1.5	0.1
0.01	1	0.217134899001394	1	100	NA	312.833982766999	0	0.75	3.06	1	287.373758971997	287.590893870998	"13"	40114.380338346	40109.655933436	1.5	0.1
0.01	1	0.238337086004321	1	100	NA	312.833982766999	0	0.75	3.06	1	287.824428991997	288.062766078001	"13"	40114.380338346	40109.655933436	1.5	0.1
0.01	1	0.244331070003682	1	100	NA	312.833982766999	0	0.75	3.06	1	288.291895115995	288.536226185999	"13"	40114.380338346	40109.655933436	1.5	0.1
0.01	1	0.265249774995027	1	100	NA	312.833982766999	0	0.75	3.06	1	288.759281564002	289.024531338997	"13"	40114.380338346	40109.655933436	1.5	0.1
0.01	1	0.250478885005577	1	100	NA	312.833982766999	0	0.75	3.06	1	289.260163861996	289.510642747002	"13"	40114.380338346	40109.655933436	1.5	0.1
0.01	1	0.279593283004942	1	100	NA	312.833982766999	0	0.75	3.06	1	289.744231701996	290.023824985001	"13"	40114.380338346	40109.655933436	1.5	0.1
0.01	1	0.24285897899972	1	100	NA	312.833982766999	0	0.75	3.06	1	290.261903906998	290.504762885997	"13"	40114.380338346	40109.655933436	1.5	0.1
0.01	1	0.165551008001785	1	100	NA	312.833982766999	0	0.75	3.06	1	290.746053837996	290.911604845998	"13"	40114.380338346	40109.655933436	1.5	0.1
0.01	1	0.317383014997176	1	100	NA	312.833982766999	0	0.75	3.06	1	291.146625551999	291.464008566996	"13"	40114.380338346	40109.655933436	1.5	0.1
0.01	1	0.173195971001405	1	100	NA	312.833982766999	0	0.75	3.06	1	291.697583043999	291.870779015	"13"	40114.380338346	40109.655933436	1.5	0.1
0.01	1	0.294043548994523	1	100	NA	312.833982766999	0	0.75	3.06	1	292.098368327002	292.392411875997	"13"	40114.380338346	40109.655933436	1.5	0.1
0.01	1	0.256517679001263	1	100	NA	312.833982766999	0	0.75	3.06	1	292.615855096999	292.872372776001	"13"	40114.380338346	40109.655933436	1.5	0.1
0.01	1	0.227537190003204	1	100	NA	312.833982766999	0	0.75	3.06	1	293.099907871998	293.327445062001	"13"	40114.380338346	40109.655933436	1.5	0.1
0.01	1	0.321565049998753	1	100	NA	312.833982766999	0	0.75	3.06	1	293.550724877001	293.872289927	"13"	40114.380338346	40109.655933436	1.5	0.1
0.01	1	0.249814481998328	1	100	NA	312.833982766999	0	0.75	3.06	1	294.101624782001	294.351439263999	"13"	40114.380338346	40109.655933436	1.5	0.1
0.01	1	0.253039491006348	1	100	NA	312.833982766999	0	0.75	3.06	1	294.585817041996	294.838856533002	"13"	40114.380338346	40109.655933436	1.5	0.1
0.01	1	0.256912108001416	1	100	NA	312.833982766999	0	0.75	3.06	1	295.070028757	295.326940865001	"13"	40114.380338346	40109.655933436	1.5	0.1
0.01	1	0.284553148994746	1	100	NA	312.833982766999	0	0.75	3.06	1	295.554142902001	295.838696050996	"13"	40114.380338346	40109.655933436	1.5	0.1
0.01	1	0.279149463000067	1	100	NA	312.833982766999	0	0.75	3.06	1	296.071606352001	296.350755815001	"13"	40114.380338346	40109.655933436	1.5	0.1
0.01	1	0.234063066993258	1	100	NA	312.833982766999	0	0.75	3.06	1	296.589211147002	296.823274213995	"13"	40114.380338346	40109.655933436	1.5	0.1
0.01	1	0.206581056998402	1	100	NA	312.833982766999	0	0.75	3.06	1	297.056665299002	297.263246356	"13"	40114.380338346	40109.655933436	1.5	0.1
0.01	1	0.277928744995734	1	100	NA	312.833982766999	0	0.75	3.06	1	297.490604557002	297.768533301998	"13"	40114.380338346	40109.655933436	1.5	0.1
0.01	1	0.264064082002733	1	100	NA	312.833982766999	0	0.75	3.06	1	297.991551781997	298.255615864	"13"	40114.380338346	40109.655933436	1.5	0.1
0.01	1	0.244345883002097	1	100	NA	312.833982766999	0	0.75	3.06	1	298.492507837	298.736853720002	"13"	40114.380338346	40109.655933436	1.5	0.1
0.01	1	0.239586732001044	1	100	NA	312.833982766999	0	0.75	3.06	1	298.959821963996	299.199408695997	"13"	40114.380338346	40109.655933436	1.5	0.1
0.01	1	0.356862941000145	1	100	NA	312.833982766999	0	0.75	3.06	1	299.427286106999	299.784149047999	"13"	40114.380338346	40109.655933436	1.5	0.1
0.01	1	0.204912471999705	1	100	NA	312.833982766999	0	0.75	3.06	1	300.011549283998	300.216461755997	"13"	40114.380338346	40109.655933436	1.5	0.1
0.01	1	0.289768308997736	1	100	NA	312.833982766999	0	0.75	3.06	1	300.445711831002	300.73548014	"13"	40114.380338346	40109.655933436	1.5	0.1
0.01	1	0.259719456997118	1	100	NA	312.833982766999	0	0.75	3.06	1	300.963206777	301.222926233997	"13"	40114.380338346	40109.655933436	1.5	0.1
0.01	1	0.255020122996939	1	100	NA	312.833982766999	0	0.75	3.06	1	301.464007217	301.719027339997	"13"	40114.380338346	40109.655933436	1.5	0.1
0.01	1	0.34830198000418	1	100	NA	312.833982766999	0	0.75	3.06	1	301.948153576996	302.296455557	"13"	40114.380338346	40109.655933436	1.5	0.1
0.01	1	0.236204555003496	1	100	NA	312.833982766999	0	0.75	3.06	1	302.532430198997	302.768634754	"13"	40114.380338346	40109.655933436	1.5	0.1
0.01	1	0.247885759003111	1	100	NA	312.833982766999	0	0.75	3.06	1	303.000042157997	303.247927917	"13"	40114.380338346	40109.655933436	1.5	0.1
0.01	1	0.242579623998608	1	100	NA	312.833982766999	0	0.75	3.06	1	303.484093726998	303.726673350997	"13"	40114.380338346	40109.655933436	1.5	0.1
0.01	1	0.248456349996559	1	100	NA	312.833982766999	0	0.75	3.06	1	303.951480429001	304.199936778998	"13"	40114.380338346	40109.655933436	1.5	0.1
0.01	1	0.388482770998962	1	100	NA	312.833982766999	0	0.75	3.06	1	304.435737947002	304.824220718001	"13"	40114.380338346	40109.655933436	1.5	0.1
0.01	1	0.265323466002883	1	100	NA	312.833982766999	0	0.75	3.06	1	305.053419643998	305.318743110001	"13"	40114.380338346	40109.655933436	1.5	0.1
0.01	1	0.181249939996633	1	100	NA	312.833982766999	0	0.75	3.06	1	305.554245077001	305.735495016997	"13"	40114.380338346	40109.655933436	1.5	0.1
0.01	1	0.292423120001331	1	100	NA	312.833982766999	0	0.75	3.06	1	305.971634761998	306.264057881999	"13"	40114.380338346	40109.655933436	1.5	0.1
0.01	1	0.349584490002599	1	100	NA	312.833982766999	0	0.75	3.06	1	306.489192686997	306.838777176999	"13"	40114.380338346	40109.655933436	1.5	0.1
0.01	1	0.310526371999003	1	100	NA	312.833982766999	0	0.75	3.06	1	307.073548601998	307.384074973997	"13"	40114.380338346	40109.655933436	1.5	0.1
0.01	1	0.431598889997986	1	100	NA	312.833982766999	0	0.75	3.06	1	307.624360476999	308.055959366997	"13"	40114.380338346	40109.655933436	1.5	0.1
0.01	1	0.324417315001483	1	100	NA	312.833982766999	0	0.75	3.06	1	308.292150292	308.616567607001	"13"	40114.380338346	40109.655933436	1.5	0.1
0.01	1	0.260953104996588	1	100	NA	312.833982766999	0	0.75	3.06	1	308.843116242002	309.104069346999	"13"	40114.380338346	40109.655933436	1.5	0.1
0.01	1	0.26479739399656	1	100	NA	312.833982766999	0	0.75	3.06	1	309.327287059001	309.592084452997	"13"	40114.380338346	40109.655933436	1.5	0.1
0.01	1	0.444592947002093	1	100	NA	312.833982766999	0	0.75	3.06	1	309.828040932	310.272633879002	"13"	40114.380338346	40109.655933436	1.5	0.1
0.01	1	0.310267045999353	1	100	NA	312.833982766999	0	0.75	3.06	1	310.512588386999	310.822855432998	"13"	40114.380338346	40109.655933436	1.5	0.1
0.01	1	0.18501466899761	1	100	NA	312.833982766999	0	0.75	3.06	1	311.046730242	311.231744910998	"13"	40114.380338346	40109.655933436	1.5	0.1
0.01	1	0.263903213002777	1	100	NA	312.833982766999	0	0.75	3.06	1	311.464083583996	311.727986796999	"13"	40114.380338346	40109.655933436	1.5	0.1
0.01	1	0.378832440001133	1	100	NA	312.833982766999	0	0.75	3.06	1	311.965100836998	312.343933276999	"13"	40114.380338346	40109.655933436	1.5	0.1
0.01	1	0.266343818999303	2	100	NA	312.833982766999	0	0.75	3.06	1	312.566059502002	312.832403321001	"13"	40114.380338346	40109.655933436	1.5	0.1
0.01	1	0.417570479999995	1	24	325.574995839001	NA	1	0	3.06	1	314.886608752	315.304179232	"14"	40114.380338346	40109.655933436	1.5	0.1
0.01	1	0.237596063998353	1	24	325.574995839001	NA	1	0	3.06	1	315.537719086999	315.775315150997	"14"	40114.380338346	40109.655933436	1.5	0.1
0.01	1	0.155040395999094	1	24	325.574995839001	NA	1	0	3.06	1	316.005184852002	316.160225248001	"14"	40114.380338346	40109.655933436	1.5	0.1
0.01	1	0.178477100002056	1	24	325.574995839001	NA	1	0	3.06	1	316.389083306996	316.567560406998	"14"	40114.380338346	40109.655933436	1.5	0.1
0.01	1	0.170107133999409	1	24	325.574995839001	NA	1	0	3.06	1	316.789810807997	316.959917941997	"14"	40114.380338346	40109.655933436	1.5	0.1
0.01	1	0.137349077995168	1	24	325.574995839001	NA	1	0	3.06	1	317.190387659	317.327736736996	"14"	40114.380338346	40109.655933436	1.5	0.1
0.01	1	0.162848478998058	1	24	325.574995839001	NA	1	0	3.06	1	317.557845276999	317.720693755997	"14"	40114.380338346	40109.655933436	1.5	0.1
0.01	1	0.112225887001841	1	24	325.574995839001	NA	1	0	3.06	1	317.958460456997	318.070686343999	"14"	40114.380338346	40109.655933436	1.5	0.1
0.01	1	0.163386756998079	1	24	325.574995839001	NA	1	0	3.06	1	318.308999902001	318.472386658999	"14"	40114.380338346	40109.655933436	1.5	0.1
0.01	1	0.195047708999482	1	24	325.574995839001	NA	1	0	3.06	1	318.709687549002	318.904735258002	"14"	40114.380338346	40109.655933436	1.5	0.1
0.01	1	0.20785469099792	1	24	325.574995839001	NA	1	0	3.06	1	319.127059737002	319.334914428	"14"	40114.380338346	40109.655933436	1.5	0.1
0.01	1	0.190028844997869	1	24	325.574995839001	NA	1	0	3.06	1	319.561091381998	319.751120226996	"14"	40114.380338346	40109.655933436	1.5	0.1
0.01	1	0.214302779000718	1	24	325.574995839001	NA	1	0	3.06	1	319.978443458996	320.192746237997	"14"	40114.380338346	40109.655933436	1.5	0.1
0.01	1	0.202826421002101	1	24	325.574995839001	NA	1	0	3.06	1	320.429216457	320.632042878002	"14"	40114.380338346	40109.655933436	1.5	0.1
0.01	1	0.199348178997752	1	24	325.574995839001	NA	1	0	3.06	1	320.863410414	321.062758592998	"14"	40114.380338346	40109.655933436	1.5	0.1
0.01	1	0.23007050799788	1	24	325.574995839001	NA	1	0	3.06	1	321.297437959001	321.527508466999	"14"	40114.380338346	40109.655933436	1.5	0.1
0.01	1	0.291516193996358	1	24	325.574995839001	NA	1	0	3.06	1	321.764813952002	322.056330145999	"14"	40114.380338346	40109.655933436	1.5	0.1
0.01	1	0.236614592002297	1	24	325.574995839001	NA	1	0	3.06	1	322.282402671997	322.519017264	"14"	40114.380338346	40109.655933436	1.5	0.1
0.01	1	0.273348687005637	1	24	325.574995839001	NA	1	0	3.06	1	322.749804016996	323.023152704001	"14"	40114.380338346	40109.655933436	1.5	0.1
0.01	1	0.262096096994355	1	24	325.574995839001	NA	1	0	3.06	1	323.250748049002	323.512844145996	"14"	40114.380338346	40109.655933436	1.5	0.1
0.01	1	0.320941505997325	1	24	325.574995839001	NA	1	0	3.06	1	323.734735400998	324.055676906995	"14"	40114.380338346	40109.655933436	1.5	0.1
0.01	1	0.242550118004146	1	24	325.574995839001	NA	1	0	3.06	1	324.285766121997	324.528316240001	"14"	40114.380338346	40109.655933436	1.5	0.1
0.01	1	0.238971355000103	1	24	325.574995839001	NA	1	0	3.06	1	324.769940206999	325.008911561999	"14"	40114.380338346	40109.655933436	1.5	0.1
0.01	1	0.218447100000049	1	24	325.574995839001	NA	1	0	3.06	1	325.237345722002	325.455792822002	"14"	40114.380338346	40109.655933436	1.5	0.1
0.01	1	0.00228577700181631	1	75	362.269445639002	NA	1	0	3.06	1	327.624637096997	327.626922873998	"15"	40114.380338346	40109.655933436	1.5	0.1
0.01	1	0.461156106000999	1	75	362.269445639002	NA	1	0	3.06	1	327.858362111998	328.319518217999	"15"	40114.380338346	40109.655933436	1.5	0.1
0.01	1	0.256236861001526	1	75	362.269445639002	NA	1	0	3.06	1	328.542866466996	328.799103327998	"15"	40114.380338346	40109.655933436	1.5	0.1
0.01	1	0.189439930996741	1	75	362.269445639002	NA	1	0	3.06	1	329.027038496999	329.216478427996	"15"	40114.380338346	40109.655933436	1.5	0.1
0.01	1	0.17905428299855	1	75	362.269445639002	NA	1	0	3.06	1	329.444447936999	329.623502219998	"15"	40114.380338346	40109.655933436	1.5	0.1
0.01	1	0.153017914002703	1	75	362.269445639002	NA	1	0	3.06	1	329.861773691999	330.014791606001	"15"	40114.380338346	40109.655933436	1.5	0.1
0.01	1	0.218379758000083	1	75	362.269445639002	NA	1	0	3.06	1	330.245768847002	330.464148605002	"15"	40114.380338346	40109.655933436	1.5	0.1
0.01	1	0.231908255002054	1	75	362.269445639002	NA	1	0	3.06	1	330.696473222	330.928381477002	"15"	40114.380338346	40109.655933436	1.5	0.1
0.01	1	0.186715557996649	1	75	362.269445639002	NA	1	0	3.06	1	331.163989287001	331.350704844997	"15"	40114.380338346	40109.655933436	1.5	0.1
0.01	1	0.209730832997593	1	75	362.269445639002	NA	1	0	3.06	1	331.581324097002	331.79105493	"15"	40114.380338346	40109.655933436	1.5	0.1
0.01	1	0.208101718999387	1	75	362.269445639002	NA	1	0	3.06	1	332.015393716996	332.223495435996	"15"	40114.380338346	40109.655933436	1.5	0.1
0.01	1	0.181858350006223	1	75	362.269445639002	NA	1	0	3.06	1	332.449383328996	332.631241679002	"15"	40114.380338346	40109.655933436	1.5	0.1
0.01	1	0.197881487998529	1	75	362.269445639002	NA	1	0	3.06	1	332.866845632001	333.06472712	"15"	40114.380338346	40109.655933436	1.5	0.1
0.01	1	0.202769632000127	1	75	362.269445639002	NA	1	0	3.06	1	333.300896291999	333.503665924	"15"	40114.380338346	40109.655933436	1.5	0.1
0.01	1	0.177294544002507	1	75	362.269445639002	NA	1	0	3.06	1	333.734842781996	333.912137325999	"15"	40114.380338346	40109.655933436	1.5	0.1
0.01	1	0.207335159997456	1	75	362.269445639002	NA	1	0	3.06	1	334.135568307	334.342903466997	"15"	40114.380338346	40109.655933436	1.5	0.1
0.01	1	0.238093539999682	1	75	362.269445639002	NA	1	0	3.06	1	334.569713557001	334.807807097	"15"	40114.380338346	40109.655933436	1.5	0.1
0.01	1	0.170307364001928	1	75	362.269445639002	NA	1	0	3.06	1	335.037140963999	335.207448328001	"15"	40114.380338346	40109.655933436	1.5	0.1
0.01	1	0.18550403900008	1	75	362.269445639002	NA	1	0	3.06	1	335.437782852001	335.623286891001	"15"	40114.380338346	40109.655933436	1.5	0.1
0.01	1	0.169522267999128	1	75	362.269445639002	NA	1	0	3.06	1	335.855167059002	336.024689327001	"15"	40114.380338346	40109.655933436	1.5	0.1
0.01	1	0.190824174998852	1	75	362.269445639002	NA	1	0	3.06	1	336.255881006997	336.446705181996	"15"	40114.380338346	40109.655933436	1.5	0.1
0.01	1	0.238875136004935	1	75	362.269445639002	NA	1	0	3.06	1	336.673234743997	336.912109880002	"15"	40114.380338346	40109.655933436	1.5	0.1
0.01	1	0.195439505005197	1	75	362.269445639002	NA	1	0	3.06	1	337.140578143997	337.336017649002	"15"	40114.380338346	40109.655933436	1.5	0.1
0.01	1	0.200135510996915	1	75	362.269445639002	NA	1	0	3.06	1	337.574726776998	337.774862287995	"15"	40114.380338346	40109.655933436	1.5	0.1
0.01	1	0.254369076996227	1	75	362.269445639002	NA	1	0	3.06	1	338.008793191002	338.263162267998	"15"	40114.380338346	40109.655933436	1.5	0.1
0.01	1	0.249788310997246	1	75	362.269445639002	NA	1	0	3.06	1	338.492998262001	338.742786572999	"15"	40114.380338346	40109.655933436	1.5	0.1
0.01	1	0.229985117999604	1	75	362.269445639002	NA	1	0	3.06	1	338.977086389001	339.207071507	"15"	40114.380338346	40109.655933436	1.5	0.1
0.01	1	0.2427496349992	1	75	362.269445639002	NA	1	0	3.06	1	339.444563867	339.687313502	"15"	40114.380338346	40109.655933436	1.5	0.1
0.01	1	0.239495877998706	1	75	362.269445639002	NA	1	0	3.06	1	339.911940163998	340.151436041997	"15"	40114.380338346	40109.655933436	1.5	0.1
0.01	1	0.228377790997911	1	75	362.269445639002	NA	1	0	3.06	1	340.379521702002	340.607899492999	"15"	40114.380338346	40109.655933436	1.5	0.1
0.01	1	0.23314606200438	1	75	362.269445639002	NA	1	0	3.06	1	340.830146886998	341.063292949002	"15"	40114.380338346	40109.655933436	1.5	0.1
0.01	1	0.229411186999641	1	75	362.269445639002	NA	1	0	3.06	1	341.297708817001	341.527120004001	"15"	40114.380338346	40109.655933436	1.5	0.1
0.01	1	0.171363745997951	1	75	362.269445639002	NA	1	0	3.06	1	341.765065298998	341.936429044996	"15"	40114.380338346	40109.655933436	1.5	0.1
0.01	1	0.226147893001325	1	75	362.269445639002	NA	1	0	3.06	1	342.165710996996	342.391858889998	"15"	40114.380338346	40109.655933436	1.5	0.1
0.01	1	0.247036161003052	1	75	362.269445639002	NA	1	0	3.06	1	342.616457226999	342.863493388002	"15"	40114.380338346	40109.655933436	1.5	0.1
0.01	1	0.19546425199951	1	75	362.269445639002	NA	1	0	3.06	1	343.100697169	343.296161421	"15"	40114.380338346	40109.655933436	1.5	0.1
0.01	1	0.201852595004311	1	75	362.269445639002	NA	1	0	3.06	1	343.534653598996	343.736506194	"15"	40114.380338346	40109.655933436	1.5	0.1
0.01	1	0.205940498002747	1	75	362.269445639002	NA	1	0	3.06	1	343.968756501999	344.174697000002	"15"	40114.380338346	40109.655933436	1.5	0.1
0.01	1	0.220432964000793	1	75	362.269445639002	NA	1	0	3.06	1	344.402860083996	344.623293047996	"15"	40114.380338346	40109.655933436	1.5	0.1
0.01	1	0.209748483001022	1	75	362.269445639002	NA	1	0	3.06	1	344.853697817001	345.063446300002	"15"	40114.380338346	40109.655933436	1.5	0.1
0.01	1	0.215160788000503	1	75	362.269445639002	NA	1	0	3.06	1	345.287673161998	345.502833949999	"15"	40114.380338346	40109.655933436	1.5	0.1
0.01	1	0.221110642996791	1	75	362.269445639002	NA	1	0	3.06	1	345.738399517002	345.959510159999	"15"	40114.380338346	40109.655933436	1.5	0.1
0.01	1	0.210923726001056	1	75	362.269445639002	NA	1	0	3.06	1	346.189233421996	346.400157147997	"15"	40114.380338346	40109.655933436	1.5	0.1
0.01	1	0.223484235997603	1	75	362.269445639002	NA	1	0	3.06	1	346.639996436999	346.863480672997	"15"	40114.380338346	40109.655933436	1.5	0.1
0.01	1	0.236863735000952	1	75	362.269445639002	NA	1	0	3.06	1	347.090714551996	347.327578286997	"15"	40114.380338346	40109.655933436	1.5	0.1
0.01	1	0.264883818999806	1	75	362.269445639002	NA	1	0	3.06	1	347.558158184002	347.823042003001	"15"	40114.380338346	40109.655933436	1.5	0.1
0.01	1	0.253515130003507	1	75	362.269445639002	NA	1	0	3.06	1	348.059004058996	348.312519188999	"15"	40114.380338346	40109.655933436	1.5	0.1
0.01	1	0.241274523999891	1	75	362.269445639002	NA	1	0	3.06	1	348.543211662	348.784486185999	"15"	40114.380338346	40109.655933436	1.5	0.1
0.01	1	0.228923868999118	1	75	362.269445639002	NA	1	0	3.06	1	349.010679106999	349.239602975998	"15"	40114.380338346	40109.655933436	1.5	0.1
0.01	1	0.210450458995183	1	75	362.269445639002	NA	1	0	3.06	1	349.478081285	349.688531743996	"15"	40114.380338346	40109.655933436	1.5	0.1
0.01	1	0.255938729998888	1	75	362.269445639002	NA	1	0	3.06	1	349.912179696999	350.168118426998	"15"	40114.380338346	40109.655933436	1.5	0.1
0.01	1	0.306871922999562	1	75	362.269445639002	NA	1	0	3.06	1	350.396360136998	350.703232059997	"15"	40114.380338346	40109.655933436	1.5	0.1
0.01	1	0.269162992997735	1	75	362.269445639002	NA	1	0	3.06	1	350.930534416999	351.199697409997	"15"	40114.380338346	40109.655933436	1.5	0.1
0.01	1	0.216746411002532	1	75	362.269445639002	NA	1	0	3.06	1	351.431336887996	351.648083298998	"15"	40114.380338346	40109.655933436	1.5	0.1
0.01	1	0.2446414799997	1	75	362.269445639002	NA	1	0	3.06	1	351.882060101998	352.126701581998	"15"	40114.380338346	40109.655933436	1.5	0.1
0.01	1	0.257732288002444	1	75	362.269445639002	NA	1	0	3.06	1	352.366208451996	352.623940739999	"15"	40114.380338346	40109.655933436	1.5	0.1
0.01	1	0.253928279002139	1	75	362.269445639002	NA	1	0	3.06	1	352.850438627	353.104366906002	"15"	40114.380338346	40109.655933436	1.5	0.1
0.01	1	0.226034769002581	1	75	362.269445639002	NA	1	0	3.06	1	353.334507551997	353.560542321	"15"	40114.380338346	40109.655933436	1.5	0.1
0.01	1	0.262936254999659	1	75	362.269445639002	NA	1	0	3.06	1	353.785285346996	354.048221601995	"15"	40114.380338346	40109.655933436	1.5	0.1
0.01	1	0.210262137006794	1	75	362.269445639002	NA	1	0	3.06	1	354.286060401995	354.496322539002	"15"	40114.380338346	40109.655933436	1.5	0.1
0.01	1	0.2551946579988	1	75	362.269445639002	NA	1	0	3.06	1	354.720130226997	354.975324884996	"15"	40114.380338346	40109.655933436	1.5	0.1
0.01	1	0.363133245002246	1	75	362.269445639002	NA	1	0	3.06	1	355.204470118995	355.567603363997	"15"	40114.380338346	40109.655933436	1.5	0.1
0.01	1	0.194008182006655	1	75	362.269445639002	NA	1	0	3.06	1	355.805319326995	355.999327509002	"15"	40114.380338346	40109.655933436	1.5	0.1
0.01	1	0.248635210002249	1	75	362.269445639002	NA	1	0	3.06	1	356.222716028999	356.471351239001	"15"	40114.380338346	40109.655933436	1.5	0.1
0.01	1	0.253589245003241	1	75	362.269445639002	NA	1	0	3.06	1	356.706921316996	356.960510561999	"15"	40114.380338346	40109.655933436	1.5	0.1
0.01	1	0.255612346998532	1	75	362.269445639002	NA	1	0	3.06	1	357.191035582	357.446647928999	"15"	40114.380338346	40109.655933436	1.5	0.1
0.01	1	0.261050088993215	1	75	362.269445639002	NA	1	0	3.06	1	357.675230257002	357.936280345995	"15"	40114.380338346	40109.655933436	1.5	0.1
0.01	1	0.343959696998354	1	75	362.269445639002	NA	1	0	3.06	1	358.159271896999	358.503231593997	"15"	40114.380338346	40109.655933436	1.5	0.1
0.01	1	0.271374698997533	1	75	362.269445639002	NA	1	0	3.06	1	358.743592398998	359.014967097995	"15"	40114.380338346	40109.655933436	1.5	0.1
0.01	1	0.210714788998303	1	75	362.269445639002	NA	1	0	3.06	1	359.244446958	359.455161746999	"15"	40114.380338346	40109.655933436	1.5	0.1
0.01	1	0.312460711000313	1	75	362.269445639002	NA	1	0	3.06	1	359.678440684002	359.990901395002	"15"	40114.380338346	40109.655933436	1.5	0.1
0.01	1	0.401875490002567	1	75	362.269445639002	NA	1	0	3.06	1	360.229504468996	360.631379958999	"15"	40114.380338346	40109.655933436	1.5	0.1
0.01	1	0.295980693001184	1	75	362.269445639002	NA	1	0	3.06	1	360.863919103998	361.159899797	"15"	40114.380338346	40109.655933436	1.5	0.1
0.01	1	0.274689534999197	1	75	362.269445639002	NA	1	0	3.06	1	361.381396486999	361.656086021998	"15"	40114.380338346	40109.655933436	1.5	0.1
0.01	1	0.261505145004776	1	75	362.269445639002	NA	1	0	3.06	1	361.882213831996	362.143718977	"15"	40114.380338346	40109.655933436	1.5	0.1
0.01	1	0.440282510993711	1	112	NA	385.865758800996	0	0.52	3.58	1	364.319691577002	364.759974087996	"16"	40114.380338346	40109.655933436	1.5	0.1
0.01	1	0.203988298002514	1	112	NA	385.865758800996	0	0.52	3.58	1	364.987483211997	365.191471509999	"16"	40114.380338346	40109.655933436	1.5	0.1
0.01	1	0.139314981002826	1	112	NA	385.865758800996	0	0.52	3.58	1	365.421437008998	365.56075199	"16"	40114.380338346	40109.655933436	1.5	0.1
0.01	1	0.138217445004557	1	112	NA	385.865758800996	0	0.52	3.58	1	365.788821238995	365.927038684	"16"	40114.380338346	40109.655933436	1.5	0.1
0.01	1	0.164051705003658	1	112	NA	385.865758800996	0	0.52	3.58	1	366.156137728998	366.320189434002	"16"	40114.380338346	40109.655933436	1.5	0.1
0.01	1	0.145973111000785	1	112	NA	385.865758800996	0	0.52	3.58	1	366.556780977	366.702754088001	"16"	40114.380338346	40109.655933436	1.5	0.1
0.01	1	0.154164715000661	1	112	NA	385.865758800996	0	0.52	3.58	1	366.940722706997	367.094887421998	"16"	40114.380338346	40109.655933436	1.5	0.1
0.01	1	0.154875606000132	1	112	NA	385.865758800996	0	0.52	3.58	1	367.324697243996	367.479572849996	"16"	40114.380338346	40109.655933436	1.5	0.1
0.01	1	0.130335749003279	1	112	NA	385.865758800996	0	0.52	3.58	1	367.708676506998	367.839012256001	"16"	40114.380338346	40109.655933436	1.5	0.1
0.01	1	0.155253435004852	1	112	NA	385.865758800996	0	0.52	3.58	1	368.076017223997	368.231270659002	"16"	40114.380338346	40109.655933436	1.5	0.1
0.01	1	0.163377923003281	1	112	NA	385.865758800996	0	0.52	3.58	1	368.460027738998	368.623405662001	"16"	40114.380338346	40109.655933436	1.5	0.1
0.01	1	0.147431140001572	1	112	NA	385.865758800996	0	0.52	3.58	1	368.860644467	369.008075607002	"16"	40114.380338346	40109.655933436	1.5	0.1
0.01	1	0.164144962000137	1	112	NA	385.865758800996	0	0.52	3.58	1	369.244615251999	369.408760213999	"16"	40114.380338346	40109.655933436	1.5	0.1
0.01	1	0.153683190997981	1	112	NA	385.865758800996	0	0.52	3.58	1	369.645239787002	369.798922978	"16"	40114.380338346	40109.655933436	1.5	0.1
0.01	1	0.161448106002354	1	112	NA	385.865758800996	0	0.52	3.58	1	370.029298896996	370.190747002998	"16"	40114.380338346	40109.655933436	1.5	0.1
0.01	1	0.1862451220004	1	112	NA	385.865758800996	0	0.52	3.58	1	370.413230236998	370.599475358998	"16"	40114.380338346	40109.655933436	1.5	0.1
0.01	1	0.162292989996786	1	112	NA	385.865758800996	0	0.52	3.58	1	370.830556064	370.992849053997	"16"	40114.380338346	40109.655933436	1.5	0.1
0.01	1	0.15952262400242	1	112	NA	385.865758800996	0	0.52	3.58	1	371.231360583995	371.390883207998	"16"	40114.380338346	40109.655933436	1.5	0.1
0.01	1	0.169403517997125	1	112	NA	385.865758800996	0	0.52	3.58	1	371.615220849002	371.784624366999	"16"	40114.380338346	40109.655933436	1.5	0.1
0.01	1	0.175661902001593	1	112	NA	385.865758800996	0	0.52	3.58	1	372.015929581998	372.191591483999	"16"	40114.380338346	40109.655933436	1.5	0.1
0.01	1	0.184216277004452	1	112	NA	385.865758800996	0	0.52	3.58	1	372.416656196998	372.600872474002	"16"	40114.380338346	40109.655933436	1.5	0.1
0.01	1	0.165741966004134	1	112	NA	385.865758800996	0	0.52	3.58	1	372.834060433997	372.999802400001	"16"	40114.380338346	40109.655933436	1.5	0.1
0.01	1	0.141268464998575	1	112	NA	385.865758800996	0	0.52	3.58	1	373.234645067001	373.375913532	"16"	40114.380338346	40109.655933436	1.5	0.1
0.01	1	0.198468087997753	1	112	NA	385.865758800996	0	0.52	3.58	1	373.601948162002	373.80041625	"16"	40114.380338346	40109.655933436	1.5	0.1
0.01	1	0.196571471002244	1	112	NA	385.865758800996	0	0.52	3.58	1	374.035959428998	374.232530900001	"16"	40114.380338346	40109.655933436	1.5	0.1
0.01	1	0.169121740000264	1	112	NA	385.865758800996	0	0.52	3.58	1	374.470125831998	374.639247571999	"16"	40114.380338346	40109.655933436	1.5	0.1
0.01	1	0.184422745005577	1	112	NA	385.865758800996	0	0.52	3.58	1	374.870717763995	375.055140509001	"16"	40114.380338346	40109.655933436	1.5	0.1
0.01	1	0.17640352500166	1	112	NA	385.865758800996	0	0.52	3.58	1	375.288075083998	375.464478608999	"16"	40114.380338346	40109.655933436	1.5	0.1
0.01	1	0.190782719997515	1	112	NA	385.865758800996	0	0.52	3.58	1	375.688753299	375.879536018998	"16"	40114.380338346	40109.655933436	1.5	0.1
0.01	1	0.174545982001291	1	112	NA	385.865758800996	0	0.52	3.58	1	376.106132811998	376.280678793999	"16"	40114.380338346	40109.655933436	1.5	0.1
0.01	1	0.197238177002873	1	112	NA	385.865758800996	0	0.52	3.58	1	376.506791726999	376.704029904002	"16"	40114.380338346	40109.655933436	1.5	0.1
0.01	1	0.155396415997529	1	112	NA	385.865758800996	0	0.52	3.58	1	376.940922861002	377.096319277	"16"	40114.380338346	40109.655933436	1.5	0.1
0.01	1	0.186545055999886	1	112	NA	385.865758800996	0	0.52	3.58	1	377.324827883996	377.511372939996	"16"	40114.380338346	40109.655933436	1.5	0.1
0.01	1	0.194292970998504	1	112	NA	385.865758800996	0	0.52	3.58	1	377.742207458999	377.936500429998	"16"	40114.380338346	40109.655933436	1.5	0.1
0.01	1	0.166598869000154	1	112	NA	385.865758800996	0	0.52	3.58	1	378.176236310996	378.342835179996	"16"	40114.380338346	40109.655933436	1.5	0.1
0.01	1	0.197709201995167	1	112	NA	385.865758800996	0	0.52	3.58	1	378.576978609002	378.774687810997	"16"	40114.380338346	40109.655933436	1.5	0.1
0.01	1	0.181248255001265	1	112	NA	385.865758800996	0	0.52	3.58	1	379.011055447001	379.192303702002	"16"	40114.380338346	40109.655933436	1.5	0.1
0.01	1	0.140004679000413	1	112	NA	385.865758800996	0	0.52	3.58	1	379.428389879002	379.568394558002	"16"	40114.380338346	40109.655933436	1.5	0.1
0.01	1	0.155162723000103	1	112	NA	385.865758800996	0	0.52	3.58	1	379.795727527002	379.950890250002	"16"	40114.380338346	40109.655933436	1.5	0.1
0.01	1	0.187883081001928	1	112	NA	385.865758800996	0	0.52	3.58	1	380.179709660995	380.367592741997	"16"	40114.380338346	40109.655933436	1.5	0.1
0.01	1	0.179719127998396	1	112	NA	385.865758800996	0	0.52	3.58	1	380.597045139002	380.776764267001	"16"	40114.380338346	40109.655933436	1.5	0.1
0.01	1	0.152985695000098	1	112	NA	385.865758800996	0	0.52	3.58	1	381.014446176996	381.167431871996	"16"	40114.380338346	40109.655933436	1.5	0.1
0.01	1	0.177976827995735	1	112	NA	385.865758800996	0	0.52	3.58	1	381.398427082	381.576403909996	"16"	40114.380338346	40109.655933436	1.5	0.1
0.01	1	0.201144345999637	1	112	NA	385.865758800996	0	0.52	3.58	1	381.798963011999	382.000107357999	"16"	40114.380338346	40109.655933436	1.5	0.1
0.01	1	0.198814257993945	1	112	NA	385.865758800996	0	0.52	3.58	1	382.233128259002	382.431942516996	"16"	40114.380338346	40109.655933436	1.5	0.1
0.01	1	0.172890079003992	1	112	NA	385.865758800996	0	0.52	3.58	1	382.667127246998	382.840017326002	"16"	40114.380338346	40109.655933436	1.5	0.1
0.01	1	0.16461111499666	1	112	NA	385.865758800996	0	0.52	3.58	1	383.067894909	383.232506023996	"16"	40114.380338346	40109.655933436	1.5	0.1
0.01	1	0.195299368999258	1	112	NA	385.865758800996	0	0.52	3.58	1	383.468445997001	383.663745366001	"16"	40114.380338346	40109.655933436	1.5	0.1
0.01	1	0.224366854999971	1	112	NA	385.865758800996	0	0.52	3.58	1	383.902654436999	384.127021291999	"16"	40114.380338346	40109.655933436	1.5	0.1
0.01	1	0.19905999799812	1	112	NA	385.865758800996	0	0.52	3.58	1	384.353348691999	384.552408689997	"16"	40114.380338346	40109.655933436	1.5	0.1
0.01	1	0.155924942999263	1	112	NA	385.865758800996	0	0.52	3.58	1	384.787456156999	384.943381099998	"16"	40114.380338346	40109.655933436	1.5	0.1
0.01	1	0.196228364999115	1	112	NA	385.865758800996	0	0.52	3.58	1	385.171423537002	385.367651902001	"16"	40114.380338346	40109.655933436	1.5	0.1
0.01	1	0.258757964998949	2	112	NA	385.865758800996	0	0.52	3.58	1	385.605467617002	385.864225582001	"16"	40114.380338346	40109.655933436	1.5	0.1
0.01	1	0.00451002699992387	1	116	NA	410.225551304997	0	0.54	4.12	1	387.909327076995	387.913837103995	"17"	40114.380338346	40109.655933436	1.5	0.1
0.01	1	0.105180894999648	1	116	NA	410.225551304997	0	0.54	4.12	1	388.142976436997	388.248157331996	"17"	40114.380338346	40109.655933436	1.5	0.1
0.01	1	0.0754716459996416	1	116	NA	410.225551304997	0	0.54	4.12	1	388.476894282001	388.552365928001	"17"	40114.380338346	40109.655933436	1.5	0.1
0.01	1	0.0940255710011115	1	116	NA	410.225551304997	0	0.54	4.12	1	388.777413696997	388.871439267998	"17"	40114.380338346	40109.655933436	1.5	0.1
0.01	1	0.111931457999162	1	116	NA	410.225551304997	0	0.54	4.12	1	389.111297969001	389.223229427	"17"	40114.380338346	40109.655933436	1.5	0.1
0.01	1	0.0821472919997177	1	116	NA	410.225551304997	0	0.54	4.12	1	389.445190578997	389.527337870997	"17"	40114.380338346	40109.655933436	1.5	0.1
0.01	1	0.0932681440026499	1	116	NA	410.225551304997	0	0.54	4.12	1	389.762418027	389.855686171002	"17"	40114.380338346	40109.655933436	1.5	0.1
0.01	1	0.0726851279978291	1	116	NA	410.225551304997	0	0.54	4.12	1	390.079559099999	390.152244227997	"17"	40114.380338346	40109.655933436	1.5	0.1
0.01	1	0.0760899609958869	1	116	NA	410.225551304997	0	0.54	4.12	1	390.380128662	390.456218622996	"17"	40114.380338346	40109.655933436	1.5	0.1
0.01	1	0.104046721004124	1	116	NA	410.225551304997	0	0.54	4.12	1	390.680655108998	390.784701830002	"17"	40114.380338346	40109.655933436	1.5	0.1
0.01	1	0.0643027859987342	1	116	NA	410.225551304997	0	0.54	4.12	1	391.014622497001	391.078925283	"17"	40114.380338346	40109.655933436	1.5	0.1
0.01	1	0.12436030999379	1	116	NA	410.225551304997	0	0.54	4.12	1	391.315009238002	391.439369547996	"17"	40114.380338346	40109.655933436	1.5	0.1
0.01	1	0.0948736799982726	1	116	NA	410.225551304997	0	0.54	4.12	1	391.665665897002	391.760539577001	"17"	40114.380338346	40109.655933436	1.5	0.1
0.01	1	0.103713215001335	1	116	NA	410.225551304997	0	0.54	4.12	1	391.999463287	392.103176502002	"17"	40114.380338346	40109.655933436	1.5	0.1
0.01	1	0.113921567004581	1	116	NA	410.225551304997	0	0.54	4.12	1	392.333443548996	392.447365116001	"17"	40114.380338346	40109.655933436	1.5	0.1
0.01	1	0.139294967004389	1	116	NA	410.225551304997	0	0.54	4.12	1	392.683972426996	392.823267394	"17"	40114.380338346	40109.655933436	1.5	0.1
0.01	1	0.15746460200171	1	116	NA	410.225551304997	0	0.54	4.12	1	393.051319847	393.208784449002	"17"	40114.380338346	40109.655933436	1.5	0.1
0.01	1	0.141340046997357	1	116	NA	410.225551304997	0	0.54	4.12	1	393.435319609001	393.576659655999	"17"	40114.380338346	40109.655933436	1.5	0.1
0.01	1	0.246209414995974	1	116	NA	410.225551304997	0	0.54	4.12	1	393.802534342001	394.048743756997	"17"	40114.380338346	40109.655933436	1.5	0.1
0.01	1	0.21721573099785	1	116	NA	410.225551304997	0	0.54	4.12	1	394.286631356998	394.503847087995	"17"	40114.380338346	40109.655933436	1.5	0.1
0.01	1	0.230265624995809	1	116	NA	410.225551304997	0	0.54	4.12	1	394.737418099001	394.967683723997	"17"	40114.380338346	40109.655933436	1.5	0.1
0.01	1	0.227191468002275	1	116	NA	410.225551304997	0	0.54	4.12	1	395.204883901999	395.432075370001	"17"	40114.380338346	40109.655933436	1.5	0.1
0.01	1	0.224715386000753	1	116	NA	410.225551304997	0	0.54	4.12	1	395.655630524001	395.880345910002	"17"	40114.380338346	40109.655933436	1.5	0.1
0.01	1	0.244933704998402	1	116	NA	410.225551304997	0	0.54	4.12	1	396.106443122	396.351376826999	"17"	40114.380338346	40109.655933436	1.5	0.1
0.01	1	0.257944258002681	1	116	NA	410.225551304997	0	0.54	4.12	1	396.573817343997	396.831761601999	"17"	40114.380338346	40109.655933436	1.5	0.1
0.01	1	0.3103569790037	1	116	NA	410.225551304997	0	0.54	4.12	1	397.058018491996	397.368375471	"17"	40114.380338346	40109.655933436	1.5	0.1
0.01	1	0.254797095003596	1	116	NA	410.225551304997	0	0.54	4.12	1	397.592283286998	397.847080382002	"17"	40114.380338346	40109.655933436	1.5	0.1
0.01	1	0.25139468099951	1	116	NA	410.225551304997	0	0.54	4.12	1	398.076451471999	398.327846152999	"17"	40114.380338346	40109.655933436	1.5	0.1
0.01	1	0.207277530993451	1	116	NA	410.225551304997	0	0.54	4.12	1	398.560523177002	398.767800707996	"17"	40114.380338346	40109.655933436	1.5	0.1
0.01	1	0.220908026996767	1	116	NA	410.225551304997	0	0.54	4.12	1	398.994651503999	399.215559530996	"17"	40114.380338346	40109.655933436	1.5	0.1
0.01	1	0.21881589700206	1	116	NA	410.225551304997	0	0.54	4.12	1	399.445382163998	399.664198061	"17"	40114.380338346	40109.655933436	1.5	0.1
0.01	1	0.216057305995491	1	116	NA	410.225551304997	0	0.54	4.12	1	399.896130522	400.112187827996	"17"	40114.380338346	40109.655933436	1.5	0.1
0.01	1	0.179944219002209	1	116	NA	410.225551304997	0	0.54	4.12	1	400.346953513996	400.526897732998	"17"	40114.380338346	40109.655933436	1.5	0.1
0.01	1	0.244592579001619	1	116	NA	410.225551304997	0	0.54	4.12	1	400.764286466998	401.008879045999	"17"	40114.380338346	40109.655933436	1.5	0.1
0.01	1	0.200815363001311	1	116	NA	410.225551304997	0	0.54	4.12	1	401.231753369	401.432568732002	"17"	40114.380338346	40109.655933436	1.5	0.1
0.01	1	0.190101211002911	1	116	NA	410.225551304997	0	0.54	4.12	1	401.665730866996	401.855832077999	"17"	40114.380338346	40109.655933436	1.5	0.1
0.01	1	0.197171225001512	1	116	NA	410.225551304997	0	0.54	4.12	1	402.083156046996	402.280327271998	"17"	40114.380338346	40109.655933436	1.5	0.1
0.01	1	0.258063159002631	1	116	NA	410.225551304997	0	0.54	4.12	1	402.517217576999	402.775280736001	"17"	40114.380338346	40109.655933436	1.5	0.1
0.01	1	0.174571579998883	1	116	NA	410.225551304997	0	0.54	4.12	1	403.001406771997	403.175978351996	"17"	40114.380338346	40109.655933436	1.5	0.1
0.01	1	0.214650768000865	1	116	NA	410.225551304997	0	0.54	4.12	1	403.402088728995	403.616739496996	"17"	40114.380338346	40109.655933436	1.5	0.1
0.01	1	0.18631420499878	1	116	NA	410.225551304997	0	0.54	4.12	1	403.852809548996	404.039123753995	"17"	40114.380338346	40109.655933436	1.5	0.1
0.01	1	0.200547249005467	1	116	NA	410.225551304997	0	0.54	4.12	1	404.270145443996	404.470692693001	"17"	40114.380338346	40109.655933436	1.5	0.1
0.01	1	0.184458084004291	1	116	NA	410.225551304997	0	0.54	4.12	1	404.704268663998	404.888726748002	"17"	40114.380338346	40109.655933436	1.5	0.1
0.01	1	0.246802447996743	1	116	NA	410.225551304997	0	0.54	4.12	1	405.121518849002	405.368321296999	"17"	40114.380338346	40109.655933436	1.5	0.1
0.01	1	0.209794262002106	1	116	NA	410.225551304997	0	0.54	4.12	1	405.605730085997	405.815524348	"17"	40114.380338346	40109.655933436	1.5	0.1
0.01	1	0.192918041997473	1	116	NA	410.225551304997	0	0.54	4.12	1	406.039756459002	406.232674501	"17"	40114.380338346	40109.655933436	1.5	0.1
0.01	1	0.15135400199506	1	116	NA	410.225551304997	0	0.54	4.12	1	406.457179097	406.608533098995	"17"	40114.380338346	40109.655933436	1.5	0.1
0.01	1	0.215508540997689	1	116	NA	410.225551304997	0	0.54	4.12	1	406.841129717002	407.056638258	"17"	40114.380338346	40109.655933436	1.5	0.1
0.01	1	0.219958431996929	1	116	NA	410.225551304997	0	0.54	4.12	1	407.291973927	407.511932358997	"17"	40114.380338346	40109.655933436	1.5	0.1
0.01	1	0.232279354997445	1	116	NA	410.225551304997	0	0.54	4.12	1	407.742667104001	407.974946458999	"17"	40114.380338346	40109.655933436	1.5	0.1
0.01	1	0.22214338699996	1	116	NA	410.225551304997	0	0.54	4.12	1	408.210198032	408.432341419	"17"	40114.380338346	40109.655933436	1.5	0.1
0.01	1	0.179286311999022	1	116	NA	410.225551304997	0	0.54	4.12	1	408.660868077	408.840154389	"17"	40114.380338346	40109.655933436	1.5	0.1
0.01	1	0.194106759998249	1	116	NA	410.225551304997	0	0.54	4.12	1	409.078177037001	409.272283797	"17"	40114.380338346	40109.655933436	1.5	0.1
0.01	1	0.20075839600031	1	116	NA	410.225551304997	0	0.54	4.12	1	409.495571587002	409.696329983002	"17"	40114.380338346	40109.655933436	1.5	0.1
0.01	1	0.294255282999075	2	116	NA	410.225551304997	0	0.54	4.12	1	409.929723146997	410.223978429996	"17"	40114.380338346	40109.655933436	1.5	0.1
0.01	1	0.34938783999678	1	31	425.191567638998	NA	1	0	4.12	1	412.266995282	412.616383121996	"18"	40114.380338346	40109.655933436	1.5	0.1
0.01	1	0.245280919996731	1	31	425.191567638998	NA	1	0	4.12	1	412.851178022	413.096458941996	"18"	40114.380338346	40109.655933436	1.5	0.1
0.01	1	0.145411481003975	1	31	425.191567638998	NA	1	0	4.12	1	413.318631891998	413.464043373002	"18"	40114.380338346	40109.655933436	1.5	0.1
0.01	1	0.160722418004298	1	31	425.191567638998	NA	1	0	4.12	1	413.686062258996	413.846784677	"18"	40114.380338346	40109.655933436	1.5	0.1
0.01	1	0.170575270996778	1	31	425.191567638998	NA	1	0	4.12	1	414.069920132002	414.240495402999	"18"	40114.380338346	40109.655933436	1.5	0.1
0.01	1	0.144494440006383	1	31	425.191567638998	NA	1	0	4.12	1	414.470647386996	414.615141827002	"18"	40114.380338346	40109.655933436	1.5	0.1
0.01	1	0.162318560003769	1	31	425.191567638998	NA	1	0	4.12	1	414.837939821999	415.000258382002	"18"	40114.380338346	40109.655933436	1.5	0.1
0.01	1	0.154132201998436	1	31	425.191567638998	NA	1	0	4.12	1	415.221912916997	415.376045118996	"18"	40114.380338346	40109.655933436	1.5	0.1
0.01	1	0.138657065996085	1	31	425.191567638998	NA	1	0	4.12	1	415.605856652001	415.744513717997	"18"	40114.380338346	40109.655933436	1.5	0.1
0.01	1	0.146153703004529	1	31	425.191567638998	NA	1	0	4.12	1	415.973079126998	416.119232830002	"18"	40114.380338346	40109.655933436	1.5	0.1
0.01	1	0.129852559999563	1	31	425.191567638998	NA	1	0	4.12	1	416.357067386998	416.486919946998	"18"	40114.380338346	40109.655933436	1.5	0.1
0.01	1	0.147562419006135	1	31	425.191567638998	NA	1	0	4.12	1	416.724460838996	416.872023258002	"18"	40114.380338346	40109.655933436	1.5	0.1
0.01	1	0.148217825000756	1	31	425.191567638998	NA	1	0	4.12	1	417.108477226997	417.256695051998	"18"	40114.380338346	40109.655933436	1.5	0.1
0.01	1	0.139916080996045	1	31	425.191567638998	NA	1	0	4.12	1	417.492336397001	417.632252477997	"18"	40114.380338346	40109.655933436	1.5	0.1
0.01	1	0.147419537999667	1	31	425.191567638998	NA	1	0	4.12	1	417.859658271998	418.007077809998	"18"	40114.380338346	40109.655933436	1.5	0.1
