"payoff.level"	"balloon"	"rt"	"resp"	"explode.trial"	"explode.time"	"finish.time"	"exploded"	"trial.total"	"cumulative.total"	"finished"	"trial.start"	"trial.end"	"trial.num"	"secs"	"start.time"	"iti"	"isi"
0.01	1	0.922542810003506	1	64	NA	11.7237655880017	0	0.11	0.11	1	0.0229070019995561	0.945449812003062	"1"	40721.309791593	40713.678617171	1.5	0.1
0.01	1	0.510197324001638	1	64	NA	11.7237655880017	0	0.11	0.11	1	1.29166022600111	1.80185755000275	"1"	40721.309791593	40713.678617171	1.5	0.1
0.01	1	0.478464640000311	1	64	NA	11.7237655880017	0	0.11	0.11	1	2.02627865500108	2.50474329500139	"1"	40721.309791593	40713.678617171	1.5	0.1
0.01	1	0.530166112999723	1	64	NA	11.7237655880017	0	0.11	0.11	1	2.72741831500025	3.25758442799997	"1"	40721.309791593	40713.678617171	1.5	0.1
0.01	1	0.921563434996642	1	64	NA	11.7237655880017	0	0.11	0.11	1	3.4954371260028	4.41700056099944	"1"	40721.309791593	40713.678617171	1.5	0.1
0.01	1	0.570124432997545	1	64	NA	11.7237655880017	0	0.11	0.11	1	4.64733099500154	5.21745542799908	"1"	40721.309791593	40713.678617171	1.5	0.1
0.01	1	0.512698954997177	1	64	NA	11.7237655880017	0	0.11	0.11	1	5.44866575500055	5.96136470999772	"1"	40721.309791593	40713.678617171	1.5	0.1
0.01	1	0.602156417997321	1	64	NA	11.7237655880017	0	0.11	0.11	1	6.1832508869993	6.78540730499662	"1"	40721.309791593	40713.678617171	1.5	0.1
0.01	1	0.350977381996927	1	64	NA	11.7237655880017	0	0.11	0.11	1	7.01802459500323	7.36900197700015	"1"	40721.309791593	40713.678617171	1.5	0.1
0.01	1	0.670865072002925	1	64	NA	11.7237655880017	0	0.11	0.11	1	7.60224893599661	8.27311400799954	"1"	40721.309791593	40713.678617171	1.5	0.1
0.01	1	2.13764419599465	1	64	NA	11.7237655880017	0	0.11	0.11	1	8.50391497000237	10.641559165997	"1"	40721.309791593	40713.678617171	1.5	0.1
0.01	1	0.847572802005743	2	64	NA	11.7237655880017	0	0.11	0.11	1	10.8744909899979	11.7220637920036	"1"	40721.309791593	40713.678617171	1.5	0.1
0.01	1	0.533682250999846	1	102	NA	25.4348403530021	0	0.24	0.35	1	13.7626289070031	14.2963111580029	"2"	40721.309791593	40713.678617171	1.5	0.1
0.01	1	0.00427565299469279	1	102	NA	25.4348403530021	0	0.24	0.35	1	14.5306222720028	14.5348979249975	"2"	40721.309791593	40713.678617171	1.5	0.1
0.01	1	0.0764300070004538	1	102	NA	25.4348403530021	0	0.24	0.35	1	14.7643899469986	14.840819953999	"2"	40721.309791593	40713.678617171	1.5	0.1
0.01	1	0.00384841499908362	1	102	NA	25.4348403530021	0	0.24	0.35	1	15.0648617670013	15.0687101820004	"2"	40721.309791593	40713.678617171	1.5	0.1
0.01	1	0.0706975869979942	1	102	NA	25.4348403530021	0	0.24	0.35	1	15.2986480899999	15.3693456769979	"2"	40721.309791593	40713.678617171	1.5	0.1
0.01	1	0.0262393890006933	1	102	NA	25.4348403530021	0	0.24	0.35	1	15.5990149299978	15.6252543189985	"2"	40721.309791593	40713.678617171	1.5	0.1
0.01	1	0.00378642400028184	1	102	NA	25.4348403530021	0	0.24	0.35	1	15.8493606620032	15.8531470860034	"2"	40721.309791593	40713.678617171	1.5	0.1
0.01	1	0.00394374199822778	1	102	NA	25.4348403530021	0	0.24	0.35	1	16.0831845499997	16.0871282919979	"2"	40721.309791593	40713.678617171	1.5	0.1
0.01	1	0.00367373899644008	1	102	NA	25.4348403530021	0	0.24	0.35	1	16.3169744670013	16.3206482059977	"2"	40721.309791593	40713.678617171	1.5	0.1
0.01	1	0.00395561900222674	1	102	NA	25.4348403530021	0	0.24	0.35	1	16.5507374570007	16.5546930760029	"2"	40721.309791593	40713.678617171	1.5	0.1
0.01	1	0.44957069499651	1	102	NA	25.4348403530021	0	0.24	0.35	1	16.7843017620035	17.233872457	"2"	40721.309791593	40713.678617171	1.5	0.1
0.01	1	0.540646688001289	1	102	NA	25.4348403530021	0	0.24	0.35	1	17.4689715299974	18.0096182179986	"2"	40721.309791593	40713.678617171	1.5	0.1
0.01	1	1.78909139800089	1	102	NA	25.4348403530021	0	0.24	0.35	1	18.2368941219975	20.0259855199984	"2"	40721.309791593	40713.678617171	1.5	0.1
0.01	1	0.00382779900246533	1	102	NA	25.4348403530021	0	0.24	0.35	1	20.256963025	20.2607908240025	"2"	40721.309791593	40713.678617171	1.5	0.1
0.01	1	0.00798748899978818	1	102	NA	25.4348403530021	0	0.24	0.35	1	20.4906947549971	20.4986822439969	"2"	40721.309791593	40713.678617171	1.5	0.1
0.01	1	0.00301383400073973	1	102	NA	25.4348403530021	0	0.24	0.35	1	20.7244212700025	20.7274351040032	"2"	40721.309791593	40713.678617171	1.5	0.1
0.01	1	0.0189415179993375	1	102	NA	25.4348403530021	0	0.24	0.35	1	20.9581999770016	20.977141495001	"2"	40721.309791593	40713.678617171	1.5	0.1
0.01	1	0.376315736000834	1	102	NA	25.4348403530021	0	0.24	0.35	1	21.208532855002	21.5848485910028	"2"	40721.309791593	40713.678617171	1.5	0.1
0.01	1	0.00941293799405685	1	102	NA	25.4348403530021	0	0.24	0.35	1	21.8095069870033	21.8189199249973	"2"	40721.309791593	40713.678617171	1.5	0.1
0.01	1	0.00779589500598377	1	102	NA	25.4348403530021	0	0.24	0.35	1	22.0432322229972	22.0510281180032	"2"	40721.309791593	40713.678617171	1.5	0.1
0.01	1	0.0835773419967154	1	102	NA	25.4348403530021	0	0.24	0.35	1	22.2770135300016	22.3605908719983	"2"	40721.309791593	40713.678617171	1.5	0.1
0.01	1	0.341965540996171	1	102	NA	25.4348403530021	0	0.24	0.35	1	22.5942886900011	22.9362542309973	"2"	40721.309791593	40713.678617171	1.5	0.1
0.01	1	0.351600546004192	1	102	NA	25.4348403530021	0	0.24	0.35	1	23.1617717539993	23.5133723000035	"2"	40721.309791593	40713.678617171	1.5	0.1
0.01	1	0.783280648000073	1	102	NA	25.4348403530021	0	0.24	0.35	1	23.7462137870025	24.5294944350026	"2"	40721.309791593	40713.678617171	1.5	0.1
0.01	1	0.668831367001985	2	102	NA	25.4348403530021	0	0.24	0.35	1	24.7644967759989	25.4333281430008	"2"	40721.309791593	40713.678617171	1.5	0.1
0.01	1	0.435393626001314	1	97	NA	41.9377901080006	0	0.32	0.67	1	27.4689960839969	27.9043897099982	"3"	40721.309791593	40713.678617171	1.5	0.1
0.01	1	0.00214380599936703	1	97	NA	41.9377901080006	0	0.32	0.67	1	28.1367511429999	28.1388949489992	"3"	40721.309791593	40713.678617171	1.5	0.1
0.01	1	0.00223833199561341	1	97	NA	41.9377901080006	0	0.32	0.67	1	28.3706357830015	28.3728741149971	"3"	40721.309791593	40713.678617171	1.5	0.1
0.01	1	0.0368391759984661	1	97	NA	41.9377901080006	0	0.32	0.67	1	28.6044145519991	28.6412537279975	"3"	40721.309791593	40713.678617171	1.5	0.1
0.01	1	0.033064793999074	1	97	NA	41.9377901080006	0	0.32	0.67	1	28.8713086709977	28.9043734649968	"3"	40721.309791593	40713.678617171	1.5	0.1
0.01	1	0.0700902300013695	1	97	NA	41.9377901080006	0	0.32	0.67	1	29.1384308519991	29.2085210820005	"3"	40721.309791593	40713.678617171	1.5	0.1
0.01	1	0.0420535119992564	1	97	NA	41.9377901080006	0	0.32	0.67	1	29.438918505999	29.4809720179983	"3"	40721.309791593	40713.678617171	1.5	0.1
0.01	1	0.00219049100269331	1	97	NA	41.9377901080006	0	0.32	0.67	1	29.7060715819971	29.7082620729998	"3"	40721.309791593	40713.678617171	1.5	0.1
0.01	1	0.0020914199994877	1	97	NA	41.9377901080006	0	0.32	0.67	1	29.9397755570026	29.9418669770021	"3"	40721.309791593	40713.678617171	1.5	0.1
0.01	1	0.0438850510035991	1	97	NA	41.9377901080006	0	0.32	0.67	1	30.1735700889985	30.2174551400021	"3"	40721.309791593	40713.678617171	1.5	0.1
0.01	1	0.0653493310019257	1	97	NA	41.9377901080006	0	0.32	0.67	1	30.4407244969989	30.5060738280008	"3"	40721.309791593	40713.678617171	1.5	0.1
0.01	1	0.00221504300134256	1	97	NA	41.9377901080006	0	0.32	0.67	1	30.7411185279998	30.7433335710011	"3"	40721.309791593	40713.678617171	1.5	0.1
0.01	1	0.0022711689962307	1	97	NA	41.9377901080006	0	0.32	0.67	1	30.9749859820004	30.9772571509966	"3"	40721.309791593	40713.678617171	1.5	0.1
0.01	1	0.0804007090046071	1	97	NA	41.9377901080006	0	0.32	0.67	1	31.2087817029969	31.2891824120015	"3"	40721.309791593	40713.678617171	1.5	0.1
0.01	1	0.00225841499923263	1	97	NA	41.9377901080006	0	0.32	0.67	1	31.5258764800019	31.5281348950011	"3"	40721.309791593	40713.678617171	1.5	0.1
0.01	1	0.00228318900190061	1	97	NA	41.9377901080006	0	0.32	0.67	1	31.7594935439993	31.7617767330012	"3"	40721.309791593	40713.678617171	1.5	0.1
0.01	1	0.0478071130055469	1	97	NA	41.9377901080006	0	0.32	0.67	1	31.9935332719979	32.0413403850034	"3"	40721.309791593	40713.678617171	1.5	0.1
0.01	1	0.00218075900193071	1	97	NA	41.9377901080006	0	0.32	0.67	1	32.2770191559976	32.2791999149995	"3"	40721.309791593	40713.678617171	1.5	0.1
0.01	1	0.00223378499504179	1	97	NA	41.9377901080006	0	0.32	0.67	1	32.5108573300022	32.5130911149972	"3"	40721.309791593	40713.678617171	1.5	0.1
0.01	1	0.0649304949984071	1	97	NA	41.9377901080006	0	0.32	0.67	1	32.7447362320017	32.8096667270001	"3"	40721.309791593	40713.678617171	1.5	0.1
0.01	1	0.00216794500011019	1	97	NA	41.9377901080006	0	0.32	0.67	1	33.0450523519976	33.0472202969977	"3"	40721.309791593	40713.678617171	1.5	0.1
0.01	1	0.00398779399984051	1	97	NA	41.9377901080006	0	0.32	0.67	1	33.2789211799973	33.2829089739971	"3"	40721.309791593	40713.678617171	1.5	0.1
0.01	1	0.00226575000124285	1	97	NA	41.9377901080006	0	0.32	0.67	1	33.5125397719967	33.5148055219979	"3"	40721.309791593	40713.678617171	1.5	0.1
0.01	1	0.00326716800191207	1	97	NA	41.9377901080006	0	0.32	0.67	1	33.7461773719988	33.7494445400007	"3"	40721.309791593	40713.678617171	1.5	0.1
0.01	1	0.068776613996306	1	97	NA	41.9377901080006	0	0.32	0.67	1	33.9800061790011	34.0487827929974	"3"	40721.309791593	40713.678617171	1.5	0.1
0.01	1	0.0045582610036945	1	97	NA	41.9377901080006	0	0.32	0.67	1	34.2805155559981	34.2850738170018	"3"	40721.309791593	40713.678617171	1.5	0.1
0.01	1	0.526418050001666	1	97	NA	41.9377901080006	0	0.32	0.67	1	34.5142040849969	35.0406221349986	"3"	40721.309791593	40713.678617171	1.5	0.1
0.01	1	0.00962379599513952	1	97	NA	41.9377901080006	0	0.32	0.67	1	35.2655581200015	35.2751819159967	"3"	40721.309791593	40713.678617171	1.5	0.1
0.01	1	0.00211080299777677	1	97	NA	41.9377901080006	0	0.32	0.67	1	35.4991862850002	35.501297087998	"3"	40721.309791593	40713.678617171	1.5	0.1
0.01	1	0.436065520996635	1	97	NA	41.9377901080006	0	0.32	0.67	1	35.7328475340037	36.1689130550003	"3"	40721.309791593	40713.678617171	1.5	0.1
0.01	1	0.32109760199819	1	97	NA	41.9377901080006	0	0.32	0.67	1	36.4007111149986	36.7218087169967	"3"	40721.309791593	40713.678617171	1.5	0.1
0.01	1	2.7373178639973	1	97	NA	41.9377901080006	0	0.32	0.67	1	36.9515699240001	39.6888877879974	"3"	40721.309791593	40713.678617171	1.5	0.1
0.01	1	2.01287208499707	2	97	NA	41.9377901080006	0	0.32	0.67	1	39.9234022890014	41.9362743739985	"3"	40721.309791593	40713.678617171	1.5	0.1
0.01	1	0.468375983000442	1	51	57.421756265001	NA	1	0	0.67	1	43.9802271220033	44.4486031050037	"4"	40721.309791593	40713.678617171	1.5	0.1
0.01	1	0.00219650699727936	1	51	57.421756265001	NA	1	0	0.67	1	44.6813085120011	44.6835050189984	"4"	40721.309791593	40713.678617171	1.5	0.1
0.01	1	0.002134695998393	1	51	57.421756265001	NA	1	0	0.67	1	44.9149481580025	44.9170828540009	"4"	40721.309791593	40713.678617171	1.5	0.1
0.01	1	0.0363072990003275	1	51	57.421756265001	NA	1	0	0.67	1	45.1486679660011	45.1849752650014	"4"	40721.309791593	40713.678617171	1.5	0.1
0.01	1	0.00213343400537269	1	51	57.421756265001	NA	1	0	0.67	1	45.4158532369984	45.4179866710037	"4"	40721.309791593	40713.678617171	1.5	0.1
0.01	1	0.00206806699861772	1	51	57.421756265001	NA	1	0	0.67	1	45.6495686100025	45.6516366770011	"4"	40721.309791593	40713.678617171	1.5	0.1
0.01	1	0.0305726369988406	1	51	57.421756265001	NA	1	0	0.67	1	45.8833274339995	45.9139000709984	"4"	40721.309791593	40713.678617171	1.5	0.1
0.01	1	0.00206841200269992	1	51	57.421756265001	NA	1	0	0.67	1	46.1503762270004	46.1524446390031	"4"	40721.309791593	40713.678617171	1.5	0.1
0.01	1	0.00220569499651901	1	51	57.421756265001	NA	1	0	0.67	1	46.3841226910008	46.3863283859973	"4"	40721.309791593	40713.678617171	1.5	0.1
0.01	1	0.0638989020008012	1	51	57.421756265001	NA	1	0	0.67	1	46.6178558730026	46.6817547750034	"4"	40721.309791593	40713.678617171	1.5	0.1
0.01	1	0.0578330270000151	1	51	57.421756265001	NA	1	0	0.67	1	46.9183874349983	46.9762204619983	"4"	40721.309791593	40713.678617171	1.5	0.1
0.01	1	0.070876331999898	1	51	57.421756265001	NA	1	0	0.67	1	47.202205693	47.2730820249999	"4"	40721.309791593	40713.678617171	1.5	0.1
0.01	1	0.00332331399840768	1	51	57.421756265001	NA	1	0	0.67	1	47.5027711700022	47.5060944840006	"4"	40721.309791593	40713.678617171	1.5	0.1
0.01	1	0.00210713699925691	1	51	57.421756265001	NA	1	0	0.67	1	47.7364980970015	47.7386052340007	"4"	40721.309791593	40713.678617171	1.5	0.1
0.01	1	0.0548598759996821	1	51	57.421756265001	NA	1	0	0.67	1	47.9701924789988	48.0250523549985	"4"	40721.309791593	40713.678617171	1.5	0.1
0.01	1	0.00204676900466438	1	51	57.421756265001	NA	1	0	0.67	1	48.2539830559981	48.2560298250028	"4"	40721.309791593	40713.678617171	1.5	0.1
0.01	1	0.00370850900071673	1	51	57.421756265001	NA	1	0	0.67	1	48.4877519770016	48.4914604860023	"4"	40721.309791593	40713.678617171	1.5	0.1
0.01	1	0.00390279899875168	1	51	57.421756265001	NA	1	0	0.67	1	48.7215066770004	48.7254094759992	"4"	40721.309791593	40713.678617171	1.5	0.1
0.01	1	0.0378526450003847	1	51	57.421756265001	NA	1	0	0.67	1	48.9552705800015	48.9931232250019	"4"	40721.309791593	40713.678617171	1.5	0.1
0.01	1	0.00326095600030385	1	51	57.421756265001	NA	1	0	0.67	1	49.2223748280012	49.2256357840015	"4"	40721.309791593	40713.678617171	1.5	0.1
0.01	1	0.0167398549965583	1	51	57.421756265001	NA	1	0	0.67	1	49.4560335200003	49.4727733749969	"4"	40721.309791593	40713.678617171	1.5	0.1
0.01	1	0.00205048500356497	1	51	57.421756265001	NA	1	0	0.67	1	49.706338486998	49.7083889720016	"4"	40721.309791593	40713.678617171	1.5	0.1
0.01	1	0.012124691005738	1	51	57.421756265001	NA	1	0	0.67	1	49.9401697119974	49.9522944030032	"4"	40721.309791593	40713.678617171	1.5	0.1
0.01	1	0.00206873400020413	1	51	57.421756265001	NA	1	0	0.67	1	50.1738687000034	50.1759374340036	"4"	40721.309791593	40713.678617171	1.5	0.1
0.01	1	0.0653351189976092	1	51	57.421756265001	NA	1	0	0.67	1	50.4076550660029	50.4729901850005	"4"	40721.309791593	40713.678617171	1.5	0.1
0.01	1	0.0024501079969923	1	51	57.421756265001	NA	1	0	0.67	1	50.7082136120007	50.7106637199977	"4"	40721.309791593	40713.678617171	1.5	0.1
0.01	1	0.051066432002699	1	51	57.421756265001	NA	1	0	0.67	1	50.9419103580003	50.992976790003	"4"	40721.309791593	40713.678617171	1.5	0.1
0.01	1	0.00392951499816263	1	51	57.421756265001	NA	1	0	0.67	1	51.2257198070001	51.2296493219983	"4"	40721.309791593	40713.678617171	1.5	0.1
0.01	1	0.0450808400055394	1	51	57.421756265001	NA	1	0	0.67	1	51.4594057619979	51.5044866020035	"4"	40721.309791593	40713.678617171	1.5	0.1
0.01	1	0.00459258499904536	1	51	57.421756265001	NA	1	0	0.67	1	51.7265437399983	51.7311363249974	"4"	40721.309791593	40713.678617171	1.5	0.1
0.01	1	0.0650799319992075	1	51	57.421756265001	NA	1	0	0.67	1	51.9602790600038	52.025358992003	"4"	40721.309791593	40713.678617171	1.5	0.1
0.01	1	0.00217350200546207	1	51	57.421756265001	NA	1	0	0.67	1	52.2607511289971	52.2629246310025	"4"	40721.309791593	40713.678617171	1.5	0.1
0.01	1	0.0595969849964604	1	51	57.421756265001	NA	1	0	0.67	1	52.4944692520003	52.5540662369967	"4"	40721.309791593	40713.678617171	1.5	0.1
0.01	1	0.0045398220026982	1	51	57.421756265001	NA	1	0	0.67	1	52.7783503850005	52.7828902070032	"4"	40721.309791593	40713.678617171	1.5	0.1
0.01	1	0.0846851189999143	1	51	57.421756265001	NA	1	0	0.67	1	53.0120250960026	53.0967102150025	"4"	40721.309791593	40713.678617171	1.5	0.1
0.01	1	0.00205092800024431	1	51	57.421756265001	NA	1	0	0.67	1	53.329277390003	53.3313283180032	"4"	40721.309791593	40713.678617171	1.5	0.1
0.01	1	0.00322625399712706	1	51	57.421756265001	NA	1	0	0.67	1	53.5630197999999	53.566246053997	"4"	40721.309791593	40713.678617171	1.5	0.1
0.01	1	0.0440938739993726	1	51	57.421756265001	NA	1	0	0.67	1	53.7967338739982	53.8408277479975	"4"	40721.309791593	40713.678617171	1.5	0.1
0.01	1	0.00375813499704236	1	51	57.421756265001	NA	1	0	0.67	1	54.0637851749998	54.0675433099968	"4"	40721.309791593	40713.678617171	1.5	0.1
0.01	1	0.0870823430013843	1	51	57.421756265001	NA	1	0	0.67	1	54.297569620001	54.3846519630024	"4"	40721.309791593	40713.678617171	1.5	0.1
0.01	1	0.00466678500379203	1	51	57.421756265001	NA	1	0	0.67	1	54.6149038349977	54.6195706200015	"4"	40721.309791593	40713.678617171	1.5	0.1
0.01	1	0.00210593699739547	1	51	57.421756265001	NA	1	0	0.67	1	54.8484132820013	54.8505192189987	"4"	40721.309791593	40713.678617171	1.5	0.1
0.01	1	0.00212326600012602	1	51	57.421756265001	NA	1	0	0.67	1	55.0822057089972	55.0843289749973	"4"	40721.309791593	40713.678617171	1.5	0.1
0.01	1	0.0296626249983092	1	51	57.421756265001	NA	1	0	0.67	1	55.3159305790032	55.3455932040015	"4"	40721.309791593	40713.678617171	1.5	0.1
0.01	1	0.098055051996198	1	51	57.421756265001	NA	1	0	0.67	1	55.583010387003	55.6810654389992	"4"	40721.309791593	40713.678617171	1.5	0.1
0.01	1	0.00225808799586957	1	51	57.421756265001	NA	1	0	0.67	1	55.9168946900027	55.9191527779985	"4"	40721.309791593	40713.678617171	1.5	0.1
0.01	1	0.018105609997292	1	51	57.421756265001	NA	1	0	0.67	1	56.1505380500021	56.1686436599994	"4"	40721.309791593	40713.678617171	1.5	0.1
0.01	1	0.0872090490011033	1	51	57.421756265001	NA	1	0	0.67	1	56.4010714690012	56.4882805180023	"4"	40721.309791593	40713.678617171	1.5	0.1
0.01	1	0.0510629750060616	1	51	57.421756265001	NA	1	0	0.67	1	56.7182242319977	56.7692872070038	"4"	40721.309791593	40713.678617171	1.5	0.1
0.01	1	0.0155791689976468	1	51	57.421756265001	NA	1	0	0.67	1	57.0020322510027	57.0176114200003	"4"	40721.309791593	40713.678617171	1.5	0.1
0.01	1	0.0607398749998538	1	51	57.421756265001	NA	1	0	0.67	1	57.2524130940001	57.3131529689999	"4"	40721.309791593	40713.678617171	1.5	0.1
0.01	1	1.09803984800237	1	116	NA	74.6024685559969	0	0.44	1.11	1	59.4561492819994	60.5541891300018	"5"	40721.309791593	40713.678617171	1.5	0.1
0.01	1	0.0414053599961335	1	116	NA	74.6024685559969	0	0.44	1.11	1	60.791815812001	60.8332211719971	"5"	40721.309791593	40713.678617171	1.5	0.1
0.01	1	0.00202922400058014	1	116	NA	74.6024685559969	0	0.44	1.11	1	61.0589050749986	61.0609342989992	"5"	40721.309791593	40713.678617171	1.5	0.1
0.01	1	0.0037920419999864	1	116	NA	74.6024685559969	0	0.44	1.11	1	61.2925776300035	61.2963696720035	"5"	40721.309791593	40713.678617171	1.5	0.1
0.01	1	0.00203295100072864	1	116	NA	74.6024685559969	0	0.44	1.11	1	61.5264324570016	61.5284654080024	"5"	40721.309791593	40713.678617171	1.5	0.1
0.01	1	0.105784911997034	1	116	NA	74.6024685559969	0	0.44	1.11	1	61.7600260870022	61.8658109989992	"5"	40721.309791593	40713.678617171	1.5	0.1
0.01	1	0.0127375359952566	1	116	NA	74.6024685559969	0	0.44	1.11	1	62.0939304280037	62.1066679639989	"5"	40721.309791593	40713.678617171	1.5	0.1
0.01	1	0.00221935700392351	1	116	NA	74.6024685559969	0	0.44	1.11	1	62.3443032849973	62.3465226420012	"5"	40721.309791593	40713.678617171	1.5	0.1
0.01	1	0.00206502200308023	1	116	NA	74.6024685559969	0	0.44	1.11	1	62.5780716070003	62.5801366290034	"5"	40721.309791593	40713.678617171	1.5	0.1
0.01	1	0.108901200001128	1	116	NA	74.6024685559969	0	0.44	1.11	1	62.8118319150017	62.9207331150028	"5"	40721.309791593	40713.678617171	1.5	0.1
0.01	1	0.00204833000316285	1	116	NA	74.6024685559969	0	0.44	1.11	1	63.1456633339985	63.1477116640017	"5"	40721.309791593	40713.678617171	1.5	0.1
0.01	1	0.00218262599810259	1	116	NA	74.6024685559969	0	0.44	1.11	1	63.3794437820034	63.3816264080015	"5"	40721.309791593	40713.678617171	1.5	0.1
0.01	1	0.00223749999713618	1	116	NA	74.6024685559969	0	0.44	1.11	1	63.613235236	63.6154727359972	"5"	40721.309791593	40713.678617171	1.5	0.1
0.01	1	0.00209315100073582	1	116	NA	74.6024685559969	0	0.44	1.11	1	63.8468073170006	63.8489004680014	"5"	40721.309791593	40713.678617171	1.5	0.1
0.01	1	0.00207166499603773	1	116	NA	74.6024685559969	0	0.44	1.11	1	64.0805818290028	64.0826534939988	"5"	40721.309791593	40713.678617171	1.5	0.1
0.01	1	0.00210391599830473	1	116	NA	74.6024685559969	0	0.44	1.11	1	64.3142924120039	64.3163963280022	"5"	40721.309791593	40713.678617171	1.5	0.1
0.01	1	0.00215703199501149	1	116	NA	74.6024685559969	0	0.44	1.11	1	64.5480297460017	64.5501867779967	"5"	40721.309791593	40713.678617171	1.5	0.1
0.01	1	0.00207860500086099	1	116	NA	74.6024685559969	0	0.44	1.11	1	64.7817455449986	64.7838241499994	"5"	40721.309791593	40713.678617171	1.5	0.1
0.01	1	0.105327245000808	1	116	NA	74.6024685559969	0	0.44	1.11	1	65.0155314779986	65.1208587229994	"5"	40721.309791593	40713.678617171	1.5	0.1
0.01	1	0.0366774619978969	1	116	NA	74.6024685559969	0	0.44	1.11	1	65.3493624480034	65.3860399100013	"5"	40721.309791593	40713.678617171	1.5	0.1
0.01	1	0.00222437200136483	1	116	NA	74.6024685559969	0	0.44	1.11	1	65.6165023430003	65.6187267150017	"5"	40721.309791593	40713.678617171	1.5	0.1
0.01	1	0.00208005700551439	1	116	NA	74.6024685559969	0	0.44	1.11	1	65.8504160669982	65.8524961240037	"5"	40721.309791593	40713.678617171	1.5	0.1
0.01	1	0.00204888599546393	1	116	NA	74.6024685559969	0	0.44	1.11	1	66.0840077800021	66.0860566659976	"5"	40721.309791593	40713.678617171	1.5	0.1
0.01	1	0.00435509899398312	1	116	NA	74.6024685559969	0	0.44	1.11	1	66.317744015003	66.322099113997	"5"	40721.309791593	40713.678617171	1.5	0.1
0.01	1	0.0414479920000304	1	116	NA	74.6024685559969	0	0.44	1.11	1	66.5513529000018	66.5928008920018	"5"	40721.309791593	40713.678617171	1.5	0.1
0.01	1	0.0474731489957776	1	116	NA	74.6024685559969	0	0.44	1.11	1	66.8185893230038	66.8660624719996	"5"	40721.309791593	40713.678617171	1.5	0.1
0.01	1	0.0267038579986547	1	116	NA	74.6024685559969	0	0.44	1.11	1	67.1023192749999	67.1290231329986	"5"	40721.309791593	40713.678617171	1.5	0.1
0.01	1	0.0400521889969241	1	116	NA	74.6024685559969	0	0.44	1.11	1	67.3527211850014	67.3927733739984	"5"	40721.309791593	40713.678617171	1.5	0.1
0.01	1	0.00214295100158779	1	116	NA	74.6024685559969	0	0.44	1.11	1	67.6198802700019	67.6220232210035	"5"	40721.309791593	40713.678617171	1.5	0.1
0.01	1	0.0598160110021126	1	116	NA	74.6024685559969	0	0.44	1.11	1	67.8536045829969	67.913420593999	"5"	40721.309791593	40713.678617171	1.5	0.1
0.01	1	0.0645158719999017	1	116	NA	74.6024685559969	0	0.44	1.11	1	68.137506619998	68.2020224919979	"5"	40721.309791593	40713.678617171	1.5	0.1
0.01	1	0.0666504710025038	1	116	NA	74.6024685559969	0	0.44	1.11	1	68.4379730049986	68.5046234760011	"5"	40721.309791593	40713.678617171	1.5	0.1
0.01	1	0.0239152629947057	1	116	NA	74.6024685559969	0	0.44	1.11	1	68.7383933660021	68.7623086289968	"5"	40721.309791593	40713.678617171	1.5	0.1
0.01	1	0.0771960380006931	1	116	NA	74.6024685559969	0	0.44	1.11	1	68.9888858539998	69.0660818920005	"5"	40721.309791593	40713.678617171	1.5	0.1
0.01	1	1.51144093200128	1	116	NA	74.6024685559969	0	0.44	1.11	1	69.2893448370014	70.8007857690027	"5"	40721.309791593	40713.678617171	1.5	0.1
0.01	1	0.0238121980000869	1	116	NA	74.6024685559969	0	0.44	1.11	1	71.0256677759971	71.0494799739972	"5"	40721.309791593	40713.678617171	1.5	0.1
0.01	1	0.0297023500024807	1	116	NA	74.6024685559969	0	0.44	1.11	1	71.276005699001	71.3057080490034	"5"	40721.309791593	40713.678617171	1.5	0.1
0.01	1	0.017560884996783	1	116	NA	74.6024685559969	0	0.44	1.11	1	71.543219940002	71.5607808249988	"5"	40721.309791593	40713.678617171	1.5	0.1
0.01	1	0.0553809240009286	1	116	NA	74.6024685559969	0	0.44	1.11	1	71.7935159679982	71.8488968919992	"5"	40721.309791593	40713.678617171	1.5	0.1
0.01	1	0.0836205259984126	1	116	NA	74.6024685559969	0	0.44	1.11	1	72.0773517679991	72.1609722939975	"5"	40721.309791593	40713.678617171	1.5	0.1
0.01	1	0.0874068760022055	1	116	NA	74.6024685559969	0	0.44	1.11	1	72.3946200840001	72.4820269600023	"5"	40721.309791593	40713.678617171	1.5	0.1
0.01	1	0.169289395998931	1	116	NA	74.6024685559969	0	0.44	1.11	1	72.7117488229997	72.8810382189986	"5"	40721.309791593	40713.678617171	1.5	0.1
0.01	1	0.449547559997882	1	116	NA	74.6024685559969	0	0.44	1.11	1	73.1124712279998	73.5620187879977	"5"	40721.309791593	40713.678617171	1.5	0.1
0.01	1	0.125110446999315	1	116	NA	74.6024685559969	0	0.44	1.11	1	73.7968710880014	73.9219815350007	"5"	40721.309791593	40713.678617171	1.5	0.1
0.01	1	0.453391214003204	2	116	NA	74.6024685559969	0	0.44	1.11	1	74.1475265749978	74.600917789001	"5"	40721.309791593	40713.678617171	1.5	0.1
0.01	1	0.812757433996012	1	118	NA	111.171345549999	0	0.48	1.59	1	76.6517325890018	77.4644900229978	"6"	40721.309791593	40713.678617171	1.5	0.1
0.01	1	0.00228877799963811	1	118	NA	111.171345549999	0	0.48	1.59	1	77.7035379360022	77.7058267140019	"6"	40721.309791593	40713.678617171	1.5	0.1
0.01	1	0.00207603099988773	1	118	NA	111.171345549999	0	0.48	1.59	1	77.9372562339995	77.9393322649994	"6"	40721.309791593	40713.678617171	1.5	0.1
0.01	1	0.0552883919954184	1	118	NA	111.171345549999	0	0.48	1.59	1	78.1710189590012	78.2263073509966	"6"	40721.309791593	40713.678617171	1.5	0.1
0.01	1	0.0737148530024569	1	118	NA	111.171345549999	0	0.48	1.59	1	78.4548138620012	78.5285287150036	"6"	40721.309791593	40713.678617171	1.5	0.1
0.01	1	0.110898193001049	1	118	NA	111.171345549999	0	0.48	1.59	1	78.7553133900001	78.8662115830011	"6"	40721.309791593	40713.678617171	1.5	0.1
0.01	1	0.183045600999321	1	118	NA	111.171345549999	0	0.48	1.59	1	79.0891814170027	79.272227018002	"6"	40721.309791593	40713.678617171	1.5	0.1
0.01	1	0.174237070001254	1	118	NA	111.171345549999	0	0.48	1.59	1	79.506518907001	79.6807559770023	"6"	40721.309791593	40713.678617171	1.5	0.1
0.01	1	0.133519953000359	1	118	NA	111.171345549999	0	0.48	1.59	1	79.907179009002	80.0406989620024	"6"	40721.309791593	40713.678617171	1.5	0.1
0.01	1	0.150145503001113	1	118	NA	111.171345549999	0	0.48	1.59	1	80.274454888	80.4246003910011	"6"	40721.309791593	40713.678617171	1.5	0.1
0.01	1	0.142174232998514	1	118	NA	111.171345549999	0	0.48	1.59	1	80.6584674719998	80.8006417049983	"6"	40721.309791593	40713.678617171	1.5	0.1
0.01	1	0.159572383003251	1	118	NA	111.171345549999	0	0.48	1.59	1	81.0259165399984	81.1854889230017	"6"	40721.309791593	40713.678617171	1.5	0.1
0.01	1	0.16773484100122	1	118	NA	111.171345549999	0	0.48	1.59	1	81.4097523759992	81.5774872170005	"6"	40721.309791593	40713.678617171	1.5	0.1
0.01	1	0.270522045000689	1	118	NA	111.171345549999	0	0.48	1.59	1	81.8104242120025	82.0809462570032	"6"	40721.309791593	40713.678617171	1.5	0.1
0.01	1	0.168908339001064	1	118	NA	111.171345549999	0	0.48	1.59	1	82.3113887139989	82.480297053	"6"	40721.309791593	40713.678617171	1.5	0.1
0.01	1	0.161238865999621	1	118	NA	111.171345549999	0	0.48	1.59	1	82.7121458570036	82.8733847230033	"6"	40721.309791593	40713.678617171	1.5	0.1
0.01	1	0.169184288002725	1	118	NA	111.171345549999	0	0.48	1.59	1	83.0959882539973	83.2651725420001	"6"	40721.309791593	40713.678617171	1.5	0.1
0.01	1	0.169251679995796	1	118	NA	111.171345549999	0	0.48	1.59	1	83.4967134160033	83.6659650959991	"6"	40721.309791593	40713.678617171	1.5	0.1
0.01	1	0.160945921001257	1	118	NA	111.171345549999	0	0.48	1.59	1	83.8973320700024	84.0582779910037	"6"	40721.309791593	40713.678617171	1.5	0.1
0.01	1	0.144089797999186	1	118	NA	111.171345549999	0	0.48	1.59	1	84.2811939140011	84.4252837120002	"6"	40721.309791593	40713.678617171	1.5	0.1
0.01	1	0.145250232999388	1	118	NA	111.171345549999	0	0.48	1.59	1	84.6486619350035	84.7939121680029	"6"	40721.309791593	40713.678617171	1.5	0.1
0.01	1	0.202218676000484	1	118	NA	111.171345549999	0	0.48	1.59	1	85.0157961590012	85.2180148350017	"6"	40721.309791593	40713.678617171	1.5	0.1
0.01	1	0.174430585000664	1	118	NA	111.171345549999	0	0.48	1.59	1	85.4498616130004	85.6242921980011	"6"	40721.309791593	40713.678617171	1.5	0.1
0.01	1	0.185504904999107	1	118	NA	111.171345549999	0	0.48	1.59	1	85.8506019519991	86.0361068569982	"6"	40721.309791593	40713.678617171	1.5	0.1
0.01	1	0.197674532006204	1	118	NA	111.171345549999	0	0.48	1.59	1	86.2679204149972	86.4655949470034	"6"	40721.309791593	40713.678617171	1.5	0.1
0.01	1	0.188115964003373	1	118	NA	111.171345549999	0	0.48	1.59	1	86.7019803479998	86.8900963120032	"6"	40721.309791593	40713.678617171	1.5	0.1
0.01	1	0.170650831001694	1	118	NA	111.171345549999	0	0.48	1.59	1	87.1193657440017	87.2900165750034	"6"	40721.309791593	40713.678617171	1.5	0.1
0.01	1	0.169844639000075	1	118	NA	111.171345549999	0	0.48	1.59	1	87.5200076609981	87.6898522999982	"6"	40721.309791593	40713.678617171	1.5	0.1
0.01	1	0.183883177000098	1	118	NA	111.171345549999	0	0.48	1.59	1	87.9208839760031	88.1047671530032	"6"	40721.309791593	40713.678617171	1.5	0.1
0.01	1	0.198846037004841	1	118	NA	111.171345549999	0	0.48	1.59	1	88.3380766909977	88.5369227280025	"6"	40721.309791593	40713.678617171	1.5	0.1
0.01	1	0.213294496999879	1	118	NA	111.171345549999	0	0.48	1.59	1	88.7721113180014	88.9854058150013	"6"	40721.309791593	40713.678617171	1.5	0.1
0.01	1	0.170195493999927	1	118	NA	111.171345549999	0	0.48	1.59	1	89.2229026179994	89.3930981119993	"6"	40721.309791593	40713.678617171	1.5	0.1
0.01	1	0.234517614997458	1	118	NA	111.171345549999	0	0.48	1.59	1	89.6235964450025	89.8581140599999	"6"	40721.309791593	40713.678617171	1.5	0.1
0.01	1	0.182271541001683	1	118	NA	111.171345549999	0	0.48	1.59	1	90.0910302150005	90.2733017560022	"6"	40721.309791593	40713.678617171	1.5	0.1
0.01	1	0.245802954996179	1	118	NA	111.171345549999	0	0.48	1.59	1	90.5084133060009	90.7542162609971	"6"	40721.309791593	40713.678617171	1.5	0.1
0.01	1	0.209473420996801	1	118	NA	111.171345549999	0	0.48	1.59	1	90.9757697250025	91.1852431459993	"6"	40721.309791593	40713.678617171	1.5	0.1
0.01	1	0.319450473005418	1	118	NA	111.171345549999	0	0.48	1.59	1	91.4099383619978	91.7293888350032	"6"	40721.309791593	40713.678617171	1.5	0.1
0.01	1	11.7593336159989	1	118	NA	111.171345549999	0	0.48	1.59	1	91.9609154299978	103.720249045997	"6"	40721.309791593	40713.678617171	1.5	0.1
0.01	1	0.278281516002608	1	118	NA	111.171345549999	0	0.48	1.59	1	103.947623959997	104.225905476	"6"	40721.309791593	40713.678617171	1.5	0.1
0.01	1	0.32956631599518	1	118	NA	111.171345549999	0	0.48	1.59	1	104.465260944002	104.794827259997	"6"	40721.309791593	40713.678617171	1.5	0.1
0.01	1	0.393806975996995	1	118	NA	111.171345549999	0	0.48	1.59	1	105.016098795	105.409905770997	"6"	40721.309791593	40713.678617171	1.5	0.1
0.01	1	0.559927567999694	1	118	NA	111.171345549999	0	0.48	1.59	1	105.633892464	106.193820032	"6"	40721.309791593	40713.678617171	1.5	0.1
0.01	1	0.239478524999868	1	118	NA	111.171345549999	0	0.48	1.59	1	106.418523685003	106.658002210002	"6"	40721.309791593	40713.678617171	1.5	0.1
0.01	1	1.18859110400081	1	118	NA	111.171345549999	0	0.48	1.59	1	106.885938175001	108.074529279002	"6"	40721.309791593	40713.678617171	1.5	0.1
0.01	1	0.288772195999627	1	118	NA	111.171345549999	0	0.48	1.59	1	108.305049289003	108.593821485003	"6"	40721.309791593	40713.678617171	1.5	0.1
0.01	1	0.291603896999732	1	118	NA	111.171345549999	0	0.48	1.59	1	108.822590668002	109.114194565002	"6"	40721.309791593	40713.678617171	1.5	0.1
0.01	1	0.324282196997956	1	118	NA	111.171345549999	0	0.48	1.59	1	109.340045258003	109.664327455001	"6"	40721.309791593	40713.678617171	1.5	0.1
0.01	1	0.310790100003942	1	118	NA	111.171345549999	0	0.48	1.59	1	109.890982268	110.201772368004	"6"	40721.309791593	40713.678617171	1.5	0.1
0.01	1	0.744582177998382	2	118	NA	111.171345549999	0	0.48	1.59	1	110.42520849	111.169790667998	"6"	40721.309791593	40713.678617171	1.5	0.1
0.01	1	2.26670158799971	1	87	NA	138.394616703001	0	0.5	2.09	1	113.230110336997	115.496811924997	"7"	40721.309791593	40713.678617171	1.5	0.1
0.01	1	0.162598148999678	1	87	NA	138.394616703001	0	0.5	2.09	1	115.734217789999	115.896815938999	"7"	40721.309791593	40713.678617171	1.5	0.1
0.01	1	0.145931276005285	1	87	NA	138.394616703001	0	0.5	2.09	1	116.134879607998	116.280810884004	"7"	40721.309791593	40713.678617171	1.5	0.1
0.01	1	0.155156023000018	1	87	NA	138.394616703001	0	0.5	2.09	1	116.502153246998	116.657309269998	"7"	40721.309791593	40713.678617171	1.5	0.1
0.01	1	0.187038948002737	1	87	NA	138.394616703001	0	0.5	2.09	1	116.886046849999	117.073085798002	"7"	40721.309791593	40713.678617171	1.5	0.1
0.01	1	0.160883190001186	1	87	NA	138.394616703001	0	0.5	2.09	1	117.303524142	117.464407332001	"7"	40721.309791593	40713.678617171	1.5	0.1
0.01	1	0.233659671001078	1	87	NA	138.394616703001	0	0.5	2.09	1	117.687474894999	117.921134566001	"7"	40721.309791593	40713.678617171	1.5	0.1
0.01	1	0.166870745997585	1	87	NA	138.394616703001	0	0.5	2.09	1	118.154951645003	118.321822391001	"7"	40721.309791593	40713.678617171	1.5	0.1
0.01	1	0.254482987998927	1	87	NA	138.394616703001	0	0.5	2.09	1	118.555689180001	118.810172168	"7"	40721.309791593	40713.678617171	1.5	0.1
0.01	1	0.248645717001637	1	87	NA	138.394616703001	0	0.5	2.09	1	119.039722745998	119.288368463	"7"	40721.309791593	40713.678617171	1.5	0.1
0.01	1	0.742187183997885	1	87	NA	138.394616703001	0	0.5	2.09	1	119.523922974004	120.266110158002	"7"	40721.309791593	40713.678617171	1.5	0.1
0.01	1	0.237085011998715	1	87	NA	138.394616703001	0	0.5	2.09	1	120.492166757002	120.729251769	"7"	40721.309791593	40713.678617171	1.5	0.1
0.01	1	0.176745162003499	1	87	NA	138.394616703001	0	0.5	2.09	1	120.959741127997	121.136486290001	"7"	40721.309791593	40713.678617171	1.5	0.1
0.01	1	0.201391558002797	1	87	NA	138.394616703001	0	0.5	2.09	1	121.360330017997	121.561721575999	"7"	40721.309791593	40713.678617171	1.5	0.1
0.01	1	0.18211952400452	1	87	NA	138.394616703001	0	0.5	2.09	1	121.794361934997	121.976481459002	"7"	40721.309791593	40713.678617171	1.5	0.1
0.01	1	0.188416336000955	1	87	NA	138.394616703001	0	0.5	2.09	1	122.211762829997	122.400179165998	"7"	40721.309791593	40713.678617171	1.5	0.1
0.01	1	0.212866317997396	1	87	NA	138.394616703001	0	0.5	2.09	1	122.629199827003	122.842066145	"7"	40721.309791593	40713.678617171	1.5	0.1
0.01	1	0.177794559996983	1	87	NA	138.394616703001	0	0.5	2.09	1	123.079924172001	123.257718731998	"7"	40721.309791593	40713.678617171	1.5	0.1
0.01	1	0.201065960995038	1	87	NA	138.394616703001	0	0.5	2.09	1	123.480558825002	123.681624785997	"7"	40721.309791593	40713.678617171	1.5	0.1
0.01	1	0.182355520002602	1	87	NA	138.394616703001	0	0.5	2.09	1	123.914678898	124.097034418002	"7"	40721.309791593	40713.678617171	1.5	0.1
0.01	1	0.494024352999986	1	87	NA	138.394616703001	0	0.5	2.09	1	124.332099665	124.826124018	"7"	40721.309791593	40713.678617171	1.5	0.1
0.01	1	0.18256191600085	1	87	NA	138.394616703001	0	0.5	2.09	1	125.049811379999	125.232373295999	"7"	40721.309791593	40713.678617171	1.5	0.1
0.01	1	0.158359396002197	1	87	NA	138.394616703001	0	0.5	2.09	1	125.467219111997	125.625578507999	"7"	40721.309791593	40713.678617171	1.5	0.1
0.01	1	0.174465482996311	1	87	NA	138.394616703001	0	0.5	2.09	1	125.851188218003	126.025653700999	"7"	40721.309791593	40713.678617171	1.5	0.1
0.01	1	0.157480349000252	1	87	NA	138.394616703001	0	0.5	2.09	1	126.251878155999	126.409358505	"7"	40721.309791593	40713.678617171	1.5	0.1
0.01	1	0.189786319002451	1	87	NA	138.394616703001	0	0.5	2.09	1	126.635862837997	126.825649156999	"7"	40721.309791593	40713.678617171	1.5	0.1
0.01	1	0.172980294999434	1	87	NA	138.394616703001	0	0.5	2.09	1	127.053164839002	127.226145134002	"7"	40721.309791593	40713.678617171	1.5	0.1
0.01	1	0.212396066002839	1	87	NA	138.394616703001	0	0.5	2.09	1	127.453903155998	127.666299222001	"7"	40721.309791593	40713.678617171	1.5	0.1
0.01	1	0.215952503000153	1	87	NA	138.394616703001	0	0.5	2.09	1	127.904603584997	128.120556087997	"7"	40721.309791593	40713.678617171	1.5	0.1
0.01	1	0.198049591999734	1	87	NA	138.394616703001	0	0.5	2.09	1	128.355363069997	128.553412661997	"7"	40721.309791593	40713.678617171	1.5	0.1
0.01	1	0.563479964999715	1	87	NA	138.394616703001	0	0.5	2.09	1	128.789546597	129.353026561999	"7"	40721.309791593	40713.678617171	1.5	0.1
0.01	1	0.179859557996679	1	87	NA	138.394616703001	0	0.5	2.09	1	129.590869845	129.770729402997	"7"	40721.309791593	40713.678617171	1.5	0.1
0.01	1	0.184414227995148	1	87	NA	138.394616703001	0	0.5	2.09	1	130.008352135002	130.192766362998	"7"	40721.309791593	40713.678617171	1.5	0.1
0.01	1	0.167697333003161	1	87	NA	138.394616703001	0	0.5	2.09	1	130.425570323998	130.593267657001	"7"	40721.309791593	40713.678617171	1.5	0.1
0.01	1	0.183160156993836	1	87	NA	138.394616703001	0	0.5	2.09	1	130.826188967003	131.009349123997	"7"	40721.309791593	40713.678617171	1.5	0.1
0.01	1	0.134198219006066	1	87	NA	138.394616703001	0	0.5	2.09	1	131.243555253997	131.377753473003	"7"	40721.309791593	40713.678617171	1.5	0.1
0.01	1	0.149686624994501	1	87	NA	138.394616703001	0	0.5	2.09	1	131.610853885002	131.760540509997	"7"	40721.309791593	40713.678617171	1.5	0.1
0.01	1	0.158539176998602	1	87	NA	138.394616703001	0	0.5	2.09	1	131.994877666002	132.153416843001	"7"	40721.309791593	40713.678617171	1.5	0.1
0.01	1	0.228039441004512	1	87	NA	138.394616703001	0	0.5	2.09	1	132.378969801997	132.607009243002	"7"	40721.309791593	40713.678617171	1.5	0.1
0.01	1	0.156430310002179	1	87	NA	138.394616703001	0	0.5	2.09	1	132.829668252001	132.986098562003	"7"	40721.309791593	40713.678617171	1.5	0.1
0.01	1	0.620751178998034	1	87	NA	138.394616703001	0	0.5	2.09	1	133.213732106	133.834483284998	"7"	40721.309791593	40713.678617171	1.5	0.1
0.01	1	0.177074988998356	1	87	NA	138.394616703001	0	0.5	2.09	1	134.065009101003	134.242084090001	"7"	40721.309791593	40713.678617171	1.5	0.1
0.01	1	0.151441155998327	1	87	NA	138.394616703001	0	0.5	2.09	1	134.465659314003	134.617100470001	"7"	40721.309791593	40713.678617171	1.5	0.1
0.01	1	0.167500616997131	1	87	NA	138.394616703001	0	0.5	2.09	1	134.849622758004	135.017123375001	"7"	40721.309791593	40713.678617171	1.5	0.1
0.01	1	0.159144286997616	1	87	NA	138.394616703001	0	0.5	2.09	1	135.250369415	135.409513701998	"7"	40721.309791593	40713.678617171	1.5	0.1
0.01	1	0.18284279499494	1	87	NA	138.394616703001	0	0.5	2.09	1	135.634343151003	135.817185945998	"7"	40721.309791593	40713.678617171	1.5	0.1
0.01	1	0.190044246002799	1	87	NA	138.394616703001	0	0.5	2.09	1	136.051654438998	136.241698685	"7"	40721.309791593	40713.678617171	1.5	0.1
0.01	1	0.20397239200247	1	87	NA	138.394616703001	0	0.5	2.09	1	136.469024785998	136.672997178001	"7"	40721.309791593	40713.678617171	1.5	0.1
0.01	1	0.218571217999852	1	87	NA	138.394616703001	0	0.5	2.09	1	136.903225595001	137.121796813	"7"	40721.309791593	40713.678617171	1.5	0.1
0.01	1	0.241260308001074	1	87	NA	138.394616703001	0	0.5	2.09	1	137.353873164	137.595133472001	"7"	40721.309791593	40713.678617171	1.5	0.1
0.01	1	0.571581221003726	2	87	NA	138.394616703001	0	0.5	2.09	1	137.82148549	138.393066711003	"7"	40721.309791593	40713.678617171	1.5	0.1
0.01	1	0.74436210100248	1	6	143.181881242002	NA	1	0	2.09	1	140.425707080998	141.170069182001	"8"	40721.309791593	40713.678617171	1.5	0.1
0.01	1	0.134174086997518	1	6	143.181881242002	NA	1	0	2.09	1	141.410771978	141.544946064998	"8"	40721.309791593	40713.678617171	1.5	0.1
0.01	1	0.175831799999287	1	6	143.181881242002	NA	1	0	2.09	1	141.778039662	141.953871461999	"8"	40721.309791593	40713.678617171	1.5	0.1
0.01	1	0.157532347002416	1	6	143.181881242002	NA	1	0	2.09	1	142.178682489	142.336214836003	"8"	40721.309791593	40713.678617171	1.5	0.1
0.01	1	0.158835549998912	1	6	143.181881242002	NA	1	0	2.09	1	142.562698467998	142.721534017997	"8"	40721.309791593	40713.678617171	1.5	0.1
0.01	1	0.118404486995132	1	6	143.181881242002	NA	1	0	2.09	1	142.946607960002	143.065012446998	"8"	40721.309791593	40713.678617171	1.5	0.1
0.01	1	0.310704060000717	1	106	NA	167.019666761997	0	0.51	2.6	1	145.233901334999	145.544605395	"9"	40721.309791593	40713.678617171	1.5	0.1
0.01	1	0.19272702899616	1	106	NA	167.019666761997	0	0.51	2.6	1	145.784716364004	145.977443393	"9"	40721.309791593	40713.678617171	1.5	0.1
0.01	1	0.158631213002081	1	106	NA	167.019666761997	0	0.51	2.6	1	146.202087291997	146.360718504999	"9"	40721.309791593	40713.678617171	1.5	0.1
0.01	1	0.119609331995889	1	106	NA	167.019666761997	0	0.51	2.6	1	146.586172442003	146.705781773999	"9"	40721.309791593	40713.678617171	1.5	0.1
0.01	1	0.128268975000537	1	106	NA	167.019666761997	0	0.51	2.6	1	146.936784454003	147.065053429003	"9"	40721.309791593	40713.678617171	1.5	0.1
0.01	1	0.12957406899659	1	106	NA	167.019666761997	0	0.51	2.6	1	147.287338237002	147.416912305998	"9"	40721.309791593	40713.678617171	1.5	0.1
0.01	1	0.0986138810039847	1	106	NA	167.019666761997	0	0.51	2.6	1	147.654516333998	147.753130215002	"9"	40721.309791593	40713.678617171	1.5	0.1
0.01	1	0.124931919002847	1	106	NA	167.019666761997	0	0.51	2.6	1	147.988630075	148.113561994003	"9"	40721.309791593	40713.678617171	1.5	0.1
0.01	1	0.142543797002872	1	106	NA	167.019666761997	0	0.51	2.6	1	148.339052251999	148.481596049001	"9"	40721.309791593	40713.678617171	1.5	0.1
0.01	1	0.151266126995324	1	106	NA	167.019666761997	0	0.51	2.6	1	148.706455471001	148.857721597997	"9"	40721.309791593	40713.678617171	1.5	0.1
0.01	1	0.367693726999278	1	106	NA	167.019666761997	0	0.51	2.6	1	149.090370534999	149.458064261999	"9"	40721.309791593	40713.678617171	1.5	0.1
0.01	1	0.150127296998107	1	106	NA	167.019666761997	0	0.51	2.6	1	149.691254937999	149.841382234998	"9"	40721.309791593	40713.678617171	1.5	0.1
0.01	1	0.150282873000833	1	106	NA	167.019666761997	0	0.51	2.6	1	150.075329792002	150.225612665003	"9"	40721.309791593	40713.678617171	1.5	0.1
0.01	1	0.126914525993925	1	106	NA	167.019666761997	0	0.51	2.6	1	150.459261966003	150.586176491997	"9"	40721.309791593	40713.678617171	1.5	0.1
0.01	1	0.143793774004735	1	106	NA	167.019666761997	0	0.51	2.6	1	150.809817597998	150.953611372002	"9"	40721.309791593	40713.678617171	1.5	0.1
0.01	1	0.135754205999547	1	106	NA	167.019666761997	0	0.51	2.6	1	151.177217429999	151.312971635998	"9"	40721.309791593	40713.678617171	1.5	0.1
0.01	1	0.0808890400003293	1	106	NA	167.019666761997	0	0.51	2.6	1	151.544489635002	151.625378675002	"9"	40721.309791593	40713.678617171	1.5	0.1
0.01	1	0.132310521999898	1	106	NA	167.019666761997	0	0.51	2.6	1	151.861671480001	151.993982002001	"9"	40721.309791593	40713.678617171	1.5	0.1
0.01	1	0.123909816997184	1	106	NA	167.019666761997	0	0.51	2.6	1	152.228892350002	152.352802166999	"9"	40721.309791593	40713.678617171	1.5	0.1
0.01	1	0.133358360995771	1	106	NA	167.019666761997	0	0.51	2.6	1	152.579439997004	152.712798357999	"9"	40721.309791593	40713.678617171	1.5	0.1
0.01	1	0.398138623000705	1	106	NA	167.019666761997	0	0.51	2.6	1	152.946834128001	153.344972751001	"9"	40721.309791593	40713.678617171	1.5	0.1
0.01	1	0.134617175004678	1	106	NA	167.019666761997	0	0.51	2.6	1	153.581145388998	153.715762564003	"9"	40721.309791593	40713.678617171	1.5	0.1
0.01	1	0.109718671003066	1	106	NA	167.019666761997	0	0.51	2.6	1	153.948491026	154.058209697003	"9"	40721.309791593	40713.678617171	1.5	0.1
0.01	1	0.159604690998094	1	106	NA	167.019666761997	0	0.51	2.6	1	154.282508520999	154.442113211997	"9"	40721.309791593	40713.678617171	1.5	0.1
0.01	1	0.16622707300121	1	106	NA	167.019666761997	0	0.51	2.6	1	154.666390382001	154.832617455002	"9"	40721.309791593	40713.678617171	1.5	0.1
0.01	1	0.247254945003078	1	106	NA	167.019666761997	0	0.51	2.6	1	155.067134174999	155.314389120002	"9"	40721.309791593	40713.678617171	1.5	0.1
0.01	1	0.249459994003701	1	106	NA	167.019666761997	0	0.51	2.6	1	155.551263863999	155.800723858003	"9"	40721.309791593	40713.678617171	1.5	0.1
0.01	1	0.214362664999499	1	106	NA	167.019666761997	0	0.51	2.6	1	156.035362859999	156.249725524998	"9"	40721.309791593	40713.678617171	1.5	0.1
0.01	1	0.259103577998758	1	106	NA	167.019666761997	0	0.51	2.6	1	156.486071963998	156.745175541997	"9"	40721.309791593	40713.678617171	1.5	0.1
0.01	1	0.174735553999199	1	106	NA	167.019666761997	0	0.51	2.6	1	156.970265520002	157.145001074001	"9"	40721.309791593	40713.678617171	1.5	0.1
0.01	1	0.55129404499894	1	106	NA	167.019666761997	0	0.51	2.6	1	157.370886627003	157.922180672002	"9"	40721.309791593	40713.678617171	1.5	0.1
0.01	1	0.150486436999927	1	106	NA	167.019666761997	0	0.51	2.6	1	158.155465087999	158.305951524999	"9"	40721.309791593	40713.678617171	1.5	0.1
0.01	1	0.129169580999587	1	106	NA	167.019666761997	0	0.51	2.6	1	158.539578042997	158.668747623997	"9"	40721.309791593	40713.678617171	1.5	0.1
0.01	1	0.117744033996132	1	106	NA	167.019666761997	0	0.51	2.6	1	158.906842661003	159.024586694999	"9"	40721.309791593	40713.678617171	1.5	0.1
0.01	1	0.15205825400335	1	106	NA	167.019666761997	0	0.51	2.6	1	159.257512431999	159.409570686003	"9"	40721.309791593	40713.678617171	1.5	0.1
0.01	1	0.143362985996646	1	106	NA	167.019666761997	0	0.51	2.6	1	159.641344923002	159.784707908999	"9"	40721.309791593	40713.678617171	1.5	0.1
0.01	1	0.0374467419969733	1	106	NA	167.019666761997	0	0.51	2.6	1	160.125686680003	160.163133422	"9"	40721.309791593	40713.678617171	1.5	0.1
0.01	1	0.144968493994384	1	106	NA	167.019666761997	0	0.51	2.6	1	160.392654729003	160.537623222997	"9"	40721.309791593	40713.678617171	1.5	0.1
0.01	1	0.240337760995317	1	106	NA	167.019666761997	0	0.51	2.6	1	160.759896868003	161.000234628998	"9"	40721.309791593	40713.678617171	1.5	0.1
0.01	1	0.150245447999623	1	106	NA	167.019666761997	0	0.51	2.6	1	161.227362391997	161.377607839997	"9"	40721.309791593	40713.678617171	1.5	0.1
0.01	1	0.437161128000298	1	106	NA	167.019666761997	0	0.51	2.6	1	161.611368181999	162.048529309999	"9"	40721.309791593	40713.678617171	1.5	0.1
0.01	1	0.28941280899744	1	106	NA	167.019666761997	0	0.51	2.6	1	162.279177069002	162.568589877999	"9"	40721.309791593	40713.678617171	1.5	0.1
0.01	1	0.165157971998269	1	106	NA	167.019666761997	0	0.51	2.6	1	162.796749128	162.961907099998	"9"	40721.309791593	40713.678617171	1.5	0.1
0.01	1	0.101105166002526	1	106	NA	167.019666761997	0	0.51	2.6	1	163.197441771001	163.298546937003	"9"	40721.309791593	40713.678617171	1.5	0.1
0.01	1	0.110041357998853	1	106	NA	167.019666761997	0	0.51	2.6	1	163.531282358999	163.641323716998	"9"	40721.309791593	40713.678617171	1.5	0.1
0.01	1	0.159743182994134	1	106	NA	167.019666761997	0	0.51	2.6	1	163.865165025003	164.024908207997	"9"	40721.309791593	40713.678617171	1.5	0.1
0.01	1	0.128386589996808	1	106	NA	167.019666761997	0	0.51	2.6	1	164.249211519003	164.377598109	"9"	40721.309791593	40713.678617171	1.5	0.1
0.01	1	0.160879283997929	1	106	NA	167.019666761997	0	0.51	2.6	1	164.616445305001	164.777324588998	"9"	40721.309791593	40713.678617171	1.5	0.1
0.01	1	0.169205127000168	1	106	NA	167.019666761997	0	0.51	2.6	1	165.000554650003	165.169759777003	"9"	40721.309791593	40713.678617171	1.5	0.1
0.01	1	0.215633738000179	1	106	NA	167.019666761997	0	0.51	2.6	1	165.401174407001	165.616808145001	"9"	40721.309791593	40713.678617171	1.5	0.1
0.01	1	0.596383645999595	1	106	NA	167.019666761997	0	0.51	2.6	1	165.851882597999	166.448266243999	"9"	40721.309791593	40713.678617171	1.5	0.1
0.01	1	0.348136676002468	2	106	NA	167.019666761997	0	0.51	2.6	1	166.669844532	167.017981208002	"9"	40721.309791593	40713.678617171	1.5	0.1
0.01	1	0.566542218002724	1	21	178.391167533999	NA	1	0	2.6	1	169.073942345	169.640484563002	"10"	40721.309791593	40713.678617171	1.5	0.1
0.01	1	0.166021416000149	1	21	178.391167533999	NA	1	0	2.6	1	169.875236897999	170.041258313999	"10"	40721.309791593	40713.678617171	1.5	0.1
0.01	1	0.126664286995947	1	21	178.391167533999	NA	1	0	2.6	1	170.275964902001	170.402629188997	"10"	40721.309791593	40713.678617171	1.5	0.1
0.01	1	0.118043989001308	1	21	178.391167533999	NA	1	0	2.6	1	170.626611767999	170.744655757	"10"	40721.309791593	40713.678617171	1.5	0.1
0.01	1	0.17641992100107	1	21	178.391167533999	NA	1	0	2.6	1	170.977124361998	171.153544282999	"10"	40721.309791593	40713.678617171	1.5	0.1
0.01	1	0.127421106000838	1	21	178.391167533999	NA	1	0	2.6	1	171.377835667998	171.505256773999	"10"	40721.309791593	40713.678617171	1.5	0.1
0.01	1	0.167844566996791	1	21	178.391167533999	NA	1	0	2.6	1	171.728581565003	171.896426132	"10"	40721.309791593	40713.678617171	1.5	0.1
0.01	1	0.143587117003335	1	21	178.391167533999	NA	1	0	2.6	1	172.129124207997	172.272711325	"10"	40721.309791593	40713.678617171	1.5	0.1
0.01	1	0.177186594999512	1	21	178.391167533999	NA	1	0	2.6	1	172.49638081	172.673567405	"10"	40721.309791593	40713.678617171	1.5	0.1
0.01	1	0.142810555000324	1	21	178.391167533999	NA	1	0	2.6	1	172.913733002999	173.056543557999	"10"	40721.309791593	40713.678617171	1.5	0.1
0.01	1	0.576136910000059	1	21	178.391167533999	NA	1	0	2.6	1	173.280979595002	173.857116505002	"10"	40721.309791593	40713.678617171	1.5	0.1
0.01	1	0.14221192200057	1	21	178.391167533999	NA	1	0	2.6	1	174.082449786998	174.224661708999	"10"	40721.309791593	40713.678617171	1.5	0.1
0.01	1	0.158790836998378	1	21	178.391167533999	NA	1	0	2.6	1	174.449599090003	174.608389927002	"10"	40721.309791593	40713.678617171	1.5	0.1
0.01	1	0.174726798999473	1	21	178.391167533999	NA	1	0	2.6	1	174.833688646002	175.008415445001	"10"	40721.309791593	40713.678617171	1.5	0.1
0.01	1	0.143805173000146	1	21	178.391167533999	NA	1	0	2.6	1	175.234322982004	175.378128155004	"10"	40721.309791593	40713.678617171	1.5	0.1
0.01	1	0.17636059900542	1	21	178.391167533999	NA	1	0	2.6	1	175.601542837998	175.777903437003	"10"	40721.309791593	40713.678617171	1.5	0.1
0.01	1	0.198929998994572	1	21	178.391167533999	NA	1	0	2.6	1	176.019012695004	176.217942693998	"10"	40721.309791593	40713.678617171	1.5	0.1
0.01	1	0.156164830004855	1	21	178.391167533999	NA	1	0	2.6	1	176.453053591998	176.609218422003	"10"	40721.309791593	40713.678617171	1.5	0.1
0.01	1	0.204301912999654	1	21	178.391167533999	NA	1	0	2.6	1	176.836928564	177.041230477	"10"	40721.309791593	40713.678617171	1.5	0.1
0.01	1	0.14591772499989	1	21	178.391167533999	NA	1	0	2.6	1	177.271121837999	177.417039562999	"10"	40721.309791593	40713.678617171	1.5	0.1
0.01	1	0.642974909998884	1	21	178.391167533999	NA	1	0	2.6	1	177.638319603	178.281294512999	"10"	40721.309791593	40713.678617171	1.5	0.1
0.01	1	0.414744377994793	1	19	191.080569065001	NA	1	0	2.6	1	180.443060602003	180.857804979998	"11"	40721.309791593	40713.678617171	1.5	0.1
0.01	1	0.178694449998147	1	19	191.080569065001	NA	1	0	2.6	1	181.094105545002	181.272799995	"11"	40721.309791593	40713.678617171	1.5	0.1
0.01	1	0.154533575005189	1	19	191.080569065001	NA	1	0	2.6	1	181.494870609997	181.649404185002	"11"	40721.309791593	40713.678617171	1.5	0.1
0.01	1	0.162714785001299	1	19	191.080569065001	NA	1	0	2.6	1	181.878802487001	182.041517272002	"11"	40721.309791593	40713.678617171	1.5	0.1
0.01	1	0.122098066996841	1	19	191.080569065001	NA	1	0	2.6	1	182.279423870001	182.401521936998	"11"	40721.309791593	40713.678617171	1.5	0.1
0.01	1	0.154854457003239	1	19	191.080569065001	NA	1	0	2.6	1	182.629991235	182.784845692004	"11"	40721.309791593	40713.678617171	1.5	0.1
0.01	1	0.178134423003939	1	19	191.080569065001	NA	1	0	2.6	1	183.014101597997	183.192236021001	"11"	40721.309791593	40713.678617171	1.5	0.1
0.01	1	0.154700352002692	1	19	191.080569065001	NA	1	0	2.6	1	183.414792584997	183.569492937	"11"	40721.309791593	40713.678617171	1.5	0.1
0.01	1	0.131061591004254	1	19	191.080569065001	NA	1	0	2.6	1	183.798678134997	183.929739726002	"11"	40721.309791593	40713.678617171	1.5	0.1
0.01	1	0.146727115999965	1	19	191.080569065001	NA	1	0	2.6	1	184.165938154001	184.312665270001	"11"	40721.309791593	40713.678617171	1.5	0.1
0.01	1	0.65909608900256	1	19	191.080569065001	NA	1	0	2.6	1	184.549984737001	185.209080826004	"11"	40721.309791593	40713.678617171	1.5	0.1
0.01	1	0.151540496997768	1	19	191.080569065001	NA	1	0	2.6	1	185.434711647002	185.586252143999	"11"	40721.309791593	40713.678617171	1.5	0.1
0.01	1	0.135399519000202	1	19	191.080569065001	NA	1	0	2.6	1	185.818841745	185.954241264	"11"	40721.309791593	40713.678617171	1.5	0.1
0.01	1	0.166901427000994	1	19	191.080569065001	NA	1	0	2.6	1	186.185970885002	186.352872312003	"11"	40721.309791593	40713.678617171	1.5	0.1
0.01	1	2.72555341700354	1	19	191.080569065001	NA	1	0	2.6	1	186.586689611999	189.312243029002	"11"	40721.309791593	40713.678617171	1.5	0.1
0.01	1	0.170726770003967	1	19	191.080569065001	NA	1	0	2.6	1	189.541810194998	189.712536965002	"11"	40721.309791593	40713.678617171	1.5	0.1
0.01	1	0.179243575003056	1	19	191.080569065001	NA	1	0	2.6	1	189.942363030001	190.121606605004	"11"	40721.309791593	40713.678617171	1.5	0.1
0.01	1	0.19347266699333	1	19	191.080569065001	NA	1	0	2.6	1	190.359847885004	190.553320551997	"11"	40721.309791593	40713.678617171	1.5	0.1
0.01	1	0.183158912994259	1	19	191.080569065001	NA	1	0	2.6	1	190.777068984004	190.960227896998	"11"	40721.309791593	40713.678617171	1.5	0.1
0.01	1	0.382416325999657	1	63	NA	217.418435578002	0	0.52	3.12	1	193.130965830002	193.513382156001	"12"	40721.309791593	40713.678617171	1.5	0.1
0.01	1	0.164576102004503	1	63	NA	217.418435578002	0	0.52	3.12	1	193.748673759997	193.913249862002	"12"	40721.309791593	40713.678617171	1.5	0.1
0.01	1	0.10095100900071	1	63	NA	217.418435578002	0	0.52	3.12	1	194.149350255	194.250301264001	"12"	40721.309791593	40713.678617171	1.5	0.1
0.01	1	0.110061772997142	1	63	NA	217.418435578002	0	0.52	3.12	1	194.483259375003	194.593321148001	"12"	40721.309791593	40713.678617171	1.5	0.1
0.01	1	0.168810349998239	1	63	NA	217.418435578002	0	0.52	3.12	1	194.81720379	194.986014139999	"12"	40721.309791593	40713.678617171	1.5	0.1
0.01	1	0.118906161995255	1	63	NA	217.418435578002	0	0.52	3.12	1	195.217971167003	195.336877328999	"12"	40721.309791593	40713.678617171	1.5	0.1
0.01	1	0.12799002200336	1	63	NA	217.418435578002	0	0.52	3.12	1	195.568508757999	195.696498780002	"12"	40721.309791593	40713.678617171	1.5	0.1
0.01	1	0.162581586999295	1	63	NA	217.418435578002	0	0.52	3.12	1	195.919094083998	196.081675670997	"12"	40721.309791593	40713.678617171	1.5	0.1
0.01	1	0.162502831000893	1	63	NA	217.418435578002	0	0.52	3.12	1	196.303039676997	196.465542507998	"12"	40721.309791593	40713.678617171	1.5	0.1
0.01	1	0.161290017997089	1	63	NA	217.418435578002	0	0.52	3.12	1	196.703719666002	196.865009683999	"12"	40721.309791593	40713.678617171	1.5	0.1
0.01	1	0.816849430993898	1	63	NA	217.418435578002	0	0.52	3.12	1	197.087748618003	197.904598048997	"12"	40721.309791593	40713.678617171	1.5	0.1
0.01	1	0.190695836994564	1	63	NA	217.418435578002	0	0.52	3.12	1	198.139379259002	198.330075095997	"12"	40721.309791593	40713.678617171	1.5	0.1
0.01	1	0.18091243699746	1	63	NA	217.418435578002	0	0.52	3.12	1	198.556822821003	198.737735258001	"12"	40721.309791593	40713.678617171	1.5	0.1
0.01	1	0.154874012994696	1	63	NA	217.418435578002	0	0.52	3.12	1	198.974159413003	199.129033425997	"12"	40721.309791593	40713.678617171	1.5	0.1
0.01	1	0.138634415001434	1	63	NA	217.418435578002	0	0.52	3.12	1	199.358190387997	199.496824802998	"12"	40721.309791593	40713.678617171	1.5	0.1
0.01	1	0.139999688995886	1	63	NA	217.418435578002	0	0.52	3.12	1	199.725439080001	199.865438768997	"12"	40721.309791593	40713.678617171	1.5	0.1
0.01	1	0.163712348999979	1	63	NA	217.418435578002	0	0.52	3.12	1	200.092775698999	200.256488047999	"12"	40721.309791593	40713.678617171	1.5	0.1
0.01	1	0.140129801002331	1	63	NA	217.418435578002	0	0.52	3.12	1	200.493461851001	200.633591652004	"12"	40721.309791593	40713.678617171	1.5	0.1
0.01	1	0.179567553997913	1	63	NA	217.418435578002	0	0.52	3.12	1	200.860719409	201.040286962998	"12"	40721.309791593	40713.678617171	1.5	0.1
0.01	1	0.150135443996987	1	63	NA	217.418435578002	0	0.52	3.12	1	201.261520195003	201.411655639	"12"	40721.309791593	40713.678617171	1.5	0.1
0.01	1	1.15496365400031	1	63	NA	217.418435578002	0	0.52	3.12	1	201.645359531998	202.800323185998	"12"	40721.309791593	40713.678617171	1.5	0.1
0.01	1	0.217464699999255	1	63	NA	217.418435578002	0	0.52	3.12	1	203.0309729	203.248437599999	"12"	40721.309791593	40713.678617171	1.5	0.1
0.01	1	0.177057515997149	1	63	NA	217.418435578002	0	0.52	3.12	1	203.481733485001	203.658791000998	"12"	40721.309791593	40713.678617171	1.5	0.1
0.01	1	0.167293373000575	1	63	NA	217.418435578002	0	0.52	3.12	1	203.882508925002	204.049802298003	"12"	40721.309791593	40713.678617171	1.5	0.1
0.01	1	0.157400250995124	1	63	NA	217.418435578002	0	0.52	3.12	1	204.283130237003	204.440530487998	"12"	40721.309791593	40713.678617171	1.5	0.1
0.01	1	0.153059222000593	1	63	NA	217.418435578002	0	0.52	3.12	1	204.667083350003	204.820142572004	"12"	40721.309791593	40713.678617171	1.5	0.1
0.01	1	0.190859566995641	1	63	NA	217.418435578002	0	0.52	3.12	1	205.051119727003	205.241979293998	"12"	40721.309791593	40713.678617171	1.5	0.1
0.01	1	0.125246444993536	1	63	NA	217.418435578002	0	0.52	3.12	1	205.468483907003	205.593730351997	"12"	40721.309791593	40713.678617171	1.5	0.1
0.01	1	0.173301882001397	1	63	NA	217.418435578002	0	0.52	3.12	1	205.819052266001	205.992354148002	"12"	40721.309791593	40713.678617171	1.5	0.1
0.01	1	0.125038277998101	1	63	NA	217.418435578002	0	0.52	3.12	1	206.219768930001	206.344807207999	"12"	40721.309791593	40713.678617171	1.5	0.1
0.01	1	1.4315539540039	1	63	NA	217.418435578002	0	0.52	3.12	1	206.570328283997	208.001882238001	"12"	40721.309791593	40713.678617171	1.5	0.1
0.01	1	0.185096562003309	1	63	NA	217.418435578002	0	0.52	3.12	1	208.23984468	208.424941242003	"12"	40721.309791593	40713.678617171	1.5	0.1
0.01	1	0.17645671700302	1	63	NA	217.418435578002	0	0.52	3.12	1	208.657127250997	208.833583968	"12"	40721.309791593	40713.678617171	1.5	0.1
0.01	1	0.192264889999933	1	63	NA	217.418435578002	0	0.52	3.12	1	209.057819982001	209.250084872001	"12"	40721.309791593	40713.678617171	1.5	0.1
0.01	1	0.173958944003971	1	63	NA	217.418435578002	0	0.52	3.12	1	209.475208447999	209.649167392003	"12"	40721.309791593	40713.678617171	1.5	0.1
0.01	1	0.16491599100118	1	63	NA	217.418435578002	0	0.52	3.12	1	209.875970631001	210.040886622002	"12"	40721.309791593	40713.678617171	1.5	0.1
0.01	1	0.172755845000211	1	63	NA	217.418435578002	0	0.52	3.12	1	210.276537090002	210.449292935002	"12"	40721.309791593	40713.678617171	1.5	0.1
0.01	1	0.132164320995798	1	63	NA	217.418435578002	0	0.52	3.12	1	210.677198534002	210.809362854998	"12"	40721.309791593	40713.678617171	1.5	0.1
0.01	1	0.140871867995884	1	63	NA	217.418435578002	0	0.52	3.12	1	211.044427975001	211.185299842997	"12"	40721.309791593	40713.678617171	1.5	0.1
0.01	1	0.174073729001975	1	63	NA	217.418435578002	0	0.52	3.12	1	211.411853878999	211.585927608001	"12"	40721.309791593	40713.678617171	1.5	0.1
0.01	1	0.539922283998749	1	63	NA	217.418435578002	0	0.52	3.12	1	211.812443832001	212.352366116	"12"	40721.309791593	40713.678617171	1.5	0.1
0.01	1	0.189777678002429	1	63	NA	217.418435578002	0	0.52	3.12	1	212.580422774001	212.770200452003	"12"	40721.309791593	40713.678617171	1.5	0.1
0.01	1	0.196664108996629	1	63	NA	217.418435578002	0	0.52	3.12	1	212.997757475001	213.194421583998	"12"	40721.309791593	40713.678617171	1.5	0.1
0.01	1	0.137837299000239	1	63	NA	217.418435578002	0	0.52	3.12	1	213.431847391999	213.569684691	"12"	40721.309791593	40713.678617171	1.5	0.1
0.01	1	0.105650956997124	1	63	NA	217.418435578002	0	0.52	3.12	1	213.799092915004	213.904743872001	"12"	40721.309791593	40713.678617171	1.5	0.1
0.01	1	0.179428706003819	1	63	NA	217.418435578002	0	0.52	3.12	1	214.133005256997	214.312433963001	"12"	40721.309791593	40713.678617171	1.5	0.1
0.01	1	0.131048039998859	1	63	NA	217.418435578002	0	0.52	3.12	1	214.550391482	214.681439521999	"12"	40721.309791593	40713.678617171	1.5	0.1
0.01	1	0.13969828900008	1	63	NA	217.418435578002	0	0.52	3.12	1	214.917801263997	215.057499552997	"12"	40721.309791593	40713.678617171	1.5	0.1
0.01	1	0.214107931999024	1	63	NA	217.418435578002	0	0.52	3.12	1	215.284990319	215.499098250999	"12"	40721.309791593	40713.678617171	1.5	0.1
0.01	1	0.209179614997993	1	63	NA	217.418435578002	0	0.52	3.12	1	215.735694976	215.944874590998	"12"	40721.309791593	40713.678617171	1.5	0.1
0.01	1	0.198913968000852	1	63	NA	217.418435578002	0	0.52	3.12	1	216.169797137001	216.368711105002	"12"	40721.309791593	40713.678617171	1.5	0.1
0.01	1	0.262452458999178	1	63	NA	217.418435578002	0	0.52	3.12	1	216.603883666001	216.866336125	"12"	40721.309791593	40713.678617171	1.5	0.1
0.01	1	0.328843593000784	2	63	NA	217.418435578002	0	0.52	3.12	1	217.088035822002	217.416879415003	"12"	40721.309791593	40713.678617171	1.5	0.1
0.01	1	0.374104118003743	1	54	243.785319579001	NA	1	0	3.12	1	219.475372294997	219.849476413001	"13"	40721.309791593	40713.678617171	1.5	0.1
0.01	1	0.18022733899852	1	54	243.785319579001	NA	1	0	3.12	1	220.076380218001	220.256607556999	"13"	40721.309791593	40713.678617171	1.5	0.1
0.01	1	0.147339554998325	1	54	243.785319579001	NA	1	0	3.12	1	220.493705715999	220.641045270997	"13"	40721.309791593	40713.678617171	1.5	0.1
0.01	1	0.138504113005183	1	54	243.785319579001	NA	1	0	3.12	1	220.877805894997	221.016310008003	"13"	40721.309791593	40713.678617171	1.5	0.1
0.01	1	0.180136078997748	1	54	243.785319579001	NA	1	0	3.12	1	221.245036195003	221.425172274001	"13"	40721.309791593	40713.678617171	1.5	0.1
0.01	1	0.194373447004182	1	54	243.785319579001	NA	1	0	3.12	1	221.662377638997	221.856751086001	"13"	40721.309791593	40713.678617171	1.5	0.1
0.01	1	0.146292559998983	1	54	243.785319579001	NA	1	0	3.12	1	222.079690555001	222.225983115	"13"	40721.309791593	40713.678617171	1.5	0.1
0.01	1	0.169196893002663	1	54	243.785319579001	NA	1	0	3.12	1	222.463653778999	222.632850672002	"13"	40721.309791593	40713.678617171	1.5	0.1
0.01	1	0.193495280000207	1	54	243.785319579001	NA	1	0	3.12	1	222.864491868	223.057987148	"13"	40721.309791593	40713.678617171	1.5	0.1
0.01	1	0.239218238995818	1	54	243.785319579001	NA	1	0	3.12	1	223.281777351003	223.520995589999	"13"	40721.309791593	40713.678617171	1.5	0.1
0.01	1	0.219652023995877	1	54	243.785319579001	NA	1	0	3.12	1	223.749189918002	223.968841941998	"13"	40721.309791593	40713.678617171	1.5	0.1
0.01	1	0.625717185997928	1	54	243.785319579001	NA	1	0	3.12	1	224.199929224	224.825646409998	"13"	40721.309791593	40713.678617171	1.5	0.1
0.01	1	0.261173382001289	1	54	243.785319579001	NA	1	0	3.12	1	225.051414684	225.312588066001	"13"	40721.309791593	40713.678617171	1.5	0.1
0.01	1	0.113703840994276	1	54	243.785319579001	NA	1	0	3.12	1	225.535549284003	225.649253124997	"13"	40721.309791593	40713.678617171	1.5	0.1
0.01	1	0.131375952005328	1	54	243.785319579001	NA	1	0	3.12	1	225.886140126997	226.017516079002	"13"	40721.309791593	40713.678617171	1.5	0.1
0.01	1	0.14825925599871	1	54	243.785319579001	NA	1	0	3.12	1	226.253365721001	226.401624976999	"13"	40721.309791593	40713.678617171	1.5	0.1
0.01	1	0.14056394599902	1	54	243.785319579001	NA	1	0	3.12	1	226.637467977998	226.778031923997	"13"	40721.309791593	40713.678617171	1.5	0.1
0.01	1	0.140404682002554	1	54	243.785319579001	NA	1	0	3.12	1	227.004700655001	227.145105337004	"13"	40721.309791593	40713.678617171	1.5	0.1
0.01	1	0.16533328499645	1	54	243.785319579001	NA	1	0	3.12	1	227.371929088004	227.537262373	"13"	40721.309791593	40713.678617171	1.5	0.1
0.01	1	0.1017758290036	1	54	243.785319579001	NA	1	0	3.12	1	227.772744057998	227.874519887002	"13"	40721.309791593	40713.678617171	1.5	0.1
0.01	1	0.175624438998057	1	54	243.785319579001	NA	1	0	3.12	1	228.106617195001	228.282241633999	"13"	40721.309791593	40713.678617171	1.5	0.1
0.01	1	0.69407150799816	1	54	243.785319579001	NA	1	0	3.12	1	228.507255504999	229.201327012997	"13"	40721.309791593	40713.678617171	1.5	0.1
0.01	1	0.177216121002857	1	54	243.785319579001	NA	1	0	3.12	1	229.425376371	229.602592492003	"13"	40721.309791593	40713.678617171	1.5	0.1
0.01	1	0.175404499001161	1	54	243.785319579001	NA	1	0	3.12	1	229.826181329998	230.001585828999	"13"	40721.309791593	40713.678617171	1.5	0.1
0.01	1	0.145187145993987	1	54	243.785319579001	NA	1	0	3.12	1	230.226710492003	230.371897637997	"13"	40721.309791593	40713.678617171	1.5	0.1
0.01	1	0.174847896996653	1	54	243.785319579001	NA	1	0	3.12	1	230.594016412004	230.768864309	"13"	40721.309791593	40713.678617171	1.5	0.1
0.01	1	0.150074718003452	1	54	243.785319579001	NA	1	0	3.12	1	230.994738096	231.144812814004	"13"	40721.309791593	40713.678617171	1.5	0.1
0.01	1	0.151500294996367	1	54	243.785319579001	NA	1	0	3.12	1	231.378714138002	231.530214432998	"13"	40721.309791593	40713.678617171	1.5	0.1
0.01	1	0.15800988200499	1	54	243.785319579001	NA	1	0	3.12	1	231.762731677998	231.920741560003	"13"	40721.309791593	40713.678617171	1.5	0.1
0.01	1	0.158611120998103	1	54	243.785319579001	NA	1	0	3.12	1	232.146629584	232.305240704998	"13"	40721.309791593	40713.678617171	1.5	0.1
0.01	1	0.15070313099568	1	54	243.785319579001	NA	1	0	3.12	1	232.530604646003	232.681307776998	"13"	40721.309791593	40713.678617171	1.5	0.1
0.01	1	0.951894819001609	1	54	243.785319579001	NA	1	0	3.12	1	232.914651277999	233.866546097001	"13"	40721.309791593	40713.678617171	1.5	0.1
0.01	1	0.16648502300086	1	54	243.785319579001	NA	1	0	3.12	1	234.099897585002	234.266382608002	"13"	40721.309791593	40713.678617171	1.5	0.1
0.01	1	0.188323719004984	1	54	243.785319579001	NA	1	0	3.12	1	234.500632386997	234.688956106002	"13"	40721.309791593	40713.678617171	1.5	0.1
0.01	1	0.179211121998378	1	54	243.785319579001	NA	1	0	3.12	1	234.918074863002	235.097285985001	"13"	40721.309791593	40713.678617171	1.5	0.1
0.01	1	0.163472558997455	1	54	243.785319579001	NA	1	0	3.12	1	235.335310048002	235.498782606999	"13"	40721.309791593	40713.678617171	1.5	0.1
0.01	1	0.137914028993691	1	54	243.785319579001	NA	1	0	3.12	1	235.736090568003	235.874004596997	"13"	40721.309791593	40713.678617171	1.5	0.1
0.01	1	0.178330040005676	1	54	243.785319579001	NA	1	0	3.12	1	236.103435523997	236.281765564003	"13"	40721.309791593	40713.678617171	1.5	0.1
0.01	1	0.169101916006184	1	54	243.785319579001	NA	1	0	3.12	1	236.504016118997	236.673118035003	"13"	40721.309791593	40713.678617171	1.5	0.1
0.01	1	0.145274948001315	1	54	243.785319579001	NA	1	0	3.12	1	236.904664091999	237.04993904	"13"	40721.309791593	40713.678617171	1.5	0.1
0.01	1	0.185034671994799	1	54	243.785319579001	NA	1	0	3.12	1	237.271996374002	237.457031045997	"13"	40721.309791593	40713.678617171	1.5	0.1
0.01	1	0.776125675001822	1	54	243.785319579001	NA	1	0	3.12	1	237.689364639002	238.465490314004	"13"	40721.309791593	40713.678617171	1.5	0.1
0.01	1	0.181712368001172	1	54	243.785319579001	NA	1	0	3.12	1	238.691031344999	238.872743713	"13"	40721.309791593	40713.678617171	1.5	0.1
0.01	1	0.148531526996521	1	54	243.785319579001	NA	1	0	3.12	1	239.108374035	239.256905561997	"13"	40721.309791593	40713.678617171	1.5	0.1
0.01	1	0.165785554003378	1	54	243.785319579001	NA	1	0	3.12	1	239.492342482998	239.658128037001	"13"	40721.309791593	40713.678617171	1.5	0.1
0.01	1	0.179596106005192	1	54	243.785319579001	NA	1	0	3.12	1	239.893068284997	240.072664391002	"13"	40721.309791593	40713.678617171	1.5	0.1
0.01	1	0.139216043993656	1	54	243.785319579001	NA	1	0	3.12	1	240.310349033003	240.449565076997	"13"	40721.309791593	40713.678617171	1.5	0.1
0.01	1	0.148300742999709	1	54	243.785319579001	NA	1	0	3.12	1	240.677705265	240.826006007999	"13"	40721.309791593	40713.678617171	1.5	0.1
0.01	1	0.188075352998567	1	54	243.785319579001	NA	1	0	3.12	1	241.061644062	241.249719414998	"13"	40721.309791593	40713.678617171	1.5	0.1
0.01	1	0.106349428999238	1	54	243.785319579001	NA	1	0	3.12	1	241.479043346	241.585392774999	"13"	40721.309791593	40713.678617171	1.5	0.1
0.01	1	0.18062712399842	1	54	243.785319579001	NA	1	0	3.12	1	241.812872303002	241.993499427001	"13"	40721.309791593	40713.678617171	1.5	0.1
0.01	1	0.699624575994676	1	54	243.785319579001	NA	1	0	3.12	1	242.230285912003	242.929910487997	"13"	40721.309791593	40713.678617171	1.5	0.1
0.01	1	0.124402497000119	1	54	243.785319579001	NA	1	0	3.12	1	243.165192307999	243.289594804999	"13"	40721.309791593	40713.678617171	1.5	0.1
0.01	1	0.157233955003903	1	54	243.785319579001	NA	1	0	3.12	1	243.516007339997	243.673241295	"13"	40721.309791593	40713.678617171	1.5	0.1
0.01	1	0.363952630003041	1	103	NA	267.098675567002	0	0.5	3.62	1	245.836380622	246.200333252003	"14"	40721.309791593	40713.678617171	1.5	0.1
0.01	1	0.124061156995595	1	103	NA	267.098675567002	0	0.5	3.62	1	246.437310047004	246.561371203999	"14"	40721.309791593	40713.678617171	1.5	0.1
0.01	1	0.133661755004141	1	103	NA	267.098675567002	0	0.5	3.62	1	246.787941358998	246.921603114002	"14"	40721.309791593	40713.678617171	1.5	0.1
0.01	1	0.0938261849951232	1	103	NA	267.098675567002	0	0.5	3.62	1	247.155248205003	247.249074389998	"14"	40721.309791593	40713.678617171	1.5	0.1
0.01	1	0.153497327002697	1	103	NA	267.098675567002	0	0.5	3.62	1	247.472379478	247.625876805003	"14"	40721.309791593	40713.678617171	1.5	0.1
0.01	1	0.144306316004077	1	103	NA	267.098675567002	0	0.5	3.62	1	247.856552393998	248.000858710002	"14"	40721.309791593	40713.678617171	1.5	0.1
0.01	1	0.116782173994579	1	103	NA	267.098675567002	0	0.5	3.62	1	248.223862582003	248.340644755997	"14"	40721.309791593	40713.678617171	1.5	0.1
0.01	1	0.131729624998115	1	103	NA	267.098675567002	0	0.5	3.62	1	248.574362412	248.706092036999	"14"	40721.309791593	40713.678617171	1.5	0.1
0.01	1	0.154836431996955	1	103	NA	267.098675567002	0	0.5	3.62	1	248.941645928004	249.096482360001	"14"	40721.309791593	40713.678617171	1.5	0.1
0.01	1	0.131350046001899	1	103	NA	267.098675567002	0	0.5	3.62	1	249.325539885001	249.456889931003	"14"	40721.309791593	40713.678617171	1.5	0.1
0.01	1	0.515862642001593	1	103	NA	267.098675567002	0	0.5	3.62	1	249.692808136999	250.208670779	"14"	40721.309791593	40713.678617171	1.5	0.1
0.01	1	0.165583587004221	1	103	NA	267.098675567002	0	0.5	3.62	1	250.444025887999	250.609609475003	"14"	40721.309791593	40713.678617171	1.5	0.1
0.01	1	0.124173771000642	1	103	NA	267.098675567002	0	0.5	3.62	1	250.844774279998	250.968948050999	"14"	40721.309791593	40713.678617171	1.5	0.1
0.01	1	0.148729216001811	1	103	NA	267.098675567002	0	0.5	3.62	1	251.195459775001	251.344188991003	"14"	40721.309791593	40713.678617171	1.5	0.1
0.01	1	0.134726648000651	1	103	NA	267.098675567002	0	0.5	3.62	1	251.579398836999	251.714125484999	"14"	40721.309791593	40713.678617171	1.5	0.1
0.01	1	0.133811322004476	1	103	NA	267.098675567002	0	0.5	3.62	1	251.946670612997	252.080481935001	"14"	40721.309791593	40713.678617171	1.5	0.1
0.01	1	0.159371253001154	1	103	NA	267.098675567002	0	0.5	3.62	1	252.313880296002	252.473251549003	"14"	40721.309791593	40713.678617171	1.5	0.1
0.01	1	0.142990179003391	1	103	NA	267.098675567002	0	0.5	3.62	1	252.697946868997	252.840937048	"14"	40721.309791593	40713.678617171	1.5	0.1
0.01	1	0.144139334995998	1	103	NA	267.098675567002	0	0.5	3.62	1	253.081883997002	253.226023331998	"14"	40721.309791593	40713.678617171	1.5	0.1
0.01	1	0.151800554995134	1	103	NA	267.098675567002	0	0.5	3.62	1	253.449149803004	253.600950357999	"14"	40721.309791593	40713.678617171	1.5	0.1
0.01	1	0.591686504994868	1	103	NA	267.098675567002	0	0.5	3.62	1	253.833156355002	254.424842859997	"14"	40721.309791593	40713.678617171	1.5	0.1
0.01	1	0.189569263995509	1	103	NA	267.098675567002	0	0.5	3.62	1	254.651272654002	254.840841917998	"14"	40721.309791593	40713.678617171	1.5	0.1
0.01	1	0.117975684996054	1	103	NA	267.098675567002	0	0.5	3.62	1	255.068508016004	255.186483701	"14"	40721.309791593	40713.678617171	1.5	0.1
0.01	1	0.200497395002458	1	103	NA	267.098675567002	0	0.5	3.62	1	255.419102129999	255.619599525002	"14"	40721.309791593	40713.678617171	1.5	0.1
0.01	1	0.140056404001371	1	103	NA	267.098675567002	0	0.5	3.62	1	255.853144501001	255.993200905003	"14"	40721.309791593	40713.678617171	1.5	0.1
0.01	1	0.156431787996553	1	103	NA	267.098675567002	0	0.5	3.62	1	256.220558927002	256.376990714998	"14"	40721.309791593	40713.678617171	1.5	0.1
0.01	1	0.148113092000131	1	103	NA	267.098675567002	0	0.5	3.62	1	256.604454196	256.752567288	"14"	40721.309791593	40713.678617171	1.5	0.1
0.01	1	0.165172553999582	1	103	NA	267.098675567002	0	0.5	3.62	1	256.988442326998	257.153614880997	"14"	40721.309791593	40713.678617171	1.5	0.1
0.01	1	0.140169526996033	1	103	NA	267.098675567002	0	0.5	3.62	1	257.389154356002	257.529323882998	"14"	40721.309791593	40713.678617171	1.5	0.1
0.01	1	0.229632370996114	1	103	NA	267.098675567002	0	0.5	3.62	1	257.756337974002	257.985970344998	"14"	40721.309791593	40713.678617171	1.5	0.1
0.01	1	0.538141368000652	1	103	NA	267.098675567002	0	0.5	3.62	1	258.223846795001	258.761988163002	"14"	40721.309791593	40713.678617171	1.5	0.1
0.01	1	0.1526145789976	1	103	NA	267.098675567002	0	0.5	3.62	1	258.991765707004	259.144380286001	"14"	40721.309791593	40713.678617171	1.5	0.1
0.01	1	0.137663312998484	1	103	NA	267.098675567002	0	0.5	3.62	1	259.375712474	259.513375786999	"14"	40721.309791593	40713.678617171	1.5	0.1
0.01	1	0.177700754000398	1	103	NA	267.098675567002	0	0.5	3.62	1	259.743064160997	259.920764914998	"14"	40721.309791593	40713.678617171	1.5	0.1
0.01	1	0.106354805997398	1	103	NA	267.098675567002	0	0.5	3.62	1	260.160513449002	260.266868254999	"14"	40721.309791593	40713.678617171	1.5	0.1
0.01	1	0.138689813000383	1	103	NA	267.098675567002	0	0.5	3.62	1	260.494275632002	260.632965445002	"14"	40721.309791593	40713.678617171	1.5	0.1
0.01	1	0.131139361998066	1	103	NA	267.098675567002	0	0.5	3.62	1	260.861579900004	260.992719262002	"14"	40721.309791593	40713.678617171	1.5	0.1
0.01	1	0.157508689000679	1	103	NA	267.098675567002	0	0.5	3.62	1	261.228875098997	261.386383787998	"14"	40721.309791593	40713.678617171	1.5	0.1
0.01	1	0.180812099002651	1	103	NA	267.098675567002	0	0.5	3.62	1	261.612859579	261.793671678002	"14"	40721.309791593	40713.678617171	1.5	0.1
0.01	1	0.123238621999917	1	103	NA	267.098675567002	0	0.5	3.62	1	262.030289428003	262.153528050003	"14"	40721.309791593	40713.678617171	1.5	0.1
0.01	1	0.620262277996517	1	103	NA	267.098675567002	0	0.5	3.62	1	262.380911243003	263.001173520999	"14"	40721.309791593	40713.678617171	1.5	0.1
0.01	1	0.185891310000443	1	103	NA	267.098675567002	0	0.5	3.62	1	263.232244084997	263.418135394997	"14"	40721.309791593	40713.678617171	1.5	0.1
0.01	1	0.138681039003131	1	103	NA	267.098675567002	0	0.5	3.62	1	263.649587428998	263.788268468001	"14"	40721.309791593	40713.678617171	1.5	0.1
0.01	1	0.121337999997195	1	103	NA	267.098675567002	0	0.5	3.62	1	264.016950798003	264.138288798	"14"	40721.309791593	40713.678617171	1.5	0.1
0.01	1	0.145691109995823	1	103	NA	267.098675567002	0	0.5	3.62	1	264.367533372002	264.513224481998	"14"	40721.309791593	40713.678617171	1.5	0.1
0.01	1	0.139326545002405	1	103	NA	267.098675567002	0	0.5	3.62	1	264.734712300997	264.874038845999	"14"	40721.309791593	40713.678617171	1.5	0.1
0.01	1	0.140522005000093	1	103	NA	267.098675567002	0	0.5	3.62	1	265.102034814998	265.242556819998	"14"	40721.309791593	40713.678617171	1.5	0.1
0.01	1	0.163620097999228	1	103	NA	267.098675567002	0	0.5	3.62	1	265.469333419001	265.632953517001	"14"	40721.309791593	40713.678617171	1.5	0.1
0.01	1	0.170232139003929	1	103	NA	267.098675567002	0	0.5	3.62	1	265.870034011998	266.040266151002	"14"	40721.309791593	40713.678617171	1.5	0.1
0.01	1	0.177593060994695	1	103	NA	267.098675567002	0	0.5	3.62	1	266.270675204003	266.448268264998	"14"	40721.309791593	40713.678617171	1.5	0.1
0.01	1	0.425786034000339	2	103	NA	267.098675567002	0	0.5	3.62	1	266.671343346003	267.097129380003	"14"	40721.309791593	40713.678617171	1.5	0.1
0.01	1	0.450152297999011	1	120	NA	293.32222758	0	0.52	4.14	1	269.142220025002	269.592372323001	"15"	40721.309791593	40713.678617171	1.5	0.1
0.01	1	0.159304374996282	1	120	NA	293.32222758	0	0.52	4.14	1	269.826640127001	269.985944501997	"15"	40721.309791593	40713.678617171	1.5	0.1
0.01	1	0.133987619999971	1	120	NA	293.32222758	0	0.52	4.14	1	270.210775027997	270.344762647997	"15"	40721.309791593	40713.678617171	1.5	0.1
0.01	1	0.167764637997607	1	120	NA	293.32222758	0	0.52	4.14	1	270.577936488	270.745701125998	"15"	40721.309791593	40713.678617171	1.5	0.1
0.01	1	0.150195927002642	1	120	NA	293.32222758	0	0.52	4.14	1	270.978595435001	271.128791362004	"15"	40721.309791593	40713.678617171	1.5	0.1
0.01	1	0.0782872720010346	1	120	NA	293.32222758	0	0.52	4.14	1	271.362608331998	271.440895603999	"15"	40721.309791593	40713.678617171	1.5	0.1
0.01	1	0.178664290004235	1	120	NA	293.32222758	0	0.52	4.14	1	271.663133012997	271.841797303001	"15"	40721.309791593	40713.678617171	1.5	0.1
0.01	1	0.170413407999149	1	120	NA	293.32222758	0	0.52	4.14	1	272.063845520002	272.234258928002	"15"	40721.309791593	40713.678617171	1.5	0.1
0.01	1	0.136153437000758	1	120	NA	293.32222758	0	0.52	4.14	1	272.464405275998	272.600558712998	"15"	40721.309791593	40713.678617171	1.5	0.1
0.01	1	0.129286901996238	1	120	NA	293.32222758	0	0.52	4.14	1	272.831744306	272.961031207997	"15"	40721.309791593	40713.678617171	1.5	0.1
0.01	1	0.625630596005067	1	120	NA	293.32222758	0	0.52	4.14	1	273.199022335997	273.824652932002	"15"	40721.309791593	40713.678617171	1.5	0.1
0.01	1	0.199454451001657	1	120	NA	293.32222758	0	0.52	4.14	1	274.050367586999	274.249822038	"15"	40721.309791593	40713.678617171	1.5	0.1
0.01	1	0.11658192199684	1	120	NA	293.32222758	0	0.52	4.14	1	274.484552506001	274.601134427998	"15"	40721.309791593	40713.678617171	1.5	0.1
0.01	1	0.157786284005851	1	120	NA	293.32222758	0	0.52	4.14	1	274.835086970998	274.992873255003	"15"	40721.309791593	40713.678617171	1.5	0.1
0.01	1	0.149496550999174	1	120	NA	293.32222758	0	0.52	4.14	1	275.219132238002	275.368628789001	"15"	40721.309791593	40713.678617171	1.5	0.1
0.01	1	0.157499735003512	1	120	NA	293.32222758	0	0.52	4.14	1	275.603084397997	275.760584133001	"15"	40721.309791593	40713.678617171	1.5	0.1
0.01	1	0.167340273997979	1	120	NA	293.32222758	0	0.52	4.14	1	275.987071672003	276.154411946001	"15"	40721.309791593	40713.678617171	1.5	0.1
0.01	1	0.125745903002098	1	120	NA	293.32222758	0	0.52	4.14	1	276.387808284999	276.513554188001	"15"	40721.309791593	40713.678617171	1.5	0.1
0.01	1	0.19864971700008	1	120	NA	293.32222758	0	0.52	4.14	1	276.738321739002	276.936971456002	"15"	40721.309791593	40713.678617171	1.5	0.1
0.01	1	0.116793872999551	1	120	NA	293.32222758	0	0.52	4.14	1	277.172318338999	277.289112211998	"15"	40721.309791593	40713.678617171	1.5	0.1
0.01	1	0.142708407998725	1	120	NA	293.32222758	0	0.52	4.14	1	277.523063724999	277.665772132998	"15"	40721.309791593	40713.678617171	1.5	0.1
0.01	1	0.152285992997349	1	120	NA	293.32222758	0	0.52	4.14	1	277.890184499003	278.042470492001	"15"	40721.309791593	40713.678617171	1.5	0.1
0.01	1	1.92604699199728	1	120	NA	293.32222758	0	0.52	4.14	1	278.274230805	280.200277796997	"15"	40721.309791593	40713.678617171	1.5	0.1
0.01	1	0.173307158998796	1	120	NA	293.32222758	0	0.52	4.14	1	280.427916143002	280.601223302001	"15"	40721.309791593	40713.678617171	1.5	0.1
0.01	1	0.164073297994037	1	120	NA	293.32222758	0	0.52	4.14	1	280.828503654004	280.992576951998	"15"	40721.309791593	40713.678617171	1.5	0.1
0.01	1	0.116429917994537	1	120	NA	293.32222758	0	0.52	4.14	1	281.229126076003	281.345555993998	"15"	40721.309791593	40713.678617171	1.5	0.1
0.01	1	0.197697354000411	1	120	NA	293.32222758	0	0.52	4.14	1	281.579824695	281.777522049	"15"	40721.309791593	40713.678617171	1.5	0.1
0.01	1	0.10025755300012	1	120	NA	293.32222758	0	0.52	4.14	1	282.013830507	282.11408806	"15"	40721.309791593	40713.678617171	1.5	0.1
0.01	1	0.181581854994874	1	120	NA	293.32222758	0	0.52	4.14	1	282.347913390004	282.529495244999	"15"	40721.309791593	40713.678617171	1.5	0.1
0.01	1	0.132712564001849	1	120	NA	293.32222758	0	0.52	4.14	1	282.765124801997	282.897837365999	"15"	40721.309791593	40713.678617171	1.5	0.1
0.01	1	0.157262148000882	1	120	NA	293.32222758	0	0.52	4.14	1	283.132368806	283.289630954001	"15"	40721.309791593	40713.678617171	1.5	0.1
0.01	1	0.149904974998208	1	120	NA	293.32222758	0	0.52	4.14	1	283.516292220003	283.666197195002	"15"	40721.309791593	40713.678617171	1.5	0.1
0.01	1	0.73255561300175	1	120	NA	293.32222758	0	0.52	4.14	1	283.900356621998	284.632912235	"15"	40721.309791593	40713.678617171	1.5	0.1
0.01	1	0.149465331000101	1	120	NA	293.32222758	0	0.52	4.14	1	284.868657767001	285.018123098002	"15"	40721.309791593	40713.678617171	1.5	0.1
0.01	1	0.141898656998819	1	120	NA	293.32222758	0	0.52	4.14	1	285.252587561001	285.394486218	"15"	40721.309791593	40713.678617171	1.5	0.1
0.01	1	0.157839760999195	1	120	NA	293.32222758	0	0.52	4.14	1	285.619910125002	285.777749886001	"15"	40721.309791593	40713.678617171	1.5	0.1
0.01	1	0.156570854000165	1	120	NA	293.32222758	0	0.52	4.14	1	286.003854987997	286.160425841997	"15"	40721.309791593	40713.678617171	1.5	0.1
0.01	1	0.134732524995343	1	120	NA	293.32222758	0	0.52	4.14	1	286.387863328004	286.522595852999	"15"	40721.309791593	40713.678617171	1.5	0.1
0.01	1	0.149988354998641	1	120	NA	293.32222758	0	0.52	4.14	1	286.755127905999	286.905116260998	"15"	40721.309791593	40713.678617171	1.5	0.1
0.01	1	0.17489198900148	1	120	NA	293.32222758	0	0.52	4.14	1	287.139109160998	287.31400115	"15"	40721.309791593	40713.678617171	1.5	0.1
0.01	1	0.142423281999072	1	120	NA	293.32222758	0	0.52	4.14	1	287.539809483998	287.682232765997	"15"	40721.309791593	40713.678617171	1.5	0.1
0.01	1	0.182914188000723	1	120	NA	293.32222758	0	0.52	4.14	1	287.907110603002	288.090024791003	"15"	40721.309791593	40713.678617171	1.5	0.1
0.01	1	0.63649854799587	1	120	NA	293.32222758	0	0.52	4.14	1	288.324512270003	288.961010817999	"15"	40721.309791593	40713.678617171	1.5	0.1
0.01	1	0.209148886999174	1	120	NA	293.32222758	0	0.52	4.14	1	289.192579579001	289.401728466	"15"	40721.309791593	40713.678617171	1.5	0.1
0.01	1	0.207279616995947	1	120	NA	293.32222758	0	0.52	4.14	1	289.626602497003	289.833882113999	"15"	40721.309791593	40713.678617171	1.5	0.1
0.01	1	0.188987229994382	1	120	NA	293.32222758	0	0.52	4.14	1	290.060697667002	290.249684896997	"15"	40721.309791593	40713.678617171	1.5	0.1
0.01	1	0.178198681998765	1	120	NA	293.32222758	0	0.52	4.14	1	290.478051901999	290.656250583997	"15"	40721.309791593	40713.678617171	1.5	0.1
0.01	1	0.187394016997132	1	120	NA	293.32222758	0	0.52	4.14	1	290.878688197001	291.066082213998	"15"	40721.309791593	40713.678617171	1.5	0.1
0.01	1	0.192908118006017	1	120	NA	293.32222758	0	0.52	4.14	1	291.296025443997	291.488933562003	"15"	40721.309791593	40713.678617171	1.5	0.1
0.01	1	0.16692741800216	1	120	NA	293.32222758	0	0.52	4.14	1	291.713411764998	291.880339183001	"15"	40721.309791593	40713.678617171	1.5	0.1
0.01	1	0.19951931599644	1	120	NA	293.32222758	0	0.52	4.14	1	292.114191562003	292.313710877999	"15"	40721.309791593	40713.678617171	1.5	0.1
0.01	1	0.21343220599374	1	120	NA	293.32222758	0	0.52	4.14	1	292.548271532003	292.761703737997	"15"	40721.309791593	40713.678617171	1.5	0.1
0.01	1	0.3217208030037	2	120	NA	293.32222758	0	0.52	4.14	1	292.998930444999	293.320651248003	"15"	40721.309791593	40713.678617171	1.5	0.1
0.01	1	0.448155581994797	1	109	NA	319.227646535001	0	0.53	4.67	1	295.369659360003	295.817814941998	"16"	40721.309791593	40713.678617171	1.5	0.1
0.01	1	0.195544863003306	1	109	NA	319.227646535001	0	0.53	4.67	1	296.054086450997	296.249631314	"16"	40721.309791593	40713.678617171	1.5	0.1
0.01	1	0.161083988998143	1	109	NA	319.227646535001	0	0.53	4.67	1	296.471465882001	296.632549870999	"16"	40721.309791593	40713.678617171	1.5	0.1
0.01	1	0.162004687001172	1	109	NA	319.227646535001	0	0.53	4.67	1	296.855575513	297.017580200001	"16"	40721.309791593	40713.678617171	1.5	0.1
0.01	1	0.161518790002447	1	109	NA	319.227646535001	0	0.53	4.67	1	297.256089445	297.417608235002	"16"	40721.309791593	40713.678617171	1.5	0.1
0.01	1	0.185640305004199	1	109	NA	319.227646535001	0	0.53	4.67	1	297.640219456	297.825859761004	"16"	40721.309791593	40713.678617171	1.5	0.1
0.01	1	0.151062392003951	1	109	NA	319.227646535001	0	0.53	4.67	1	298.057453513997	298.208515906001	"16"	40721.309791593	40713.678617171	1.5	0.1
0.01	1	0.144568436997361	1	109	NA	319.227646535001	0	0.53	4.67	1	298.441386940001	298.585955376999	"16"	40721.309791593	40713.678617171	1.5	0.1
0.01	1	0.183492700001807	1	109	NA	319.227646535001	0	0.53	4.67	1	298.808753341997	298.992246041998	"16"	40721.309791593	40713.678617171	1.5	0.1
0.01	1	0.14427046700439	1	109	NA	319.227646535001	0	0.53	4.67	1	299.226002607997	299.370273075001	"16"	40721.309791593	40713.678617171	1.5	0.1
0.01	1	0.176309309004864	1	109	NA	319.227646535001	0	0.53	4.67	1	299.593408795998	299.769718105003	"16"	40721.309791593	40713.678617171	1.5	0.1
0.01	1	0.183700603003672	1	109	NA	319.227646535001	0	0.53	4.67	1	299.994306444998	300.178007048002	"16"	40721.309791593	40713.678617171	1.5	0.1
0.01	1	0.581646172999172	1	109	NA	319.227646535001	0	0.53	4.67	1	300.411405072999	300.993051245998	"16"	40721.309791593	40713.678617171	1.5	0.1
0.01	1	0.162762430998555	1	109	NA	319.227646535001	0	0.53	4.67	1	301.229444978002	301.392207409001	"16"	40721.309791593	40713.678617171	1.5	0.1
0.01	1	0.155759410998144	1	109	NA	319.227646535001	0	0.53	4.67	1	301.613431245001	301.769190655999	"16"	40721.309791593	40713.678617171	1.5	0.1
0.01	1	0.155857477999234	1	109	NA	319.227646535001	0	0.53	4.67	1	301.997578146998	302.153435624998	"16"	40721.309791593	40713.678617171	1.5	0.1
0.01	1	0.131174383001053	1	109	NA	319.227646535001	0	0.53	4.67	1	302.381552942003	302.512727325004	"16"	40721.309791593	40713.678617171	1.5	0.1
0.01	1	0.157466798002133	1	109	NA	319.227646535001	0	0.53	4.67	1	302.748641525999	302.906108324001	"16"	40721.309791593	40713.678617171	1.5	0.1
0.01	1	0.18086432099517	1	109	NA	319.227646535001	0	0.53	4.67	1	303.132657337002	303.313521657998	"16"	40721.309791593	40713.678617171	1.5	0.1
0.01	1	0.1310191809971	1	109	NA	319.227646535001	0	0.53	4.67	1	303.550138126004	303.681157307001	"16"	40721.309791593	40713.678617171	1.5	0.1
0.01	1	0.147532438000781	1	109	NA	319.227646535001	0	0.53	4.67	1	303.917301349997	304.064833787997	"16"	40721.309791593	40713.678617171	1.5	0.1
0.01	1	0.139813387002505	1	109	NA	319.227646535001	0	0.53	4.67	1	304.30131001	304.441123397002	"16"	40721.309791593	40713.678617171	1.5	0.1
0.01	1	0.477991284002201	1	109	NA	319.227646535001	0	0.53	4.67	1	304.668611720997	305.146603005	"16"	40721.309791593	40713.678617171	1.5	0.1
0.01	1	0.176686165999854	1	109	NA	319.227646535001	0	0.53	4.67	1	305.369752511004	305.546438677004	"16"	40721.309791593	40713.678617171	1.5	0.1
0.01	1	0.157922812002653	1	109	NA	319.227646535001	0	0.53	4.67	1	305.787089441998	305.945012254	"16"	40721.309791593	40713.678617171	1.5	0.1
0.01	1	0.175096530998417	1	109	NA	319.227646535001	0	0.53	4.67	1	306.171065109003	306.346161640002	"16"	40721.309791593	40713.678617171	1.5	0.1
0.01	1	0.134444921000977	1	109	NA	319.227646535001	0	0.53	4.67	1	306.571750315998	306.706195236999	"16"	40721.309791593	40713.678617171	1.5	0.1
0.01	1	0.174934415001189	1	109	NA	319.227646535001	0	0.53	4.67	1	306.939091378001	307.114025793002	"16"	40721.309791593	40713.678617171	1.5	0.1
0.01	1	0.157114829002239	1	109	NA	319.227646535001	0	0.53	4.67	1	307.339667298998	307.496782128001	"16"	40721.309791593	40713.678617171	1.5	0.1
0.01	1	0.165537560002122	1	109	NA	319.227646535001	0	0.53	4.67	1	307.723810759999	307.889348320001	"16"	40721.309791593	40713.678617171	1.5	0.1
0.01	1	0.156581224997353	1	109	NA	319.227646535001	0	0.53	4.67	1	308.124470841001	308.281052065999	"16"	40721.309791593	40713.678617171	1.5	0.1
0.01	1	0.173775733004732	1	109	NA	319.227646535001	0	0.53	4.67	1	308.508413563999	308.682189297004	"16"	40721.309791593	40713.678617171	1.5	0.1
0.01	1	0.451759054005379	1	109	NA	319.227646535001	0	0.53	4.67	1	308.909054641997	309.360813696003	"16"	40721.309791593	40713.678617171	1.5	0.1
0.01	1	0.175668050993409	1	109	NA	319.227646535001	0	0.53	4.67	1	309.593545214004	309.769213264997	"16"	40721.309791593	40713.678617171	1.5	0.1
0.01	1	0.183103730007133	1	109	NA	319.227646535001	0	0.53	4.67	1	309.994190824997	310.177294555004	"16"	40721.309791593	40713.678617171	1.5	0.1
0.01	1	0.166241434999392	1	109	NA	319.227646535001	0	0.53	4.67	1	310.411519455003	310.577760890003	"16"	40721.309791593	40713.678617171	1.5	0.1
0.01	1	0.14146691699716	1	109	NA	319.227646535001	0	0.53	4.67	1	310.812237787002	310.953704703999	"16"	40721.309791593	40713.678617171	1.5	0.1
0.01	1	0.158637856002315	1	109	NA	319.227646535001	0	0.53	4.67	1	311.179517432	311.338155288002	"16"	40721.309791593	40713.678617171	1.5	0.1
0.01	1	0.173703434003983	1	109	NA	319.227646535001	0	0.53	4.67	1	311.563529177998	311.737232612002	"16"	40721.309791593	40713.678617171	1.5	0.1
0.01	1	0.189856249002332	1	109	NA	319.227646535001	0	0.53	4.67	1	311.964116873998	312.153973123	"16"	40721.309791593	40713.678617171	1.5	0.1
0.01	1	0.147021410004527	1	109	NA	319.227646535001	0	0.53	4.67	1	312.381601264999	312.528622675003	"16"	40721.309791593	40713.678617171	1.5	0.1
0.01	1	0.146905415000219	1	109	NA	319.227646535001	0	0.53	4.67	1	312.765585278998	312.912490693998	"16"	40721.309791593	40713.678617171	1.5	0.1
0.01	1	0.485004957998171	1	109	NA	319.227646535001	0	0.53	4.67	1	313.149477425002	313.634482383	"16"	40721.309791593	40713.678617171	1.5	0.1
0.01	1	0.158618319001107	1	109	NA	319.227646535001	0	0.53	4.67	1	313.867452840997	314.026071159999	"16"	40721.309791593	40713.678617171	1.5	0.1
0.01	1	0.126108702999773	1	109	NA	319.227646535001	0	0.53	4.67	1	314.251329375002	314.377438078001	"16"	40721.309791593	40713.678617171	1.5	0.1
0.01	1	0.174526527996932	1	109	NA	319.227646535001	0	0.53	4.67	1	314.601977241	314.776503768997	"16"	40721.309791593	40713.678617171	1.5	0.1
0.01	1	0.135000765003497	1	109	NA	319.227646535001	0	0.53	4.67	1	315.002677286	315.137678051004	"16"	40721.309791593	40713.678617171	1.5	0.1
0.01	1	0.13475833600387	1	109	NA	319.227646535001	0	0.53	4.67	1	315.369996934998	315.504755271002	"16"	40721.309791593	40713.678617171	1.5	0.1
0.01	1	0.137824295001337	1	109	NA	319.227646535001	0	0.53	4.67	1	315.737148829001	315.874973124002	"16"	40721.309791593	40713.678617171	1.5	0.1
0.01	1	0.153344698002911	1	109	NA	319.227646535001	0	0.53	4.67	1	316.104483684998	316.257828383001	"16"	40721.309791593	40713.678617171	1.5	0.1
0.01	1	0.160546143997635	1	109	NA	319.227646535001	0	0.53	4.67	1	316.488505722002	316.649051865999	"16"	40721.309791593	40713.678617171	1.5	0.1
0.01	1	0.168453316000523	1	109	NA	319.227646535001	0	0.53	4.67	1	316.872379353998	317.040832669998	"16"	40721.309791593	40713.678617171	1.5	0.1
0.01	1	1.36792982299812	1	109	NA	319.227646535001	0	0.53	4.67	1	317.273036122999	318.640965945997	"16"	40721.309791593	40713.678617171	1.5	0.1
0.01	1	0.350257227997645	2	109	NA	319.227646535001	0	0.53	4.67	1	318.875814111001	319.226071338999	"16"	40721.309791593	40713.678617171	1.5	0.1
0.01	1	0.547082696000871	1	71	NA	344.229480640002	0	0.52	5.19	1	321.263112287001	321.810194983002	"17"	40721.309791593	40713.678617171	1.5	0.1
0.01	1	0.235492455001804	1	71	NA	344.229480640002	0	0.52	5.19	1	322.047880719001	322.283373174003	"17"	40721.309791593	40713.678617171	1.5	0.1
0.01	1	0.10229410300235	1	71	NA	344.229480640002	0	0.52	5.19	1	322.515232338999	322.617526442002	"17"	40721.309791593	40713.678617171	1.5	0.1
0.01	1	0.144436923001194	1	71	NA	344.229480640002	0	0.52	5.19	1	322.849173319002	322.993610242003	"17"	40721.309791593	40713.678617171	1.5	0.1
0.01	1	0.145343053001852	1	71	NA	344.229480640002	0	0.52	5.19	1	323.216497672001	323.361840725003	"17"	40721.309791593	40713.678617171	1.5	0.1
0.01	1	0.128744931003894	1	71	NA	344.229480640002	0	0.52	5.19	1	323.583714941	323.712459872004	"17"	40721.309791593	40713.678617171	1.5	0.1
0.01	1	0.172143860996584	1	71	NA	344.229480640002	0	0.52	5.19	1	323.934259950001	324.106403810998	"17"	40721.309791593	40713.678617171	1.5	0.1
0.01	1	0.146716789000493	1	71	NA	344.229480640002	0	0.52	5.19	1	324.334922246002	324.481639035002	"17"	40721.309791593	40713.678617171	1.5	0.1
0.01	1	0.123923637998814	1	71	NA	344.229480640002	0	0.52	5.19	1	324.718867053998	324.842790691997	"17"	40721.309791593	40713.678617171	1.5	0.1
0.01	1	0.138584898995759	1	71	NA	344.229480640002	0	0.52	5.19	1	325.069601586001	325.208186484997	"17"	40721.309791593	40713.678617171	1.5	0.1
0.01	1	0.635546117999183	1	71	NA	344.229480640002	0	0.52	5.19	1	325.436790847001	326.072336965	"17"	40721.309791593	40713.678617171	1.5	0.1
0.01	1	0.123067938999156	1	71	NA	344.229480640002	0	0.52	5.19	1	326.304944912001	326.428012851	"17"	40721.309791593	40713.678617171	1.5	0.1
0.01	1	0.15391607300262	1	71	NA	344.229480640002	0	0.52	5.19	1	326.655463561998	326.809379635	"17"	40721.309791593	40713.678617171	1.5	0.1
0.01	1	0.139331029000459	1	71	NA	344.229480640002	0	0.52	5.19	1	327.039630910003	327.178961939004	"17"	40721.309791593	40713.678617171	1.5	0.1
0.01	1	0.171122567997372	1	71	NA	344.229480640002	0	0.52	5.19	1	327.406808786	327.577931353997	"17"	40721.309791593	40713.678617171	1.5	0.1
0.01	1	0.130106721997436	1	71	NA	344.229480640002	0	0.52	5.19	1	327.807496109002	327.937602831	"17"	40721.309791593	40713.678617171	1.5	0.1
0.01	1	0.139417067999602	1	71	NA	344.229480640002	0	0.52	5.19	1	328.174857849997	328.314274917997	"17"	40721.309791593	40713.678617171	1.5	0.1
0.01	1	0.147163853005623	1	71	NA	344.229480640002	0	0.52	5.19	1	328.541970184997	328.689134038003	"17"	40721.309791593	40713.678617171	1.5	0.1
0.01	1	0.146714523005357	1	71	NA	344.229480640002	0	0.52	5.19	1	328.925978321997	329.072692845002	"17"	40721.309791593	40713.678617171	1.5	0.1
0.01	1	0.108193378997385	1	71	NA	344.229480640002	0	0.52	5.19	1	329.309951729003	329.418145108	"17"	40721.309791593	40713.678617171	1.5	0.1
0.01	1	0.59015483300027	1	71	NA	344.229480640002	0	0.52	5.19	1	329.643937462999	330.234092295999	"17"	40721.309791593	40713.678617171	1.5	0.1
0.01	1	0.331553800002439	1	71	NA	344.229480640002	0	0.52	5.19	1	330.462002013999	330.793555814002	"17"	40721.309791593	40713.678617171	1.5	0.1
0.01	1	0.13871881000523	1	71	NA	344.229480640002	0	0.52	5.19	1	331.029577877998	331.168296688003	"17"	40721.309791593	40713.678617171	1.5	0.1
0.01	1	0.165258463995997	1	71	NA	344.229480640002	0	0.52	5.19	1	331.396836450003	331.562094913999	"17"	40721.309791593	40713.678617171	1.5	0.1
0.01	1	0.139001284005644	1	71	NA	344.229480640002	0	0.52	5.19	1	331.797558806997	331.936560091002	"17"	40721.309791593	40713.678617171	1.5	0.1
0.01	1	0.147625107994827	1	71	NA	344.229480640002	0	0.52	5.19	1	332.164855114002	332.312480221997	"17"	40721.309791593	40713.678617171	1.5	0.1
0.01	1	0.133451071000309	1	71	NA	344.229480640002	0	0.52	5.19	1	332.54877917	332.682230241	"17"	40721.309791593	40713.678617171	1.5	0.1
0.01	1	0.124641401002009	1	71	NA	344.229480640002	0	0.52	5.19	1	332.916038037001	333.040679438003	"17"	40721.309791593	40713.678617171	1.5	0.1
0.01	1	0.215586703001463	1	71	NA	344.229480640002	0	0.52	5.19	1	333.266647671	333.482234374002	"17"	40721.309791593	40713.678617171	1.5	0.1
0.01	1	0.0909955339957378	1	71	NA	344.229480640002	0	0.52	5.19	1	333.717405602001	333.808401135997	"17"	40721.309791593	40713.678617171	1.5	0.1
0.01	1	0.654360234002525	1	71	NA	344.229480640002	0	0.52	5.19	1	334.034610005001	334.688970239004	"17"	40721.309791593	40713.678617171	1.5	0.1
0.01	1	0.121331905000261	1	71	NA	344.229480640002	0	0.52	5.19	1	334.919460785	335.040792690001	"17"	40721.309791593	40713.678617171	1.5	0.1
0.01	1	0.139583997995942	1	71	NA	344.229480640002	0	0.52	5.19	1	335.270090302001	335.409674299997	"17"	40721.309791593	40713.678617171	1.5	0.1
0.01	1	0.148074946999259	1	71	NA	344.229480640002	0	0.52	5.19	1	335.637335045001	335.785409992	"17"	40721.309791593	40713.678617171	1.5	0.1
0.01	1	0.116199770003732	1	71	NA	344.229480640002	0	0.52	5.19	1	336.021314407997	336.137514178001	"17"	40721.309791593	40713.678617171	1.5	0.1
0.01	1	0.140766037999128	1	71	NA	344.229480640002	0	0.52	5.19	1	336.371879206999	336.512645244999	"17"	40721.309791593	40713.678617171	1.5	0.1
0.01	1	0.14327619800315	1	71	NA	344.229480640002	0	0.52	5.19	1	336.739097461999	336.882373660002	"17"	40721.309791593	40713.678617171	1.5	0.1
0.01	1	0.143004776000453	1	71	NA	344.229480640002	0	0.52	5.19	1	337.106461426003	337.249466202004	"17"	40721.309791593	40713.678617171	1.5	0.1
0.01	1	0.160933704995841	1	71	NA	344.229480640002	0	0.52	5.19	1	337.473661256001	337.634594960997	"17"	40721.309791593	40713.678617171	1.5	0.1
0.01	1	0.152784881000116	1	71	NA	344.229480640002	0	0.52	5.19	1	337.857675252999	338.010460133999	"17"	40721.309791593	40713.678617171	1.5	0.1
0.01	1	0.695745839002484	1	71	NA	344.229480640002	0	0.52	5.19	1	338.241707884998	338.937453724	"17"	40721.309791593	40713.678617171	1.5	0.1
0.01	1	0.12304686599964	1	71	NA	344.229480640002	0	0.52	5.19	1	339.176612096999	339.299658962998	"17"	40721.309791593	40713.678617171	1.5	0.1
0.01	1	0.121565658999316	1	71	NA	344.229480640002	0	0.52	5.19	1	339.527132053001	339.648697712	"17"	40721.309791593	40713.678617171	1.5	0.1
0.01	1	0.148535660999187	1	71	NA	344.229480640002	0	0.52	5.19	1	339.877804634001	340.026340295	"17"	40721.309791593	40713.678617171	1.5	0.1
0.01	1	0.0911920740036294	1	71	NA	344.229480640002	0	0.52	5.19	1	340.261708698999	340.352900773003	"17"	40721.309791593	40713.678617171	1.5	0.1
0.01	1	0.150577995998901	1	71	NA	344.229480640002	0	0.52	5.19	1	340.578986788998	340.729564784997	"17"	40721.309791593	40713.678617171	1.5	0.1
0.01	1	0.127321093998034	1	71	NA	344.229480640002	0	0.52	5.19	1	340.962863781999	341.090184875997	"17"	40721.309791593	40713.678617171	1.5	0.1
0.01	1	0.143133438003133	1	71	NA	344.229480640002	0	0.52	5.19	1	341.313614915998	341.456748354001	"17"	40721.309791593	40713.678617171	1.5	0.1
0.01	1	0.152731184003642	1	71	NA	344.229480640002	0	0.52	5.19	1	341.68081405	341.833545234003	"17"	40721.309791593	40713.678617171	1.5	0.1
0.01	1	0.176927287997387	1	71	NA	344.229480640002	0	0.52	5.19	1	342.064802432003	342.241729720001	"17"	40721.309791593	40713.678617171	1.5	0.1
0.01	1	0.51085407500068	1	71	NA	344.229480640002	0	0.52	5.19	1	342.465601588003	342.976455663003	"17"	40721.309791593	40713.678617171	1.5	0.1
0.01	1	0.393935842002975	1	71	NA	344.229480640002	0	0.52	5.19	1	343.200106914999	343.594042757002	"17"	40721.309791593	40713.678617171	1.5	0.1
0.01	1	0.410061916998529	2	71	NA	344.229480640002	0	0.52	5.19	1	343.817767082001	344.227828998999	"17"	40721.309791593	40713.678617171	1.5	0.1
0.01	1	0.72890732500673	1	96	NA	368.898060129999	0	0.51	5.7	1	346.271905800997	347.000813126004	"18"	40721.309791593	40713.678617171	1.5	0.1
0.01	1	0.0258409219968598	1	96	NA	368.898060129999	0	0.51	5.7	1	347.240125210003	347.265966131999	"18"	40721.309791593	40713.678617171	1.5	0.1
0.01	1	0.102744047995657	1	96	NA	368.898060129999	0	0.51	5.7	1	347.490548230002	347.593292277998	"18"	40721.309791593	40713.678617171	1.5	0.1
0.01	1	0.112546365999151	1	96	NA	368.898060129999	0	0.51	5.7	1	347.824398912002	347.936945278001	"18"	40721.309791593	40713.678617171	1.5	0.1
0.01	1	0.153207793999172	1	96	NA	368.898060129999	0	0.51	5.7	1	348.175057911998	348.328265705997	"18"	40721.309791593	40713.678617171	1.5	0.1
0.01	1	0.1378374670021	1	96	NA	368.898060129999	0	0.51	5.7	1	348.559018952001	348.696856419003	"18"	40721.309791593	40713.678617171	1.5	0.1
0.01	1	0.154351913006394	1	96	NA	368.898060129999	0	0.51	5.7	1	348.926378286997	349.080730200003	"18"	40721.309791593	40713.678617171	1.5	0.1
0.01	1	0.108108211003128	1	96	NA	368.898060129999	0	0.51	5.7	1	349.31027337	349.418381581003	"18"	40721.309791593	40713.678617171	1.5	0.1
0.01	1	0.148217280999233	1	96	NA	368.898060129999	0	0.51	5.7	1	349.644220374001	349.792437655	"18"	40721.309791593	40713.678617171	1.5	0.1
0.01	1	0.116502016993763	1	96	NA	368.898060129999	0	0.51	5.7	1	350.028221015004	350.144723031997	"18"	40721.309791593	40713.678617171	1.5	0.1
0.01	1	0.574204167001881	1	96	NA	368.898060129999	0	0.51	5.7	1	350.378761658001	350.952965825003	"18"	40721.309791593	40713.678617171	1.5	0.1
0.01	1	0.190747978005675	1	96	NA	368.898060129999	0	0.51	5.7	1	351.180141746998	351.370889725004	"18"	40721.309791593	40713.678617171	1.5	0.1
0.01	1	0.148509452003054	1	96	NA	368.898060129999	0	0.51	5.7	1	351.597445724998	351.745955177001	"18"	40721.309791593	40713.678617171	1.5	0.1
0.01	1	0.156103446999623	1	96	NA	368.898060129999	0	0.51	5.7	1	351.981520298003	352.137623745002	"18"	40721.309791593	40713.678617171	1.5	0.1
0.01	1	0.139420075996895	1	96	NA	368.898060129999	0	0.51	5.7	1	352.365408634003	352.50482871	"18"	40721.309791593	40713.678617171	1.5	0.1
0.01	1	0.155366038001375	1	96	NA	368.898060129999	0	0.51	5.7	1	352.732745542002	352.888111580003	"18"	40721.309791593	40713.678617171	1.5	0.1
0.01	1	0.116327014002309	1	96	NA	368.898060129999	0	0.51	5.7	1	353.116663813998	353.232990828001	"18"	40721.309791593	40713.678617171	1.5	0.1
0.01	1	0.00218565100658452	1	96	NA	368.898060129999	0	0.51	5.7	1	353.467233976997	353.469419628003	"18"	40721.309791593	40713.678617171	1.5	0.1
0.01	1	0.00238919600087684	1	96	NA	368.898060129999	0	0.51	5.7	1	353.701032703	353.703421899001	"18"	40721.309791593	40713.678617171	1.5	0.1
0.01	1	0.0748141700023552	1	96	NA	368.898060129999	0	0.51	5.7	1	353.934796141999	354.009610312001	"18"	40721.309791593	40713.678617171	1.5	0.1
0.01	1	0.15910703100235	1	96	NA	368.898060129999	0	0.51	5.7	1	354.235314288999	354.394421320001	"18"	40721.309791593	40713.678617171	1.5	0.1
0.01	1	0.558427474999917	1	96	NA	368.898060129999	0	0.51	5.7	1	354.619208039003	355.177635514003	"18"	40721.309791593	40713.678617171	1.5	0.1
0.01	1	0.150095340002736	1	96	NA	368.898060129999	0	0.51	5.7	1	355.403814917001	355.553910257004	"18"	40721.309791593	40713.678617171	1.5	0.1
0.01	1	0.133113426003547	1	96	NA	368.898060129999	0	0.51	5.7	1	355.787819081997	355.920932508001	"18"	40721.309791593	40713.678617171	1.5	0.1
