"payoff.level"	"balloon"	"rt"	"resp"	"explode.trial"	"explode.time"	"finish.time"	"exploded"	"trial.total"	"cumulative.total"	"finished"	"trial.start"	"trial.end"	"trial.num"	"secs"	"start.time"	"iti"	"isi"
0.01	1	2.0654654279997	1	64	38.2094736999998	NA	1	0	0	1	0.0241649050003616	2.08963033300006	"1"	8462.937194711	8454.808728312	1.5	0.1
0.01	1	0.395875659000012	1	64	38.2094736999998	NA	1	0	0	1	2.47820855400005	2.87408421300006	"1"	8462.937194711	8454.808728312	1.5	0.1
0.01	1	0.65079016099935	1	64	38.2094736999998	NA	1	0	0	1	3.09588932400038	3.74667948499973	"1"	8462.937194711	8454.808728312	1.5	0.1
0.01	1	0.669479918000434	1	64	38.2094736999998	NA	1	0	0	1	3.98063336199994	4.65011328000037	"1"	8462.937194711	8454.808728312	1.5	0.1
0.01	1	0.873295291999966	1	64	38.2094736999998	NA	1	0	0	1	4.88211302499985	5.75540831699982	"1"	8462.937194711	8454.808728312	1.5	0.1
0.01	1	0.643321182999898	1	64	38.2094736999998	NA	1	0	0	1	5.98398752000048	6.62730870300038	"1"	8462.937194711	8454.808728312	1.5	0.1
0.01	1	0.798808047999955	1	64	38.2094736999998	NA	1	0	0	1	6.85236631200041	7.65117436000037	"1"	8462.937194711	8454.808728312	1.5	0.1
0.01	1	0.55480714100031	1	64	38.2094736999998	NA	1	0	0	1	7.8873212919998	8.44212843300011	"1"	8462.937194711	8454.808728312	1.5	0.1
0.01	1	0.554269303000183	1	64	38.2094736999998	NA	1	0	0	1	8.67197001699969	9.22623931999988	"1"	8462.937194711	8454.808728312	1.5	0.1
0.01	1	0.62496382900008	1	64	38.2094736999998	NA	1	0	0	1	9.45674178100035	10.0817056100004	"1"	8462.937194711	8454.808728312	1.5	0.1
0.01	1	0.806359065000834	1	64	38.2094736999998	NA	1	0	0	1	10.3079989549997	11.1143580200005	"1"	8462.937194711	8454.808728312	1.5	0.1
0.01	1	0.68250697700023	1	64	38.2094736999998	NA	1	0	0	1	11.3430343099999	12.0255412870001	"1"	8462.937194711	8454.808728312	1.5	0.1
0.01	1	0.605021424999904	1	64	38.2094736999998	NA	1	0	0	1	12.2614124930005	12.8664339180004	"1"	8462.937194711	8454.808728312	1.5	0.1
0.01	1	0.52306780500021	1	64	38.2094736999998	NA	1	0	0	1	13.0960899700003	13.6191577750005	"1"	8462.937194711	8454.808728312	1.5	0.1
0.01	1	0.434796263999488	1	64	38.2094736999998	NA	1	0	0	1	13.8474011090002	14.2821973729997	"1"	8462.937194711	8454.808728312	1.5	0.1
0.01	1	0.366493931999685	1	64	38.2094736999998	NA	1	0	0	1	14.514996977	14.8814909089997	"1"	8462.937194711	8454.808728312	1.5	0.1
0.01	1	0.317920488999334	1	64	38.2094736999998	NA	1	0	0	1	15.1160907230005	15.4340112119999	"1"	8462.937194711	8454.808728312	1.5	0.1
0.01	1	0.327553121000165	1	64	38.2094736999998	NA	1	0	0	1	15.6669156850003	15.9944688060004	"1"	8462.937194711	8454.808728312	1.5	0.1
0.01	1	0.321219716000087	1	64	38.2094736999998	NA	1	0	0	1	16.2179154129999	16.539135129	"1"	8462.937194711	8454.808728312	1.5	0.1
0.01	1	0.306542872999671	1	64	38.2094736999998	NA	1	0	0	1	16.7688734470003	17.0754163199999	"1"	8462.937194711	8454.808728312	1.5	0.1
0.01	1	0.372294110999974	1	64	38.2094736999998	NA	1	0	0	1	17.3031062970003	17.6754004080003	"1"	8462.937194711	8454.808728312	1.5	0.1
0.01	1	0.275176891999763	1	64	38.2094736999998	NA	1	0	0	1	17.9040562090004	18.1792331010001	"1"	8462.937194711	8454.808728312	1.5	0.1
0.01	1	0.365635107999879	1	64	38.2094736999998	NA	1	0	0	1	18.4049406419999	18.7705757499998	"1"	8462.937194711	8454.808728312	1.5	0.1
0.01	1	0.292993633000151	1	64	38.2094736999998	NA	1	0	0	1	19.0060306300002	19.2990242630003	"1"	8462.937194711	8454.808728312	1.5	0.1
0.01	1	0.303488088000449	1	64	38.2094736999998	NA	1	0	0	1	19.5236443849999	19.8271324730003	"1"	8462.937194711	8454.808728312	1.5	0.1
0.01	1	0.216436654000063	1	64	38.2094736999998	NA	1	0	0	1	20.0576380689999	20.274074723	"1"	8462.937194711	8454.808728312	1.5	0.1
0.01	1	0.190128799000377	1	64	38.2094736999998	NA	1	0	0	1	20.5086067069997	20.698735506	"1"	8462.937194711	8454.808728312	1.5	0.1
0.01	1	0.196460249000665	1	64	38.2094736999998	NA	1	0	0	1	20.9258754809998	21.1223357300005	"1"	8462.937194711	8454.808728312	1.5	0.1
0.01	1	0.258537489000446	1	64	38.2094736999998	NA	1	0	0	1	21.360097791	21.6186352800005	"1"	8462.937194711	8454.808728312	1.5	0.1
0.01	1	0.357766881999851	1	64	38.2094736999998	NA	1	0	0	1	21.84423823	22.2020051119998	"1"	8462.937194711	8454.808728312	1.5	0.1
0.01	1	0.485758298999826	1	64	38.2094736999998	NA	1	0	0	1	22.4283912390001	22.9141495379999	"1"	8462.937194711	8454.808728312	1.5	0.1
0.01	1	0.504116338000131	1	64	38.2094736999998	NA	1	0	0	1	23.1463865719998	23.6505029099999	"1"	8462.937194711	8454.808728312	1.5	0.1
0.01	1	0.336656248000509	1	64	38.2094736999998	NA	1	0	0	1	23.8810115739998	24.2176678220003	"1"	8462.937194711	8454.808728312	1.5	0.1
0.01	1	3.53132248400016	1	64	38.2094736999998	NA	1	0	0	1	24.4485269380002	27.9798494220004	"1"	8462.937194711	8454.808728312	1.5	0.1
0.01	1	0.326394162000724	1	64	38.2094736999998	NA	1	0	0	1	28.2214833549997	28.5478775170004	"1"	8462.937194711	8454.808728312	1.5	0.1
0.01	1	0.272447919000115	1	64	38.2094736999998	NA	1	0	0	1	28.7725216819999	29.044969601	"1"	8462.937194711	8454.808728312	1.5	0.1
0.01	1	0.443841721000354	1	64	38.2094736999998	NA	1	0	0	1	29.2733508450001	29.7171925660004	"1"	8462.937194711	8454.808728312	1.5	0.1
0.01	1	0.263165680999919	1	64	38.2094736999998	NA	1	0	0	1	29.9411276820001	30.204293363	"1"	8462.937194711	8454.808728312	1.5	0.1
0.01	1	0.0257114149999325	1	64	38.2094736999998	NA	1	0	0	1	30.4420285100005	30.4677399250004	"1"	8462.937194711	8454.808728312	1.5	0.1
0.01	1	0.503677945000163	1	64	38.2094736999998	NA	1	0	0	1	30.6924169900003	31.1960949350005	"1"	8462.937194711	8454.808728312	1.5	0.1
0.01	1	0.352768877000017	1	64	38.2094736999998	NA	1	0	0	1	31.4270097449999	31.7797786219999	"1"	8462.937194711	8454.808728312	1.5	0.1
0.01	1	0.288399914000365	1	64	38.2094736999998	NA	1	0	0	1	32.0112348969997	32.299634811	"1"	8462.937194711	8454.808728312	1.5	0.1
0.01	1	0.00463203500021336	1	64	38.2094736999998	NA	1	0	0	1	32.5289353150001	32.5335673500003	"1"	8462.937194711	8454.808728312	1.5	0.1
0.01	1	0.065301929999805	1	64	38.2094736999998	NA	1	0	0	1	32.7626028969999	32.8279048269997	"1"	8462.937194711	8454.808728312	1.5	0.1
0.01	1	0.00364810299925011	1	64	38.2094736999998	NA	1	0	0	1	33.0630875200004	33.0667356229997	"1"	8462.937194711	8454.808728312	1.5	0.1
0.01	1	0.0521561510004176	1	64	38.2094736999998	NA	1	0	0	1	33.2968032019999	33.3489593530003	"1"	8462.937194711	8454.808728312	1.5	0.1
0.01	1	0.087703041000168	1	64	38.2094736999998	NA	1	0	0	1	33.5805527000002	33.6682557410004	"1"	8462.937194711	8454.808728312	1.5	0.1
0.01	1	0.09974442299972	1	64	38.2094736999998	NA	1	0	0	1	33.8978464669999	33.9975908899996	"1"	8462.937194711	8454.808728312	1.5	0.1
0.01	1	0.109497864999867	1	64	38.2094736999998	NA	1	0	0	1	34.2316318700005	34.3411297350003	"1"	8462.937194711	8454.808728312	1.5	0.1
0.01	1	0.00368230599997332	1	64	38.2094736999998	NA	1	0	0	1	34.5655529750002	34.5692352810001	"1"	8462.937194711	8454.808728312	1.5	0.1
0.01	1	0.0771301009999661	1	64	38.2094736999998	NA	1	0	0	1	34.7993029720001	34.876433073	"1"	8462.937194711	8454.808728312	1.5	0.1
0.01	1	0.00399043800007348	1	64	38.2094736999998	NA	1	0	0	1	35.0998603750004	35.1038508130005	"1"	8462.937194711	8454.808728312	1.5	0.1
0.01	1	0.0951300950000586	1	64	38.2094736999998	NA	1	0	0	1	35.3335702249997	35.4287003199997	"1"	8462.937194711	8454.808728312	1.5	0.1
0.01	1	0.00456535400007851	1	64	38.2094736999998	NA	1	0	0	1	35.6508201480001	35.6553855020002	"1"	8462.937194711	8454.808728312	1.5	0.1
0.01	1	0.111423640000794	1	64	38.2094736999998	NA	1	0	0	1	35.8844145519997	35.9958381920005	"1"	8462.937194711	8454.808728312	1.5	0.1
0.01	1	0.00390514399987296	1	64	38.2094736999998	NA	1	0	0	1	36.2183733370002	36.2222784810001	"1"	8462.937194711	8454.808728312	1.5	0.1
0.01	1	0.00398398500055919	1	64	38.2094736999998	NA	1	0	0	1	36.4519966119997	36.4559805970002	"1"	8462.937194711	8454.808728312	1.5	0.1
0.01	1	0.00397416099986003	1	64	38.2094736999998	NA	1	0	0	1	36.6858139320002	36.6897880930001	"1"	8462.937194711	8454.808728312	1.5	0.1
0.01	1	0.00459899199995562	1	64	38.2094736999998	NA	1	0	0	1	36.9195366800004	36.9241356720004	"1"	8462.937194711	8454.808728312	1.5	0.1
0.01	1	0.00451131099998747	1	64	38.2094736999998	NA	1	0	0	1	37.1533394300004	37.1578507410004	"1"	8462.937194711	8454.808728312	1.5	0.1
0.01	1	0.00392654200004472	1	64	38.2094736999998	NA	1	0	0	1	37.386954177	37.3908807190001	"1"	8462.937194711	8454.808728312	1.5	0.1
0.01	1	0.00378882099994371	1	64	38.2094736999998	NA	1	0	0	1	37.6205716220002	37.6243604430001	"1"	8462.937194711	8454.808728312	1.5	0.1
0.01	1	0.0036808340000789	1	64	38.2094736999998	NA	1	0	0	1	37.8544309770004	37.8581118110005	"1"	8462.937194711	8454.808728312	1.5	0.1
0.01	1	0.00200213400057692	1	64	38.2094736999998	NA	1	0	0	1	38.0881689739999	38.0901711080005	"1"	8462.937194711	8454.808728312	1.5	0.1
0.01	1	0.538151538999955	1	102	NA	71.2857338929998	0	0.73	0.73	1	40.2585168240003	40.7966683630002	"2"	8462.937194711	8454.808728312	1.5	0.1
0.01	1	0.00457618000018556	1	102	NA	71.2857338929998	0	0.73	0.73	1	41.0264764949998	41.031052675	"2"	8462.937194711	8454.808728312	1.5	0.1
0.01	1	0.0641030670003602	1	102	NA	71.2857338929998	0	0.73	0.73	1	41.260259185	41.3243622520004	"2"	8462.937194711	8454.808728312	1.5	0.1
0.01	1	0.00444103900008486	1	102	NA	71.2857338929998	0	0.73	0.73	1	41.5606497010003	41.5650907400004	"2"	8462.937194711	8454.808728312	1.5	0.1
0.01	1	0.009706886999993	1	102	NA	71.2857338929998	0	0.73	0.73	1	41.7944636100001	41.8041704970001	"2"	8462.937194711	8454.808728312	1.5	0.1
0.01	1	0.0574431650002225	1	102	NA	71.2857338929998	0	0.73	0.73	1	42.0280651049998	42.08550827	"2"	8462.937194711	8454.808728312	1.5	0.1
0.01	1	0.00207339499957016	1	102	NA	71.2857338929998	0	0.73	0.73	1	42.3117671190003	42.3138405139998	"2"	8462.937194711	8454.808728312	1.5	0.1
0.01	1	0.0748534800004563	1	102	NA	71.2857338929998	0	0.73	0.73	1	42.5456928809999	42.6205463610004	"2"	8462.937194711	8454.808728312	1.5	0.1
0.01	1	0.00459397499980696	1	102	NA	71.2857338929998	0	0.73	0.73	1	42.8462573950001	42.8508513699999	"2"	8462.937194711	8454.808728312	1.5	0.1
0.01	1	0.213240752000274	1	102	NA	71.2857338929998	0	0.73	0.73	1	43.0799746299999	43.2932153820002	"2"	8462.937194711	8454.808728312	1.5	0.1
0.01	1	0.113419291000355	1	102	NA	71.2857338929998	0	0.73	0.73	1	43.5307208849999	43.6441401760003	"2"	8462.937194711	8454.808728312	1.5	0.1
0.01	1	0.00387946099999681	1	102	NA	71.2857338929998	0	0.73	0.73	1	43.8811935720005	43.8850730330005	"2"	8462.937194711	8454.808728312	1.5	0.1
0.01	1	0.0666052529995795	1	102	NA	71.2857338929998	0	0.73	0.73	1	44.1149266700004	44.181531923	"2"	8462.937194711	8454.808728312	1.5	0.1
0.01	1	0.00377830400066159	1	102	NA	71.2857338929998	0	0.73	0.73	1	44.4155214069997	44.4192997110003	"2"	8462.937194711	8454.808728312	1.5	0.1
0.01	1	0.0756120699998064	1	102	NA	71.2857338929998	0	0.73	0.73	1	44.6492399520002	44.7248520220001	"2"	8462.937194711	8454.808728312	1.5	0.1
0.01	1	0.00456197200037423	1	102	NA	71.2857338929998	0	0.73	0.73	1	44.9497672099997	44.954329182	"2"	8462.937194711	8454.808728312	1.5	0.1
0.01	1	0.0849719259995254	1	102	NA	71.2857338929998	0	0.73	0.73	1	45.1834019670005	45.268373893	"2"	8462.937194711	8454.808728312	1.5	0.1
0.01	1	0.00401259299997037	1	102	NA	71.2857338929998	0	0.73	0.73	1	45.5006392900004	45.5046518830004	"2"	8462.937194711	8454.808728312	1.5	0.1
0.01	1	0.0629451129998415	1	102	NA	71.2857338929998	0	0.73	0.73	1	45.7344213200004	45.7973664330002	"2"	8462.937194711	8454.808728312	1.5	0.1
0.01	1	0.105534184000135	1	102	NA	71.2857338929998	0	0.73	0.73	1	46.0348105849998	46.140344769	"2"	8462.937194711	8454.808728312	1.5	0.1
0.01	1	0.0761048049998863	1	102	NA	71.2857338929998	0	0.73	0.73	1	46.3688053650003	46.4449101700002	"2"	8462.937194711	8454.808728312	1.5	0.1
0.01	1	0.00398788200072886	1	102	NA	71.2857338929998	0	0.73	0.73	1	46.6693516349997	46.6733395170004	"2"	8462.937194711	8454.808728312	1.5	0.1
0.01	1	0.0618258810000043	1	102	NA	71.2857338929998	0	0.73	0.73	1	46.9029528700003	46.9647787510003	"2"	8462.937194711	8454.808728312	1.5	0.1
0.01	1	0.0039107469992814	1	102	NA	71.2857338929998	0	0.73	0.73	1	47.2035005320004	47.2074112789996	"2"	8462.937194711	8454.808728312	1.5	0.1
0.01	1	0.0555869510008051	1	102	NA	71.2857338929998	0	0.73	0.73	1	47.4372377299997	47.4928246810005	"2"	8462.937194711	8454.808728312	1.5	0.1
0.01	1	0.100249617000372	1	102	NA	71.2857338929998	0	0.73	0.73	1	47.7210220249999	47.8212716420003	"2"	8462.937194711	8454.808728312	1.5	0.1
0.01	1	0.00372832700031722	1	102	NA	71.2857338929998	0	0.73	0.73	1	48.0549132320002	48.0586415590005	"2"	8462.937194711	8454.808728312	1.5	0.1
0.01	1	0.0921858230003636	1	102	NA	71.2857338929998	0	0.73	0.73	1	48.2887124899999	48.3808983130002	"2"	8462.937194711	8454.808728312	1.5	0.1
0.01	1	0.00387110599967855	1	102	NA	71.2857338929998	0	0.73	0.73	1	48.605932077	48.6098031829997	"2"	8462.937194711	8454.808728312	1.5	0.1
0.01	1	0.00393620999966515	1	102	NA	71.2857338929998	0	0.73	0.73	1	48.8396009050002	48.8435371149999	"2"	8462.937194711	8454.808728312	1.5	0.1
0.01	1	0.00373366199983138	1	102	NA	71.2857338929998	0	0.73	0.73	1	49.0733440350004	49.0770776970003	"2"	8462.937194711	8454.808728312	1.5	0.1
0.01	1	0.00446954400013055	1	102	NA	71.2857338929998	0	0.73	0.73	1	49.307017051	49.3114865950001	"2"	8462.937194711	8454.808728312	1.5	0.1
0.01	1	0.00399058099992544	1	102	NA	71.2857338929998	0	0.73	0.73	1	49.5407439199998	49.5447345009998	"2"	8462.937194711	8454.808728312	1.5	0.1
0.01	1	0.0853025699998398	1	102	NA	71.2857338929998	0	0.73	0.73	1	49.7746121150003	49.8599146850001	"2"	8462.937194711	8454.808728312	1.5	0.1
0.01	1	0.00332224599969777	1	102	NA	71.2857338929998	0	0.73	0.73	1	50.0917258130003	50.095048059	"2"	8462.937194711	8454.808728312	1.5	0.1
0.01	1	0.00387366099948849	1	102	NA	71.2857338929998	0	0.73	0.73	1	50.3254028520005	50.329276513	"2"	8462.937194711	8454.808728312	1.5	0.1
0.01	1	0.0217371329999878	1	102	NA	71.2857338929998	0	0.73	0.73	1	50.5591911000001	50.5809282330001	"2"	8462.937194711	8454.808728312	1.5	0.1
0.01	1	0.0032705839994378	1	102	NA	71.2857338929998	0	0.73	0.73	1	50.8095351390002	50.8128057229997	"2"	8462.937194711	8454.808728312	1.5	0.1
0.01	1	0.00374527300027694	1	102	NA	71.2857338929998	0	0.73	0.73	1	51.0432556719998	51.047000945	"2"	8462.937194711	8454.808728312	1.5	0.1
0.01	1	0.00456795500031149	1	102	NA	71.2857338929998	0	0.73	0.73	1	51.2771278299997	51.281695785	"2"	8462.937194711	8454.808728312	1.5	0.1
0.01	1	0.13472088600065	1	102	NA	71.2857338929998	0	0.73	0.73	1	51.5106757129997	51.6453965990004	"2"	8462.937194711	8454.808728312	1.5	0.1
0.01	1	0.00377353699968808	1	102	NA	71.2857338929998	0	0.73	0.73	1	51.8779512820001	51.8817248189998	"2"	8462.937194711	8454.808728312	1.5	0.1
0.01	1	0.117414643000302	1	102	NA	71.2857338929998	0	0.73	0.73	1	52.1116314769997	52.22904612	"2"	8462.937194711	8454.808728312	1.5	0.1
0.01	1	0.00391143599972565	1	102	NA	71.2857338929998	0	0.73	0.73	1	52.4622405050004	52.4661519410001	"2"	8462.937194711	8454.808728312	1.5	0.1
0.01	1	0.604771545999938	1	102	NA	71.2857338929998	0	0.73	0.73	1	52.6960800200004	53.3008515660003	"2"	8462.937194711	8454.808728312	1.5	0.1
0.01	1	0.338503713999671	1	102	NA	71.2857338929998	0	0.73	0.73	1	53.5308326650002	53.8693363789998	"2"	8462.937194711	8454.808728312	1.5	0.1
0.01	1	0.402047051999944	1	102	NA	71.2857338929998	0	0.73	0.73	1	54.0984148369998	54.5004618889998	"2"	8462.937194711	8454.808728312	1.5	0.1
0.01	1	0.480338366999604	1	102	NA	71.2857338929998	0	0.73	0.73	1	54.7329557700004	55.213294137	"2"	8462.937194711	8454.808728312	1.5	0.1
0.01	1	0.52917010300007	1	102	NA	71.2857338929998	0	0.73	0.73	1	55.4506657700003	55.9798358730004	"2"	8462.937194711	8454.808728312	1.5	0.1
0.01	1	0.435589779000111	1	102	NA	71.2857338929998	0	0.73	0.73	1	56.201917632	56.6375074110001	"2"	8462.937194711	8454.808728312	1.5	0.1
0.01	1	0.382876448000388	1	102	NA	71.2857338929998	0	0.73	0.73	1	56.8698798400001	57.2527562880005	"2"	8462.937194711	8454.808728312	1.5	0.1
0.01	1	0.38149626700033	1	102	NA	71.2857338929998	0	0.73	0.73	1	57.4874970370001	57.8689933040005	"2"	8462.937194711	8454.808728312	1.5	0.1
0.01	1	0.396476064999661	1	102	NA	71.2857338929998	0	0.73	0.73	1	58.1052259220005	58.5017019870002	"2"	8462.937194711	8454.808728312	1.5	0.1
0.01	1	0.336241176999465	1	102	NA	71.2857338929998	0	0.73	0.73	1	58.7396328000004	59.0758739769999	"2"	8462.937194711	8454.808728312	1.5	0.1
0.01	1	0.314183586000581	1	102	NA	71.2857338929998	0	0.73	0.73	1	59.3072510749998	59.6214346610004	"2"	8462.937194711	8454.808728312	1.5	0.1
0.01	1	0.299154853999426	1	102	NA	71.2857338929998	0	0.73	0.73	1	59.8582361050003	60.1573909589997	"2"	8462.937194711	8454.808728312	1.5	0.1
0.01	1	0.339239592999547	1	102	NA	71.2857338929998	0	0.73	0.73	1	60.3924218900002	60.7316614829997	"2"	8462.937194711	8454.808728312	1.5	0.1
0.01	1	0.333384379999188	1	102	NA	71.2857338929998	0	0.73	0.73	1	60.9600805400005	61.2934649199997	"2"	8462.937194711	8454.808728312	1.5	0.1
0.01	1	0.325517192000007	1	102	NA	71.2857338929998	0	0.73	0.73	1	61.5275852370005	61.8531024290005	"2"	8462.937194711	8454.808728312	1.5	0.1
0.01	1	0.317219810999632	1	102	NA	71.2857338929998	0	0.73	0.73	1	62.0784588050001	62.3956786159997	"2"	8462.937194711	8454.808728312	1.5	0.1
0.01	1	0.302980834999289	1	102	NA	71.2857338929998	0	0.73	0.73	1	62.6294217450004	62.9324025799997	"2"	8462.937194711	8454.808728312	1.5	0.1
0.01	1	0.297241104999557	1	102	NA	71.2857338929998	0	0.73	0.73	1	63.1636428720003	63.4608839769999	"2"	8462.937194711	8454.808728312	1.5	0.1
0.01	1	0.337927903000491	1	102	NA	71.2857338929998	0	0.73	0.73	1	63.6978507169997	64.0357786200002	"2"	8462.937194711	8454.808728312	1.5	0.1
0.01	1	0.722223880000456	1	102	NA	71.2857338929998	0	0.73	0.73	1	64.265599972	64.9878238520005	"2"	8462.937194711	8454.808728312	1.5	0.1
0.01	1	0.348479125999802	1	102	NA	71.2857338929998	0	0.73	0.73	1	65.2170863649999	65.5655654909997	"2"	8462.937194711	8454.808728312	1.5	0.1
0.01	1	0.299461997000435	1	102	NA	71.2857338929998	0	0.73	0.73	1	65.8015707300001	66.1010327270005	"2"	8462.937194711	8454.808728312	1.5	0.1
0.01	1	0.260649984999873	1	102	NA	71.2857338929998	0	0.73	0.73	1	66.3357593350001	66.59640932	"2"	8462.937194711	8454.808728312	1.5	0.1
0.01	1	0.328749412999969	1	102	NA	71.2857338929998	0	0.73	0.73	1	66.8198081370001	67.1485575500001	"2"	8462.937194711	8454.808728312	1.5	0.1
0.01	1	0.393995762000486	1	102	NA	71.2857338929998	0	0.73	0.73	1	67.3707508449997	67.7647466070002	"2"	8462.937194711	8454.808728312	1.5	0.1
0.01	1	0.49599157800003	1	102	NA	71.2857338929998	0	0.73	0.73	1	67.9884301350003	68.4844217130003	"2"	8462.937194711	8454.808728312	1.5	0.1
0.01	1	0.345057838000685	1	102	NA	71.2857338929998	0	0.73	0.73	1	68.7231477249998	69.0682055630004	"2"	8462.937194711	8454.808728312	1.5	0.1
0.01	1	0.54525194100006	1	102	NA	71.2857338929998	0	0.73	0.73	1	69.2907328330002	69.8359847740003	"2"	8462.937194711	8454.808728312	1.5	0.1
0.01	1	0.298130995000065	1	102	NA	71.2857338929998	0	0.73	0.73	1	70.0586317850002	70.3567627800003	"2"	8462.937194711	8454.808728312	1.5	0.1
0.01	1	0.691291654999986	2	102	NA	71.2857338929998	0	0.73	0.73	1	70.5928719849999	71.2841636399999	"2"	8462.937194711	8454.808728312	1.5	0.1
0.01	1	1.28500686200005	1	97	NA	111.464759652	0	0.950000000000001	1.68	1	73.3307880749999	74.6157949369999	"3"	8462.937194711	8454.808728312	1.5	0.1
0.01	1	0.00396714899943618	1	97	NA	111.464759652	0	0.950000000000001	1.68	1	74.8500071420003	74.8539742909998	"3"	8462.937194711	8454.808728312	1.5	0.1
0.01	1	0.00383166299980076	1	97	NA	111.464759652	0	0.950000000000001	1.68	1	75.0837860600004	75.0876177230002	"3"	8462.937194711	8454.808728312	1.5	0.1
0.01	1	0.00346501700005319	1	97	NA	111.464759652	0	0.950000000000001	1.68	1	75.3174752920004	75.3209403090004	"3"	8462.937194711	8454.808728312	1.5	0.1
0.01	1	0.00363743099933345	1	97	NA	111.464759652	0	0.950000000000001	1.68	1	75.5512023520005	75.5548397829998	"3"	8462.937194711	8454.808728312	1.5	0.1
0.01	1	0.00412629000038578	1	97	NA	111.464759652	0	0.950000000000001	1.68	1	75.7850970019999	75.7892232920003	"3"	8462.937194711	8454.808728312	1.5	0.1
0.01	1	0.00455035499999212	1	97	NA	111.464759652	0	0.950000000000001	1.68	1	76.0187137250005	76.0232640800004	"3"	8462.937194711	8454.808728312	1.5	0.1
0.01	1	0.00397761200019886	1	97	NA	111.464759652	0	0.950000000000001	1.68	1	76.2523593850001	76.2563369970003	"3"	8462.937194711	8454.808728312	1.5	0.1
0.01	1	0.0033029140004146	1	97	NA	111.464759652	0	0.950000000000001	1.68	1	76.486055499	76.4893584130004	"3"	8462.937194711	8454.808728312	1.5	0.1
0.01	1	0.00354217299991433	1	97	NA	111.464759652	0	0.950000000000001	1.68	1	76.7198058200001	76.7233479930001	"3"	8462.937194711	8454.808728312	1.5	0.1
0.01	1	0.00376123299975006	1	97	NA	111.464759652	0	0.950000000000001	1.68	1	76.9534531720001	76.9572144049998	"3"	8462.937194711	8454.808728312	1.5	0.1
0.01	1	0.00377036000008957	1	97	NA	111.464759652	0	0.950000000000001	1.68	1	77.1873230849997	77.1910934449998	"3"	8462.937194711	8454.808728312	1.5	0.1
0.01	1	0.00388271999963763	1	97	NA	111.464759652	0	0.950000000000001	1.68	1	77.4209542950002	77.4248370149999	"3"	8462.937194711	8454.808728312	1.5	0.1
0.01	1	0.00366295000003447	1	97	NA	111.464759652	0	0.950000000000001	1.68	1	77.6546781249999	77.658341075	"3"	8462.937194711	8454.808728312	1.5	0.1
0.01	1	0.00395802299954084	1	97	NA	111.464759652	0	0.950000000000001	1.68	1	77.8883410600001	77.8922990829997	"3"	8462.937194711	8454.808728312	1.5	0.1
0.01	1	0.00403443000050174	1	97	NA	111.464759652	0	0.950000000000001	1.68	1	78.122197015	78.1262314450005	"3"	8462.937194711	8454.808728312	1.5	0.1
0.01	1	0.00370960599957471	1	97	NA	111.464759652	0	0.950000000000001	1.68	1	78.3559328950005	78.3596425010001	"3"	8462.937194711	8454.808728312	1.5	0.1
0.01	1	0.00378047100002732	1	97	NA	111.464759652	0	0.950000000000001	1.68	1	78.5895669020001	78.5933473730001	"3"	8462.937194711	8454.808728312	1.5	0.1
0.01	1	0.00457094499961386	1	97	NA	111.464759652	0	0.950000000000001	1.68	1	78.8233439300002	78.8279148749998	"3"	8462.937194711	8454.808728312	1.5	0.1
0.01	1	0.342186841000512	1	97	NA	111.464759652	0	0.950000000000001	1.68	1	79.0569630319997	79.3991498730002	"3"	8462.937194711	8454.808728312	1.5	0.1
0.01	1	0.00428846300019359	1	97	NA	111.464759652	0	0.950000000000001	1.68	1	79.624744447	79.6290329100002	"3"	8462.937194711	8454.808728312	1.5	0.1
0.01	1	0.0369901819994993	1	97	NA	111.464759652	0	0.950000000000001	1.68	1	79.8584832980005	79.89547348	"3"	8462.937194711	8454.808728312	1.5	0.1
0.01	1	0.00396144899968931	1	97	NA	111.464759652	0	0.950000000000001	1.68	1	80.1255040920005	80.1294655410002	"3"	8462.937194711	8454.808728312	1.5	0.1
0.01	1	0.0473882690002938	1	97	NA	111.464759652	0	0.950000000000001	1.68	1	80.3593135199999	80.4067017890002	"3"	8462.937194711	8454.808728312	1.5	0.1
0.01	1	0.00428478599951632	1	97	NA	111.464759652	0	0.950000000000001	1.68	1	80.6430487240004	80.64733351	"3"	8462.937194711	8454.808728312	1.5	0.1
0.01	1	0.0337001430007149	1	97	NA	111.464759652	0	0.950000000000001	1.68	1	80.8768880039997	80.9105881470005	"3"	8462.937194711	8454.808728312	1.5	0.1
0.01	1	0.00392771499991795	1	97	NA	111.464759652	0	0.950000000000001	1.68	1	81.143862682	81.1477903969999	"3"	8462.937194711	8454.808728312	1.5	0.1
0.01	1	0.0530837400001474	1	97	NA	111.464759652	0	0.950000000000001	1.68	1	81.3775620500001	81.4306457900002	"3"	8462.937194711	8454.808728312	1.5	0.1
0.01	1	0.00381251899943891	1	97	NA	111.464759652	0	0.950000000000001	1.68	1	81.6614004020003	81.6652129209997	"3"	8462.937194711	8454.808728312	1.5	0.1
0.01	1	0.096182310999211	1	97	NA	111.464759652	0	0.950000000000001	1.68	1	81.8951508010005	81.9913331119997	"3"	8462.937194711	8454.808728312	1.5	0.1
0.01	1	0.00332614400031161	1	97	NA	111.464759652	0	0.950000000000001	1.68	1	82.229118231	82.2324443750003	"3"	8462.937194711	8454.808728312	1.5	0.1
0.01	1	0.127291263999723	1	97	NA	111.464759652	0	0.950000000000001	1.68	1	82.4628049080002	82.5900961719999	"3"	8462.937194711	8454.808728312	1.5	0.1
0.01	1	0.297898155000439	1	97	NA	111.464759652	0	0.950000000000001	1.68	1	82.8133727619997	83.1112709170002	"3"	8462.937194711	8454.808728312	1.5	0.1
0.01	1	0.00298654000016541	1	97	NA	111.464759652	0	0.950000000000001	1.68	1	83.347655605	83.3506421450002	"3"	8462.937194711	8454.808728312	1.5	0.1
0.01	1	0.00370778900014557	1	97	NA	111.464759652	0	0.950000000000001	1.68	1	83.58137953	83.5850873190002	"3"	8462.937194711	8454.808728312	1.5	0.1
0.01	1	0.127984398999615	1	97	NA	111.464759652	0	0.950000000000001	1.68	1	83.8151052650001	83.9430896639997	"3"	8462.937194711	8454.808728312	1.5	0.1
0.01	1	0.00451311699998769	1	97	NA	111.464759652	0	0.950000000000001	1.68	1	84.165683665	84.1701967819999	"3"	8462.937194711	8454.808728312	1.5	0.1
0.01	1	0.0160137210004905	1	97	NA	111.464759652	0	0.950000000000001	1.68	1	84.3993265019999	84.4153402230004	"3"	8462.937194711	8454.808728312	1.5	0.1
0.01	1	0.00329824199980067	1	97	NA	111.464759652	0	0.950000000000001	1.68	1	84.6498298510005	84.6531280930003	"3"	8462.937194711	8454.808728312	1.5	0.1
0.01	1	0.00278264899952774	1	97	NA	111.464759652	0	0.950000000000001	1.68	1	84.8834608650004	84.8862435139999	"3"	8462.937194711	8454.808728312	1.5	0.1
0.01	1	0.265653864999877	1	97	NA	111.464759652	0	0.950000000000001	1.68	1	85.1172009020001	85.382854767	"3"	8462.937194711	8454.808728312	1.5	0.1
0.01	1	0.00458729999991192	1	97	NA	111.464759652	0	0.950000000000001	1.68	1	85.6181417750004	85.6227290750003	"3"	8462.937194711	8454.808728312	1.5	0.1
0.01	1	0.386226235999857	1	97	NA	111.464759652	0	0.950000000000001	1.68	1	85.8518235370002	86.2380497730001	"3"	8462.937194711	8454.808728312	1.5	0.1
0.01	1	0.0032861480003703	1	97	NA	111.464759652	0	0.950000000000001	1.68	1	86.4695139249998	86.4728000730001	"3"	8462.937194711	8454.808728312	1.5	0.1
0.01	1	0.00380335000045307	1	97	NA	111.464759652	0	0.950000000000001	1.68	1	86.7031514649998	86.7069548150002	"3"	8462.937194711	8454.808728312	1.5	0.1
0.01	1	0.00335828799961746	1	97	NA	111.464759652	0	0.950000000000001	1.68	1	86.9369655850005	86.9403238730001	"3"	8462.937194711	8454.808728312	1.5	0.1
0.01	1	0.00342464000004838	1	97	NA	111.464759652	0	0.950000000000001	1.68	1	87.1706241669999	87.174048807	"3"	8462.937194711	8454.808728312	1.5	0.1
0.01	1	0.00325696999971115	1	97	NA	111.464759652	0	0.950000000000001	1.68	1	87.4043840430004	87.4076410130001	"3"	8462.937194711	8454.808728312	1.5	0.1
0.01	1	0.00354400899959728	1	97	NA	111.464759652	0	0.950000000000001	1.68	1	87.6381129800002	87.6416569889998	"3"	8462.937194711	8454.808728312	1.5	0.1
0.01	1	0.511233752000408	1	97	NA	111.464759652	0	0.950000000000001	1.68	1	87.8719577499996	88.383191502	"3"	8462.937194711	8454.808728312	1.5	0.1
0.01	1	0.256029696000041	1	97	NA	111.464759652	0	0.950000000000001	1.68	1	88.606417942	88.862447638	"3"	8462.937194711	8454.808728312	1.5	0.1
0.01	1	0.0070820780001668	1	97	NA	111.464759652	0	0.950000000000001	1.68	1	89.0905463250001	89.0976284030003	"3"	8462.937194711	8454.808728312	1.5	0.1
0.01	1	0.194275489000574	1	97	NA	111.464759652	0	0.950000000000001	1.68	1	89.3243242919998	89.5185997810004	"3"	8462.937194711	8454.808728312	1.5	0.1
0.01	1	0.144966270999248	1	97	NA	111.464759652	0	0.950000000000001	1.68	1	89.7584394100004	89.9034056809996	"3"	8462.937194711	8454.808728312	1.5	0.1
0.01	1	0.00454071500007558	1	97	NA	111.464759652	0	0.950000000000001	1.68	1	90.1257937150003	90.1303344300004	"3"	8462.937194711	8454.808728312	1.5	0.1
0.01	1	0.0874117610001122	1	97	NA	111.464759652	0	0.950000000000001	1.68	1	90.3593551900003	90.4467669510004	"3"	8462.937194711	8454.808728312	1.5	0.1
0.01	1	0.00329283799965197	1	97	NA	111.464759652	0	0.950000000000001	1.68	1	90.6765924270003	90.6798852649999	"3"	8462.937194711	8454.808728312	1.5	0.1
0.01	1	0.0966888170005404	1	97	NA	111.464759652	0	0.950000000000001	1.68	1	90.91037865	91.0070674670005	"3"	8462.937194711	8454.808728312	1.5	0.1
0.01	1	0.0597025609995399	1	97	NA	111.464759652	0	0.950000000000001	1.68	1	91.2441944350003	91.3038969959998	"3"	8462.937194711	8454.808728312	1.5	0.1
0.01	1	0.350298758999998	1	97	NA	111.464759652	0	0.950000000000001	1.68	1	91.5281061699998	91.8784049289998	"3"	8462.937194711	8454.808728312	1.5	0.1
0.01	1	0.278773580999768	1	97	NA	111.464759652	0	0.950000000000001	1.68	1	92.1123988400004	92.3911724210002	"3"	8462.937194711	8454.808728312	1.5	0.1
0.01	1	0.280586433999815	1	97	NA	111.464759652	0	0.950000000000001	1.68	1	92.6299729350003	92.9105593690001	"3"	8462.937194711	8454.808728312	1.5	0.1
0.01	1	0.00462444699951448	1	97	NA	111.464759652	0	0.950000000000001	1.68	1	93.1475368050005	93.152161252	"3"	8462.937194711	8454.808728312	1.5	0.1
0.01	1	0.114300496999931	1	97	NA	111.464759652	0	0.950000000000001	1.68	1	93.3810353950003	93.4953358920002	"3"	8462.937194711	8454.808728312	1.5	0.1
0.01	1	0.170986380000613	1	97	NA	111.464759652	0	0.950000000000001	1.68	1	93.7317368599997	93.9027232400003	"3"	8462.937194711	8454.808728312	1.5	0.1
0.01	1	0.435067971000535	1	97	NA	111.464759652	0	0.950000000000001	1.68	1	94.1324353669997	94.5675033380003	"3"	8462.937194711	8454.808728312	1.5	0.1
0.01	1	0.00329743599922949	1	97	NA	111.464759652	0	0.950000000000001	1.68	1	94.8002128690005	94.8035103049997	"3"	8462.937194711	8454.808728312	1.5	0.1
0.01	1	0.405781593999563	1	97	NA	111.464759652	0	0.950000000000001	1.68	1	95.0339413500005	95.4397229440001	"3"	8462.937194711	8454.808728312	1.5	0.1
0.01	1	0.0037827380001545	1	97	NA	111.464759652	0	0.950000000000001	1.68	1	95.6683529769998	95.672135715	"3"	8462.937194711	8454.808728312	1.5	0.1
0.01	1	0.136565714999961	1	97	NA	111.464759652	0	0.950000000000001	1.68	1	95.9021315150003	96.0386972300003	"3"	8462.937194711	8454.808728312	1.5	0.1
0.01	1	0.0892826409999543	1	97	NA	111.464759652	0	0.950000000000001	1.68	1	96.2694270120001	96.358709653	"3"	8462.937194711	8454.808728312	1.5	0.1
0.01	1	0.0289467880002121	1	97	NA	111.464759652	0	0.950000000000001	1.68	1	96.5866147950001	96.6155615830003	"3"	8462.937194711	8454.808728312	1.5	0.1
0.01	1	0.440980080999907	1	97	NA	111.464759652	0	0.950000000000001	1.68	1	96.8537286000001	97.294708681	"3"	8462.937194711	8454.808728312	1.5	0.1
0.01	1	0.00460899199970299	1	97	NA	111.464759652	0	0.950000000000001	1.68	1	97.5215736500004	97.5261826420001	"3"	8462.937194711	8454.808728312	1.5	0.1
0.01	1	0.483882485999857	1	97	NA	111.464759652	0	0.950000000000001	1.68	1	97.7551523749999	98.2390348609997	"3"	8462.937194711	8454.808728312	1.5	0.1
0.01	1	0.00384929000028933	1	97	NA	111.464759652	0	0.950000000000001	1.68	1	98.4730801349997	98.476929425	"3"	8462.937194711	8454.808728312	1.5	0.1
0.01	1	0.172502778999842	1	97	NA	111.464759652	0	0.950000000000001	1.68	1	98.7067544740003	98.8792572530001	"3"	8462.937194711	8454.808728312	1.5	0.1
0.01	1	0.00208207800005766	1	97	NA	111.464759652	0	0.950000000000001	1.68	1	99.1074625829997	99.1095446609997	"3"	8462.937194711	8454.808728312	1.5	0.1
0.01	1	0.290206360999946	1	97	NA	111.464759652	0	0.950000000000001	1.68	1	99.3411634800004	99.6313698410004	"3"	8462.937194711	8454.808728312	1.5	0.1
0.01	1	0.00464284200006659	1	97	NA	111.464759652	0	0.950000000000001	1.68	1	99.8588514499997	99.8634942919998	"3"	8462.937194711	8454.808728312	1.5	0.1
0.01	1	0.489617477000138	1	97	NA	111.464759652	0	0.950000000000001	1.68	1	100.092364563	100.58198204	"3"	8462.937194711	8454.808728312	1.5	0.1
0.01	1	0.00452410999969288	1	97	NA	111.464759652	0	0.950000000000001	1.68	1	100.810340125	100.814864235	"3"	8462.937194711	8454.808728312	1.5	0.1
0.01	1	0.146814638000251	1	97	NA	111.464759652	0	0.950000000000001	1.68	1	101.044083955	101.190898593	"3"	8462.937194711	8454.808728312	1.5	0.1
0.01	1	0.00370674000077997	1	97	NA	111.464759652	0	0.950000000000001	1.68	1	101.428035405	101.431742145	"3"	8462.937194711	8454.808728312	1.5	0.1
0.01	1	0.482188875999782	1	97	NA	111.464759652	0	0.950000000000001	1.68	1	101.661802845	102.143991721	"3"	8462.937194711	8454.808728312	1.5	0.1
0.01	1	0.851328509000268	1	97	NA	111.464759652	0	0.950000000000001	1.68	1	102.3797032	103.231031709	"3"	8462.937194711	8454.808728312	1.5	0.1
0.01	1	0.00387419799972122	1	97	NA	111.464759652	0	0.950000000000001	1.68	1	103.464811235001	103.468685433	"3"	8462.937194711	8454.808728312	1.5	0.1
0.01	1	0.812504079999599	1	97	NA	111.464759652	0	0.950000000000001	1.68	1	103.698531517	104.511035597	"3"	8462.937194711	8454.808728312	1.5	0.1
0.01	1	0.353418984999735	1	97	NA	111.464759652	0	0.950000000000001	1.68	1	104.733562465	105.08698145	"3"	8462.937194711	8454.808728312	1.5	0.1
0.01	1	2.43253912599994	1	97	NA	111.464759652	0	0.950000000000001	1.68	1	105.317892041	107.750431167	"3"	8462.937194711	8454.808728312	1.5	0.1
0.01	1	0.00459955999940576	1	97	NA	111.464759652	0	0.950000000000001	1.68	1	107.97245619	107.97705575	"3"	8462.937194711	8454.808728312	1.5	0.1
0.01	1	0.217120550999425	1	97	NA	111.464759652	0	0.950000000000001	1.68	1	108.206231095	108.423351646	"3"	8462.937194711	8454.808728312	1.5	0.1
0.01	1	0.350596485000096	1	97	NA	111.464759652	0	0.950000000000001	1.68	1	108.656847525	109.00744401	"3"	8462.937194711	8454.808728312	1.5	0.1
0.01	1	0.326628619000076	1	97	NA	111.464759652	0	0.950000000000001	1.68	1	109.24121077	109.567839389	"3"	8462.937194711	8454.808728312	1.5	0.1
0.01	1	0.783497035000437	1	97	NA	111.464759652	0	0.950000000000001	1.68	1	109.792076545	110.57557358	"3"	8462.937194711	8454.808728312	1.5	0.1
0.01	1	0.652669424999658	2	97	NA	111.464759652	0	0.950000000000001	1.68	1	110.81056316	111.463232585	"3"	8462.937194711	8454.808728312	1.5	0.1
0.01	1	1.21212345399999	1	51	126.54084599	NA	1	0	1.68	1	113.515031472	114.727154926	"4"	8462.937194711	8454.808728312	1.5	0.1
0.01	1	0.00386384299963538	1	51	126.54084599	NA	1	0	1.68	1	114.967479672	114.971343515	"4"	8462.937194711	8454.808728312	1.5	0.1
0.01	1	0.00434088299971336	1	51	126.54084599	NA	1	0	1.68	1	115.201223177	115.20556406	"4"	8462.937194711	8454.808728312	1.5	0.1
0.01	1	0.00444034299925988	1	51	126.54084599	NA	1	0	1.68	1	115.434878734	115.439319077	"4"	8462.937194711	8454.808728312	1.5	0.1
0.01	1	0.00333010099984676	1	51	126.54084599	NA	1	0	1.68	1	115.66868117	115.672011271	"4"	8462.937194711	8454.808728312	1.5	0.1
0.01	1	0.00393215999974927	1	51	126.54084599	NA	1	0	1.68	1	115.902351185	115.906283345	"4"	8462.937194711	8454.808728312	1.5	0.1
0.01	1	0.00418261100003292	1	51	126.54084599	NA	1	0	1.68	1	116.136141504	116.140324115	"4"	8462.937194711	8454.808728312	1.5	0.1
0.01	1	0.00385399100014183	1	51	126.54084599	NA	1	0	1.68	1	116.36982004	116.373674031001	"4"	8462.937194711	8454.808728312	1.5	0.1
0.01	1	0.0038870609996593	1	51	126.54084599	NA	1	0	1.68	1	116.603628322	116.607515383	"4"	8462.937194711	8454.808728312	1.5	0.1
0.01	1	0.00388880700029404	1	51	126.54084599	NA	1	0	1.68	1	116.83721386	116.841102667	"4"	8462.937194711	8454.808728312	1.5	0.1
0.01	1	0.00389116399946943	1	51	126.54084599	NA	1	0	1.68	1	117.071030355	117.074921519	"4"	8462.937194711	8454.808728312	1.5	0.1
0.01	1	0.00386749799963582	1	51	126.54084599	NA	1	0	1.68	1	117.304800275	117.308667773	"4"	8462.937194711	8454.808728312	1.5	0.1
0.01	1	0.00460462499995629	1	51	126.54084599	NA	1	0	1.68	1	117.538403715	117.54300834	"4"	8462.937194711	8454.808728312	1.5	0.1
0.01	1	0.00332396000067092	1	51	126.54084599	NA	1	0	1.68	1	117.772215751	117.775539711	"4"	8462.937194711	8454.808728312	1.5	0.1
0.01	1	0.00383164100003341	1	51	126.54084599	NA	1	0	1.68	1	118.005796572	118.009628213	"4"	8462.937194711	8454.808728312	1.5	0.1
0.01	1	0.00399558699973568	1	51	126.54084599	NA	1	0	1.68	1	118.239645282	118.243640869	"4"	8462.937194711	8454.808728312	1.5	0.1
0.01	1	0.00396275200000673	1	51	126.54084599	NA	1	0	1.68	1	118.473383475	118.477346227	"4"	8462.937194711	8454.808728312	1.5	0.1
0.01	1	0.00404849299957277	1	51	126.54084599	NA	1	0	1.68	1	118.707126162	118.711174655	"4"	8462.937194711	8454.808728312	1.5	0.1
0.01	1	0.00358125699949596	1	51	126.54084599	NA	1	0	1.68	1	118.94076757	118.944348827	"4"	8462.937194711	8454.808728312	1.5	0.1
0.01	1	0.00394943100036471	1	51	126.54084599	NA	1	0	1.68	1	119.174514722	119.178464153	"4"	8462.937194711	8454.808728312	1.5	0.1
0.01	1	0.00374651099991752	1	51	126.54084599	NA	1	0	1.68	1	119.4081836	119.411930111	"4"	8462.937194711	8454.808728312	1.5	0.1
0.01	1	0.00434915200003161	1	51	126.54084599	NA	1	0	1.68	1	119.641945398	119.64629455	"4"	8462.937194711	8454.808728312	1.5	0.1
0.01	1	0.00383895799950551	1	51	126.54084599	NA	1	0	1.68	1	119.875847985	119.879686943	"4"	8462.937194711	8454.808728312	1.5	0.1
0.01	1	0.00359599300008995	1	51	126.54084599	NA	1	0	1.68	1	120.10940868	120.113004673	"4"	8462.937194711	8454.808728312	1.5	0.1
0.01	1	0.00387667700033489	1	51	126.54084599	NA	1	0	1.68	1	120.343169232	120.347045909	"4"	8462.937194711	8454.808728312	1.5	0.1
0.01	1	0.00356663799993839	1	51	126.54084599	NA	1	0	1.68	1	120.576954957	120.580521595	"4"	8462.937194711	8454.808728312	1.5	0.1
0.01	1	0.00459142700037773	1	51	126.54084599	NA	1	0	1.68	1	120.810713305	120.815304732	"4"	8462.937194711	8454.808728312	1.5	0.1
0.01	1	0.00380419400062237	1	51	126.54084599	NA	1	0	1.68	1	121.044391777	121.048195971	"4"	8462.937194711	8454.808728312	1.5	0.1
0.01	1	0.00344676500026253	1	51	126.54084599	NA	1	0	1.68	1	121.27812419	121.281570955	"4"	8462.937194711	8454.808728312	1.5	0.1
0.01	1	0.00384970999948564	1	51	126.54084599	NA	1	0	1.68	1	121.511819997	121.515669707	"4"	8462.937194711	8454.808728312	1.5	0.1
0.01	1	0.00380383300034737	1	51	126.54084599	NA	1	0	1.68	1	121.745514052	121.749317885	"4"	8462.937194711	8454.808728312	1.5	0.1
0.01	1	0.00390504100050748	1	51	126.54084599	NA	1	0	1.68	1	121.97922579	121.983130831	"4"	8462.937194711	8454.808728312	1.5	0.1
0.01	1	0.0046237469996413	1	51	126.54084599	NA	1	0	1.68	1	122.213021325	122.217645072	"4"	8462.937194711	8454.808728312	1.5	0.1
0.01	1	0.00398663699979807	1	51	126.54084599	NA	1	0	1.68	1	122.446781202	122.450767839	"4"	8462.937194711	8454.808728312	1.5	0.1
0.01	1	0.00366976500026794	1	51	126.54084599	NA	1	0	1.68	1	122.680447382	122.684117147001	"4"	8462.937194711	8454.808728312	1.5	0.1
0.01	1	0.00457426000048144	1	51	126.54084599	NA	1	0	1.68	1	122.914234555	122.918808815	"4"	8462.937194711	8454.808728312	1.5	0.1
0.01	1	0.00398496799971326	1	51	126.54084599	NA	1	0	1.68	1	123.147863387	123.151848355	"4"	8462.937194711	8454.808728312	1.5	0.1
0.01	1	0.0032056919999377	1	51	126.54084599	NA	1	0	1.68	1	123.381634389	123.384840081	"4"	8462.937194711	8454.808728312	1.5	0.1
0.01	1	0.00398706699979812	1	51	126.54084599	NA	1	0	1.68	1	123.61540165	123.619388717	"4"	8462.937194711	8454.808728312	1.5	0.1
0.01	1	0.00459359199976461	1	51	126.54084599	NA	1	0	1.68	1	123.84927209	123.853865682	"4"	8462.937194711	8454.808728312	1.5	0.1
0.01	1	0.00386262700067164	1	51	126.54084599	NA	1	0	1.68	1	124.082842002	124.086704629	"4"	8462.937194711	8454.808728312	1.5	0.1
0.01	1	0.0035591169998952	1	51	126.54084599	NA	1	0	1.68	1	124.31655886	124.320117977	"4"	8462.937194711	8454.808728312	1.5	0.1
0.01	1	0.00352441599989106	1	51	126.54084599	NA	1	0	1.68	1	124.550231227	124.553755643	"4"	8462.937194711	8454.808728312	1.5	0.1
0.01	1	0.00392272999943089	1	51	126.54084599	NA	1	0	1.68	1	124.783975035	124.787897765	"4"	8462.937194711	8454.808728312	1.5	0.1
0.01	1	0.00458152000010159	1	51	126.54084599	NA	1	0	1.68	1	125.01776049	125.02234201	"4"	8462.937194711	8454.808728312	1.5	0.1
0.01	1	0.00361347300076886	1	51	126.54084599	NA	1	0	1.68	1	125.251495322	125.255108795001	"4"	8462.937194711	8454.808728312	1.5	0.1
0.01	1	0.00373997299993789	1	51	126.54084599	NA	1	0	1.68	1	125.48507934	125.488819313	"4"	8462.937194711	8454.808728312	1.5	0.1
0.01	1	0.00460778500018932	1	51	126.54084599	NA	1	0	1.68	1	125.71896079	125.723568575	"4"	8462.937194711	8454.808728312	1.5	0.1
0.01	1	0.00395765600023879	1	51	126.54084599	NA	1	0	1.68	1	125.952596797	125.956554453001	"4"	8462.937194711	8454.808728312	1.5	0.1
0.01	1	0.00410102200021356	1	51	126.54084599	NA	1	0	1.68	1	126.186340817	126.190441839	"4"	8462.937194711	8454.808728312	1.5	0.1
0.01	1	0.00334904200008168	1	51	126.54084599	NA	1	0	1.68	1	126.419966083	126.423315125	"4"	8462.937194711	8454.808728312	1.5	0.1
0.01	1	1.27312958399943	1	116	NA	166.272957627	0	0.880000000000001	2.56	1	128.59042526	129.863554844	"5"	8462.937194711	8454.808728312	1.5	0.1
0.01	1	0.00433866100047453	1	116	NA	166.272957627	0	0.880000000000001	2.56	1	130.092953171	130.097291832	"5"	8462.937194711	8454.808728312	1.5	0.1
0.01	1	0.071626388000368	1	116	NA	166.272957627	0	0.880000000000001	2.56	1	130.326599747	130.398226135	"5"	8462.937194711	8454.808728312	1.5	0.1
0.01	1	0.00369087299986859	1	116	NA	166.272957627	0	0.880000000000001	2.56	1	130.62714278	130.630833653	"5"	8462.937194711	8454.808728312	1.5	0.1
0.01	1	0.0823516129994459	1	116	NA	166.272957627	0	0.880000000000001	2.56	1	130.860862657	130.94321427	"5"	8462.937194711	8454.808728312	1.5	0.1
0.01	1	0.00384684700020443	1	116	NA	166.272957627	0	0.880000000000001	2.56	1	131.17810551	131.181952357	"5"	8462.937194711	8454.808728312	1.5	0.1
0.01	1	0.0513687940001546	1	116	NA	166.272957627	0	0.880000000000001	2.56	1	131.41178861	131.463157404	"5"	8462.937194711	8454.808728312	1.5	0.1
0.01	1	0.00387505699927715	1	116	NA	166.272957627	0	0.880000000000001	2.56	1	131.69568141	131.699556467	"5"	8462.937194711	8454.808728312	1.5	0.1
0.01	1	0.0778012279997711	1	116	NA	166.272957627	0	0.880000000000001	2.56	1	131.929381735	132.007182963	"5"	8462.937194711	8454.808728312	1.5	0.1
0.01	1	0.00386655400052405	1	116	NA	166.272957627	0	0.880000000000001	2.56	1	132.229749085	132.233615639	"5"	8462.937194711	8454.808728312	1.5	0.1
0.01	1	0.128172111999447	1	116	NA	166.272957627	0	0.880000000000001	2.56	1	132.463595740001	132.591767852	"5"	8462.937194711	8454.808728312	1.5	0.1
0.01	1	0.00387120300001698	1	116	NA	166.272957627	0	0.880000000000001	2.56	1	132.814175062	132.818046265	"5"	8462.937194711	8454.808728312	1.5	0.1
0.01	1	0.0628395549993002	1	116	NA	166.272957627	0	0.880000000000001	2.56	1	133.04791506	133.110754615	"5"	8462.937194711	8454.808728312	1.5	0.1
0.01	1	0.00315541199961444	1	116	NA	166.272957627	0	0.880000000000001	2.56	1	133.348354343	133.351509755	"5"	8462.937194711	8454.808728312	1.5	0.1
0.01	1	0.0730426170002829	1	116	NA	166.272957627	0	0.880000000000001	2.56	1	133.58206696	133.655109577	"5"	8462.937194711	8454.808728312	1.5	0.1
0.01	1	0.00369085700003779	1	116	NA	166.272957627	0	0.880000000000001	2.56	1	133.88254383	133.886234687	"5"	8462.937194711	8454.808728312	1.5	0.1
0.01	1	0.0595969870000772	1	116	NA	166.272957627	0	0.880000000000001	2.56	1	134.116305525	134.175902512	"5"	8462.937194711	8454.808728312	1.5	0.1
0.01	1	0.0037706180000896	1	116	NA	166.272957627	0	0.880000000000001	2.56	1	134.400158245	134.403928863	"5"	8462.937194711	8454.808728312	1.5	0.1
0.01	1	0.0939672410004277	1	116	NA	166.272957627	0	0.880000000000001	2.56	1	134.633741037	134.727708278	"5"	8462.937194711	8454.808728312	1.5	0.1
0.01	1	0.00265639200006262	1	116	NA	166.272957627	0	0.880000000000001	2.56	1	134.950957017	134.953613409	"5"	8462.937194711	8454.808728312	1.5	0.1
0.01	1	0.102946412000165	1	116	NA	166.272957627	0	0.880000000000001	2.56	1	135.184820445	135.287766857	"5"	8462.937194711	8454.808728312	1.5	0.1
0.01	1	0.00415792300009343	1	116	NA	166.272957627	0	0.880000000000001	2.56	1	135.518747942	135.522905865	"5"	8462.937194711	8454.808728312	1.5	0.1
0.01	1	0.0700216989998808	1	116	NA	166.272957627	0	0.880000000000001	2.56	1	135.75242315	135.822444849	"5"	8462.937194711	8454.808728312	1.5	0.1
0.01	1	0.105503838000004	1	116	NA	166.272957627	0	0.880000000000001	2.56	1	136.052930705	136.158434543	"5"	8462.937194711	8454.808728312	1.5	0.1
0.01	1	0.00373409200074093	1	116	NA	166.272957627	0	0.880000000000001	2.56	1	136.386882135	136.390616227	"5"	8462.937194711	8454.808728312	1.5	0.1
0.01	1	0.0912532170004852	1	116	NA	166.272957627	0	0.880000000000001	2.56	1	136.62055179	136.711805007	"5"	8462.937194711	8454.808728312	1.5	0.1
0.01	1	0.00398227299956488	1	116	NA	166.272957627	0	0.880000000000001	2.56	1	136.937707322	136.941689595	"5"	8462.937194711	8454.808728312	1.5	0.1
0.01	1	0.0993185209999865	1	116	NA	166.272957627	0	0.880000000000001	2.56	1	137.17146647	137.270784991	"5"	8462.937194711	8454.808728312	1.5	0.1
0.01	1	0.00396775599983812	1	116	NA	166.272957627	0	0.880000000000001	2.56	1	137.505277337	137.509245093	"5"	8462.937194711	8454.808728312	1.5	0.1
0.01	1	0.0764850770001431	1	116	NA	166.272957627	0	0.880000000000001	2.56	1	137.739053542	137.815538619	"5"	8462.937194711	8454.808728312	1.5	0.1
0.01	1	0.00388202499925683	1	116	NA	166.272957627	0	0.880000000000001	2.56	1	138.03960771	138.043489735	"5"	8462.937194711	8454.808728312	1.5	0.1
0.01	1	0.00448043000051257	1	116	NA	166.272957627	0	0.880000000000001	2.56	1	138.27339796	138.27787839	"5"	8462.937194711	8454.808728312	1.5	0.1
0.01	1	0.140216963000057	1	116	NA	166.272957627	0	0.880000000000001	2.56	1	138.506986332	138.647203295001	"5"	8462.937194711	8454.808728312	1.5	0.1
0.01	1	0.00430122399939137	1	116	NA	166.272957627	0	0.880000000000001	2.56	1	138.874355073001	138.878656297	"5"	8462.937194711	8454.808728312	1.5	0.1
0.01	1	0.235151965000114	1	116	NA	166.272957627	0	0.880000000000001	2.56	1	139.10806295	139.343214915	"5"	8462.937194711	8454.808728312	1.5	0.1
0.01	1	0.00331223600005615	1	116	NA	166.272957627	0	0.880000000000001	2.56	1	139.575539113	139.578851349	"5"	8462.937194711	8454.808728312	1.5	0.1
0.01	1	0.125365939999938	1	116	NA	166.272957627	0	0.880000000000001	2.56	1	139.809180772	139.934546712	"5"	8462.937194711	8454.808728312	1.5	0.1
0.01	1	0.214536389999921	1	116	NA	166.272957627	0	0.880000000000001	2.56	1	140.15982953	140.37436592	"5"	8462.937194711	8454.808728312	1.5	0.1
0.01	1	0.0032633420005368	1	116	NA	166.272957627	0	0.880000000000001	2.56	1	140.610623951	140.613887293001	"5"	8462.937194711	8454.808728312	1.5	0.1
0.01	1	0.00456180699984543	1	116	NA	166.272957627	0	0.880000000000001	2.56	1	140.844284975	140.848846782	"5"	8462.937194711	8454.808728312	1.5	0.1
0.01	1	0.00456030699933763	1	116	NA	166.272957627	0	0.880000000000001	2.56	1	141.078134285	141.082694592	"5"	8462.937194711	8454.808728312	1.5	0.1
0.01	1	0.00367460399957054	1	116	NA	166.272957627	0	0.880000000000001	2.56	1	141.311673727	141.315348331	"5"	8462.937194711	8454.808728312	1.5	0.1
0.01	1	0.0221877370004222	1	116	NA	166.272957627	0	0.880000000000001	2.56	1	141.545379372	141.567567109	"5"	8462.937194711	8454.808728312	1.5	0.1
0.01	1	0.0920469129996491	1	116	NA	166.272957627	0	0.880000000000001	2.56	1	141.79584092	141.887887833	"5"	8462.937194711	8454.808728312	1.5	0.1
0.01	1	0.0370273710004767	1	116	NA	166.272957627	0	0.880000000000001	2.56	1	142.11317111	142.150198481	"5"	8462.937194711	8454.808728312	1.5	0.1
0.01	1	0.0343789730004573	1	116	NA	166.272957627	0	0.880000000000001	2.56	1	142.380186865	142.414565838	"5"	8462.937194711	8454.808728312	1.5	0.1
0.01	1	0.096623114999602	1	116	NA	166.272957627	0	0.880000000000001	2.56	1	142.647316775	142.74393989	"5"	8462.937194711	8454.808728312	1.5	0.1
0.01	1	0.0418218730001172	1	116	NA	166.272957627	0	0.880000000000001	2.56	1	142.98119182	143.023013693	"5"	8462.937194711	8454.808728312	1.5	0.1
0.01	1	0.118678061000537	1	116	NA	166.272957627	0	0.880000000000001	2.56	1	143.248437222	143.367115283	"5"	8462.937194711	8454.808728312	1.5	0.1
0.01	1	0.311078022000402	1	116	NA	166.272957627	0	0.880000000000001	2.56	1	143.599065245	143.910143267	"5"	8462.937194711	8454.808728312	1.5	0.1
0.01	1	0.00377750300049229	1	116	NA	166.272957627	0	0.880000000000001	2.56	1	144.13312334	144.136900843	"5"	8462.937194711	8454.808728312	1.5	0.1
0.01	1	0.0964612120005768	1	116	NA	166.272957627	0	0.880000000000001	2.56	1	144.36690132	144.463362532	"5"	8462.937194711	8454.808728312	1.5	0.1
0.01	1	0.426140077000127	1	116	NA	166.272957627	0	0.880000000000001	2.56	1	144.70093622	145.127076297	"5"	8462.937194711	8454.808728312	1.5	0.1
0.01	1	0.00371299099970201	1	116	NA	166.272957627	0	0.880000000000001	2.56	1	145.351970222	145.355683213	"5"	8462.937194711	8454.808728312	1.5	0.1
0.01	1	0.221575243000188	1	116	NA	166.272957627	0	0.880000000000001	2.56	1	145.585616925	145.807192168	"5"	8462.937194711	8454.808728312	1.5	0.1
0.01	1	0.106715975000043	1	116	NA	166.272957627	0	0.880000000000001	2.56	1	146.03646358	146.143179555	"5"	8462.937194711	8454.808728312	1.5	0.1
0.01	1	0.204905880000297	1	116	NA	166.272957627	0	0.880000000000001	2.56	1	146.370169442	146.575075322	"5"	8462.937194711	8454.808728312	1.5	0.1
0.01	1	0.0982754979995661	1	116	NA	166.272957627	0	0.880000000000001	2.56	1	146.804308255	146.902583753	"5"	8462.937194711	8454.808728312	1.5	0.1
0.01	1	0.205322107999564	1	116	NA	166.272957627	0	0.880000000000001	2.56	1	147.13831475	147.343636858	"5"	8462.937194711	8454.808728312	1.5	0.1
0.01	1	0.379537203999462	1	116	NA	166.272957627	0	0.880000000000001	2.56	1	147.57228955	147.951826754	"5"	8462.937194711	8454.808728312	1.5	0.1
0.01	1	0.105432954999742	1	116	NA	166.272957627	0	0.880000000000001	2.56	1	148.189936415	148.29536937	"5"	8462.937194711	8454.808728312	1.5	0.1
0.01	1	0.403654670999458	1	116	NA	166.272957627	0	0.880000000000001	2.56	1	148.5239502	148.927604871	"5"	8462.937194711	8454.808728312	1.5	0.1
0.01	1	0.0890595969995047	1	116	NA	166.272957627	0	0.880000000000001	2.56	1	149.158301512	149.247361109	"5"	8462.937194711	8454.808728312	1.5	0.1
0.01	1	0.427169078000588	1	116	NA	166.272957627	0	0.880000000000001	2.56	1	149.475492492	149.90266157	"5"	8462.937194711	8454.808728312	1.5	0.1
0.01	1	0.311688239999967	1	116	NA	166.272957627	0	0.880000000000001	2.56	1	150.143368911	150.455057151	"5"	8462.937194711	8454.808728312	1.5	0.1
0.01	1	0.610043265000058	1	116	NA	166.272957627	0	0.880000000000001	2.56	1	150.677563677	151.287606942	"5"	8462.937194711	8454.808728312	1.5	0.1
0.01	1	0.629927741000756	1	116	NA	166.272957627	0	0.880000000000001	2.56	1	151.512354365	152.142282106	"5"	8462.937194711	8454.808728312	1.5	0.1
0.01	1	0.321750055999473	1	116	NA	166.272957627	0	0.880000000000001	2.56	1	152.380463250001	152.702213306	"5"	8462.937194711	8454.808728312	1.5	0.1
0.01	1	0.330810858000405	1	116	NA	166.272957627	0	0.880000000000001	2.56	1	152.931217282	153.26202814	"5"	8462.937194711	8454.808728312	1.5	0.1
0.01	1	0.460684087999653	1	116	NA	166.272957627	0	0.880000000000001	2.56	1	153.499000165	153.959684253	"5"	8462.937194711	8454.808728312	1.5	0.1
0.01	1	0.190845527999954	1	116	NA	166.272957627	0	0.880000000000001	2.56	1	154.183435085	154.374280613	"5"	8462.937194711	8454.808728312	1.5	0.1
0.01	1	0.983115719000125	1	116	NA	166.272957627	0	0.880000000000001	2.56	1	154.6009252	155.584040919	"5"	8462.937194711	8454.808728312	1.5	0.1
0.01	1	0.123625303999688	1	116	NA	166.272957627	0	0.880000000000001	2.56	1	155.819477697	155.943103001	"5"	8462.937194711	8454.808728312	1.5	0.1
0.01	1	0.749655887999324	1	116	NA	166.272957627	0	0.880000000000001	2.56	1	156.17013439	156.919790278	"5"	8462.937194711	8454.808728312	1.5	0.1
0.01	1	0.115664546000517	1	116	NA	166.272957627	0	0.880000000000001	2.56	1	157.15522316	157.270887706	"5"	8462.937194711	8454.808728312	1.5	0.1
0.01	1	0.45420034000017	1	116	NA	166.272957627	0	0.880000000000001	2.56	1	157.505639755	157.959840095	"5"	8462.937194711	8454.808728312	1.5	0.1
0.01	1	0.145296707000853	1	116	NA	166.272957627	0	0.880000000000001	2.56	1	158.190146542	158.335443249	"5"	8462.937194711	8454.808728312	1.5	0.1
0.01	1	0.432657561999804	1	116	NA	166.272957627	0	0.880000000000001	2.56	1	158.557506545	158.990164107	"5"	8462.937194711	8454.808728312	1.5	0.1
0.01	1	0.429501767000147	1	116	NA	166.272957627	0	0.880000000000001	2.56	1	159.225251877	159.654753644	"5"	8462.937194711	8454.808728312	1.5	0.1
0.01	1	0.394421176999458	1	116	NA	166.272957627	0	0.880000000000001	2.56	1	159.89314101	160.287562187	"5"	8462.937194711	8454.808728312	1.5	0.1
0.01	1	0.111265700999866	1	116	NA	166.272957627	0	0.880000000000001	2.56	1	160.527492385	160.638758086	"5"	8462.937194711	8454.808728312	1.5	0.1
0.01	1	0.650415910999982	1	116	NA	166.272957627	0	0.880000000000001	2.56	1	160.861319532	161.511735443	"5"	8462.937194711	8454.808728312	1.5	0.1
0.01	1	0.788178652999704	1	116	NA	166.272957627	0	0.880000000000001	2.56	1	161.746192765	162.534371418	"5"	8462.937194711	8454.808728312	1.5	0.1
0.01	1	0.00297524599955068	1	116	NA	166.272957627	0	0.880000000000001	2.56	1	162.764483189	162.767458435	"5"	8462.937194711	8454.808728312	1.5	0.1
0.01	1	0.369504169999345	1	116	NA	166.272957627	0	0.880000000000001	2.56	1	162.998281662	163.367785832	"5"	8462.937194711	8454.808728312	1.5	0.1
0.01	1	0.544461717000559	1	116	NA	166.272957627	0	0.880000000000001	2.56	1	163.599263335	164.143725052	"5"	8462.937194711	8454.808728312	1.5	0.1
0.01	1	0.575170260999585	1	116	NA	166.272957627	0	0.880000000000001	2.56	1	164.367174685	164.942344946	"5"	8462.937194711	8454.808728312	1.5	0.1
0.01	1	0.382387473000563	1	116	NA	166.272957627	0	0.880000000000001	2.56	1	165.168576522	165.550963995001	"5"	8462.937194711	8454.808728312	1.5	0.1
0.01	1	0.485109479999664	2	116	NA	166.272957627	0	0.880000000000001	2.56	1	165.786316255	166.271425735	"5"	8462.937194711	8454.808728312	1.5	0.1
0.01	1	1.5319279360001	1	118	218.779459335	NA	1	0	2.56	1	168.32386113	169.855789066	"6"	8462.937194711	8454.808728312	1.5	0.1
0.01	1	0.00459953200061136	1	118	218.779459335	NA	1	0	2.56	1	170.09361355	170.098213082	"6"	8462.937194711	8454.808728312	1.5	0.1
0.01	1	0.00401860999954806	1	118	218.779459335	NA	1	0	2.56	1	170.327306277	170.331324887	"6"	8462.937194711	8454.808728312	1.5	0.1
0.01	1	0.00378610699954152	1	118	218.779459335	NA	1	0	2.56	1	170.560988332	170.564774439	"6"	8462.937194711	8454.808728312	1.5	0.1
0.01	1	0.00458433499989042	1	118	218.779459335	NA	1	0	2.56	1	170.794685695	170.79927003	"6"	8462.937194711	8454.808728312	1.5	0.1
0.01	1	0.00386608799999522	1	118	218.779459335	NA	1	0	2.56	1	171.028328675	171.032194763	"6"	8462.937194711	8454.808728312	1.5	0.1
0.01	1	0.00388307499997609	1	118	218.779459335	NA	1	0	2.56	1	171.26218357	171.266066645	"6"	8462.937194711	8454.808728312	1.5	0.1
0.01	1	0.00385663999986718	1	118	218.779459335	NA	1	0	2.56	1	171.495879865	171.499736505	"6"	8462.937194711	8454.808728312	1.5	0.1
0.01	1	0.00332090800020524	1	118	218.779459335	NA	1	0	2.56	1	171.729609837	171.732930745	"6"	8462.937194711	8454.808728312	1.5	0.1
0.01	1	0.0037510869997277	1	118	218.779459335	NA	1	0	2.56	1	171.963251592	171.967002679	"6"	8462.937194711	8454.808728312	1.5	0.1
0.01	1	0.00389916299991455	1	118	218.779459335	NA	1	0	2.56	1	172.197028982	172.200928145	"6"	8462.937194711	8454.808728312	1.5	0.1
0.01	1	0.00380695700005163	1	118	218.779459335	NA	1	0	2.56	1	172.43085021	172.434657167	"6"	8462.937194711	8454.808728312	1.5	0.1
0.01	1	0.00456052499976067	1	118	218.779459335	NA	1	0	2.56	1	172.66464534	172.669205865	"6"	8462.937194711	8454.808728312	1.5	0.1
0.01	1	0.00343751199943654	1	118	218.779459335	NA	1	0	2.56	1	172.898225247	172.901662759	"6"	8462.937194711	8454.808728312	1.5	0.1
0.01	1	0.00345555500007322	1	118	218.779459335	NA	1	0	2.56	1	173.131885782	173.135341337	"6"	8462.937194711	8454.808728312	1.5	0.1
0.01	1	0.00385690100029024	1	118	218.779459335	NA	1	0	2.56	1	173.365717082	173.369573983	"6"	8462.937194711	8454.808728312	1.5	0.1
0.01	1	0.00387849300022935	1	118	218.779459335	NA	1	0	2.56	1	173.599325442	173.603203935	"6"	8462.937194711	8454.808728312	1.5	0.1
0.01	1	0.00389075499970204	1	118	218.779459335	NA	1	0	2.56	1	173.8331089	173.836999655	"6"	8462.937194711	8454.808728312	1.5	0.1
0.01	1	0.0037602969996442	1	118	218.779459335	NA	1	0	2.56	1	174.06686373	174.070624027	"6"	8462.937194711	8454.808728312	1.5	0.1
0.01	1	0.00438726699940162	1	118	218.779459335	NA	1	0	2.56	1	174.30066373	174.305050997	"6"	8462.937194711	8454.808728312	1.5	0.1
0.01	1	0.00450605700007145	1	118	218.779459335	NA	1	0	2.56	1	174.534303785	174.538809842	"6"	8462.937194711	8454.808728312	1.5	0.1
0.01	1	0.00461408199953439	1	118	218.779459335	NA	1	0	2.56	1	174.76815606	174.772770142	"6"	8462.937194711	8454.808728312	1.5	0.1
0.01	1	0.00346632700075133	1	118	218.779459335	NA	1	0	2.56	1	175.00173492	175.005201247001	"6"	8462.937194711	8454.808728312	1.5	0.1
0.01	1	0.00328579400047602	1	118	218.779459335	NA	1	0	2.56	1	175.235458939	175.238744733	"6"	8462.937194711	8454.808728312	1.5	0.1
0.01	1	0.00392695099981211	1	118	218.779459335	NA	1	0	2.56	1	175.469217002	175.473143953	"6"	8462.937194711	8454.808728312	1.5	0.1
0.01	1	0.00398799200047506	1	118	218.779459335	NA	1	0	2.56	1	175.702829735	175.706817727	"6"	8462.937194711	8454.808728312	1.5	0.1
0.01	1	0.00345821600058116	1	118	218.779459335	NA	1	0	2.56	1	175.936725961	175.940184177	"6"	8462.937194711	8454.808728312	1.5	0.1
0.01	1	0.00465836999956082	1	118	218.779459335	NA	1	0	2.56	1	176.170439495	176.175097865	"6"	8462.937194711	8454.808728312	1.5	0.1
0.01	1	0.738610919999701	1	118	218.779459335	NA	1	0	2.56	1	176.40427901	177.14288993	"6"	8462.937194711	8454.808728312	1.5	0.1
0.01	1	0.00467208699956245	1	118	218.779459335	NA	1	0	2.56	1	177.372475475	177.377147562	"6"	8462.937194711	8454.808728312	1.5	0.1
0.01	1	0.0404721819995757	1	118	218.779459335	NA	1	0	2.56	1	177.606139722	177.646611904	"6"	8462.937194711	8454.808728312	1.5	0.1
0.01	1	0.00292264099971362	1	118	218.779459335	NA	1	0	2.56	1	177.873313687001	177.876236328	"6"	8462.937194711	8454.808728312	1.5	0.1
0.01	1	0.00393970100049046	1	118	218.779459335	NA	1	0	2.56	1	178.106944642	178.110884343	"6"	8462.937194711	8454.808728312	1.5	0.1
0.01	1	0.202482495999902	1	118	218.779459335	NA	1	0	2.56	1	178.340738973	178.543221469	"6"	8462.937194711	8454.808728312	1.5	0.1
0.01	1	0.00958205700044346	1	118	218.779459335	NA	1	0	2.56	1	178.774911695	178.784493752	"6"	8462.937194711	8454.808728312	1.5	0.1
0.01	1	0.00318592399980844	1	118	218.779459335	NA	1	0	2.56	1	179.025156659	179.028342583	"6"	8462.937194711	8454.808728312	1.5	0.1
0.01	1	0.00370738600031473	1	118	218.779459335	NA	1	0	2.56	1	179.259023805	179.262731191	"6"	8462.937194711	8454.808728312	1.5	0.1
0.01	1	0.0902519169994775	1	118	218.779459335	NA	1	0	2.56	1	179.492734344	179.582986261	"6"	8462.937194711	8454.808728312	1.5	0.1
0.01	1	0.00373855799989542	1	118	218.779459335	NA	1	0	2.56	1	179.809848597	179.813587155	"6"	8462.937194711	8454.808728312	1.5	0.1
0.01	1	0.0598028889999114	1	118	218.779459335	NA	1	0	2.56	1	180.043646655	180.103449544	"6"	8462.937194711	8454.808728312	1.5	0.1
0.01	1	0.00384328900054243	1	118	218.779459335	NA	1	0	2.56	1	180.32745619	180.331299479	"6"	8462.937194711	8454.808728312	1.5	0.1
0.01	1	0.0783327780000036	1	118	218.779459335	NA	1	0	2.56	1	180.561025912	180.63935869	"6"	8462.937194711	8454.808728312	1.5	0.1
0.01	1	0.00385608699980367	1	118	218.779459335	NA	1	0	2.56	1	180.86162299	180.865479077	"6"	8462.937194711	8454.808728312	1.5	0.1
0.01	1	0.0723539720002009	1	118	218.779459335	NA	1	0	2.56	1	181.09545185	181.167805822	"6"	8462.937194711	8454.808728312	1.5	0.1
0.01	1	0.00383668600079545	1	118	218.779459335	NA	1	0	2.56	1	181.395827785	181.399664471001	"6"	8462.937194711	8454.808728312	1.5	0.1
0.01	1	0.0732484339996518	1	118	218.779459335	NA	1	0	2.56	1	181.629652245	181.702900679	"6"	8462.937194711	8454.808728312	1.5	0.1
0.01	1	0.00333423999927618	1	118	218.779459335	NA	1	0	2.56	1	181.930145793001	181.933480033	"6"	8462.937194711	8454.808728312	1.5	0.1
0.01	1	0.08336421399963	1	118	218.779459335	NA	1	0	2.56	1	182.16380929	182.247173504	"6"	8462.937194711	8454.808728312	1.5	0.1
0.01	1	0.00375823000013042	1	118	218.779459335	NA	1	0	2.56	1	182.480912397	182.484670627	"6"	8462.937194711	8454.808728312	1.5	0.1
0.01	1	0.0759011290001581	1	118	218.779459335	NA	1	0	2.56	1	182.714676635	182.790577764	"6"	8462.937194711	8454.808728312	1.5	0.1
0.01	1	0.00442567199934274	1	118	218.779459335	NA	1	0	2.56	1	183.01525155	183.019677222	"6"	8462.937194711	8454.808728312	1.5	0.1
0.01	1	0.637595331000739	1	118	218.779459335	NA	1	0	2.56	1	183.248982892	183.886578223	"6"	8462.937194711	8454.808728312	1.5	0.1
0.01	1	0.00371375100075966	1	118	218.779459335	NA	1	0	2.56	1	184.117081572	184.120795323	"6"	8462.937194711	8454.808728312	1.5	0.1
0.01	1	0.0725832580001224	1	118	218.779459335	NA	1	0	2.56	1	184.350908645	184.423491903	"6"	8462.937194711	8454.808728312	1.5	0.1
0.01	1	0.00336035100008303	1	118	218.779459335	NA	1	0	2.56	1	184.651368982	184.654729333	"6"	8462.937194711	8454.808728312	1.5	0.1
0.01	1	0.721670740999798	1	118	218.779459335	NA	1	0	2.56	1	184.885108342	185.606779083	"6"	8462.937194711	8454.808728312	1.5	0.1
0.01	1	0.0026964129992848	1	118	218.779459335	NA	1	0	2.56	1	185.836712975	185.839409388	"6"	8462.937194711	8454.808728312	1.5	0.1
0.01	1	1.92785994299993	1	118	218.779459335	NA	1	0	2.56	1	186.070483582	187.998343525	"6"	8462.937194711	8454.808728312	1.5	0.1
0.01	1	0.00388351800029341	1	118	218.779459335	NA	1	0	2.56	1	188.223970237	188.227853755	"6"	8462.937194711	8454.808728312	1.5	0.1
0.01	1	0.0938826569999947	1	118	218.779459335	NA	1	0	2.56	1	188.45772164	188.551604297	"6"	8462.937194711	8454.808728312	1.5	0.1
0.01	1	0.177169793999383	1	118	218.779459335	NA	1	0	2.56	1	188.775040475	188.952210269	"6"	8462.937194711	8454.808728312	1.5	0.1
0.01	1	0.0870975199995883	1	118	218.779459335	NA	1	0	2.56	1	189.192324735001	189.279422255	"6"	8462.937194711	8454.808728312	1.5	0.1
0.01	1	0.00463633999970625	1	118	218.779459335	NA	1	0	2.56	1	189.50961284	189.51424918	"6"	8462.937194711	8454.808728312	1.5	0.1
0.01	1	0.528638371999477	1	118	218.779459335	NA	1	0	2.56	1	189.743324572	190.271962944	"6"	8462.937194711	8454.808728312	1.5	0.1
0.01	1	0.00445541499993851	1	118	218.779459335	NA	1	0	2.56	1	190.494494265	190.49894968	"6"	8462.937194711	8454.808728312	1.5	0.1
0.01	1	0.334644587000184	1	118	218.779459335	NA	1	0	2.56	1	190.72818034	191.062824927	"6"	8462.937194711	8454.808728312	1.5	0.1
0.01	1	0.00327530799950182	1	118	218.779459335	NA	1	0	2.56	1	191.295821763	191.299097071	"6"	8462.937194711	8454.808728312	1.5	0.1
0.01	1	0.374248107999847	1	118	218.779459335	NA	1	0	2.56	1	191.529588835	191.903836943	"6"	8462.937194711	8454.808728312	1.5	0.1
0.01	1	0.00461870500021178	1	118	218.779459335	NA	1	0	2.56	1	192.13073625	192.135354955	"6"	8462.937194711	8454.808728312	1.5	0.1
0.01	1	0.250388498000575	1	118	218.779459335	NA	1	0	2.56	1	192.364316822	192.61470532	"6"	8462.937194711	8454.808728312	1.5	0.1
0.01	1	0.00303252000048815	1	118	218.779459335	NA	1	0	2.56	1	192.848499135	192.851531655	"6"	8462.937194711	8454.808728312	1.5	0.1
0.01	1	0.325065844000164	1	118	218.779459335	NA	1	0	2.56	1	193.082268612	193.407334456	"6"	8462.937194711	8454.808728312	1.5	0.1
0.01	1	0.00396096799977386	1	118	218.779459335	NA	1	0	2.56	1	193.633128087	193.637089055	"6"	8462.937194711	8454.808728312	1.5	0.1
0.01	1	0.357098915999813	1	118	218.779459335	NA	1	0	2.56	1	193.866785245	194.223884161	"6"	8462.937194711	8454.808728312	1.5	0.1
0.01	1	0.00309405799998785	1	118	218.779459335	NA	1	0	2.56	1	194.451138157	194.454232215	"6"	8462.937194711	8454.808728312	1.5	0.1
0.01	1	0.314440111000295	1	118	218.779459335	NA	1	0	2.56	1	194.684865499	194.99930561	"6"	8462.937194711	8454.808728312	1.5	0.1
0.01	1	0.00327467199986131	1	118	218.779459335	NA	1	0	2.56	1	195.235856445001	195.239131117	"6"	8462.937194711	8454.808728312	1.5	0.1
0.01	1	0.169745490999958	1	118	218.779459335	NA	1	0	2.56	1	195.469438825	195.639184316	"6"	8462.937194711	8454.808728312	1.5	0.1
0.01	1	0.0574395789999471	1	118	218.779459335	NA	1	0	2.56	1	195.870281742	195.927721321	"6"	8462.937194711	8454.808728312	1.5	0.1
0.01	1	0.0214025340001172	1	118	218.779459335	NA	1	0	2.56	1	196.15408615	196.175488684	"6"	8462.937194711	8454.808728312	1.5	0.1
0.01	1	0.00461175999953412	1	118	218.779459335	NA	1	0	2.56	1	196.40456755	196.40917931	"6"	8462.937194711	8454.808728312	1.5	0.1
0.01	1	0.46581900000001	1	118	218.779459335	NA	1	0	2.56	1	196.63823942	197.10405842	"6"	8462.937194711	8454.808728312	1.5	0.1
0.01	1	0.00454557500052033	1	118	218.779459335	NA	1	0	2.56	1	197.33935564	197.343901215	"6"	8462.937194711	8454.808728312	1.5	0.1
0.01	1	0.314408535999974	1	118	218.779459335	NA	1	0	2.56	1	197.573084090001	197.887492626	"6"	8462.937194711	8454.808728312	1.5	0.1
0.01	1	0.100051693999376	1	118	218.779459335	NA	1	0	2.56	1	198.123995775	198.224047469	"6"	8462.937194711	8454.808728312	1.5	0.1
0.01	1	0.38883398300004	1	118	218.779459335	NA	1	0	2.56	1	198.457912192	198.846746175	"6"	8462.937194711	8454.808728312	1.5	0.1
0.01	1	0.130834935999701	1	118	218.779459335	NA	1	0	2.56	1	199.07565993	199.206494866	"6"	8462.937194711	8454.808728312	1.5	0.1
0.01	1	0.00258454499999061	1	118	218.779459335	NA	1	0	2.56	1	199.442872449	199.445456994	"6"	8462.937194711	8454.808728312	1.5	0.1
0.01	1	0.403147390999948	1	118	218.779459335	NA	1	0	2.56	1	199.676575492	200.079722883	"6"	8462.937194711	8454.808728312	1.5	0.1
0.01	1	0.104041380000126	1	118	218.779459335	NA	1	0	2.56	1	200.3110017	200.41504308	"6"	8462.937194711	8454.808728312	1.5	0.1
0.01	1	0.377176537000196	1	118	218.779459335	NA	1	0	2.56	1	200.64501787	201.022194407	"6"	8462.937194711	8454.808728312	1.5	0.1
0.01	1	0.114179545999832	1	118	218.779459335	NA	1	0	2.56	1	201.24593651	201.360116056	"6"	8462.937194711	8454.808728312	1.5	0.1
0.01	1	0.395338398000604	1	118	218.779459335	NA	1	0	2.56	1	201.596437802	201.9917762	"6"	8462.937194711	8454.808728312	1.5	0.1
0.01	1	0.00428108100004465	1	118	218.779459335	NA	1	0	2.56	1	202.214146014	202.218427095	"6"	8462.937194711	8454.808728312	1.5	0.1
0.01	1	0.598854969999593	1	118	218.779459335	NA	1	0	2.56	1	202.44803054	203.04688551	"6"	8462.937194711	8454.808728312	1.5	0.1
0.01	1	0.00387990800027183	1	118	218.779459335	NA	1	0	2.56	1	203.282755577	203.286635485	"6"	8462.937194711	8454.808728312	1.5	0.1
0.01	1	0.610494619000747	1	118	218.779459335	NA	1	0	2.56	1	203.516478895	204.126973514	"6"	8462.937194711	8454.808728312	1.5	0.1
0.01	1	0.0039359450001939	1	118	218.779459335	NA	1	0	2.56	1	204.35119106	204.355127005	"6"	8462.937194711	8454.808728312	1.5	0.1
0.01	1	0.429387560000578	1	118	218.779459335	NA	1	0	2.56	1	204.584865905	205.014253465	"6"	8462.937194711	8454.808728312	1.5	0.1
0.01	1	0.00390700300067692	1	118	218.779459335	NA	1	0	2.56	1	205.23598694	205.239893943	"6"	8462.937194711	8454.808728312	1.5	0.1
0.01	1	0.562509105000572	1	118	218.779459335	NA	1	0	2.56	1	205.46967917	206.032188275	"6"	8462.937194711	8454.808728312	1.5	0.1
0.01	1	0.128513789999488	1	118	218.779459335	NA	1	0	2.56	1	206.270961387	206.399475177	"6"	8462.937194711	8454.808728312	1.5	0.1
0.01	1	0.432497048000187	1	118	218.779459335	NA	1	0	2.56	1	206.621621472	207.05411852	"6"	8462.937194711	8454.808728312	1.5	0.1
0.01	1	0.645995238000069	1	118	218.779459335	NA	1	0	2.56	1	207.289428215	207.935423453	"6"	8462.937194711	8454.808728312	1.5	0.1
0.01	1	0.00401780099946336	1	118	218.779459335	NA	1	0	2.56	1	208.15757577	208.161593571	"6"	8462.937194711	8454.808728312	1.5	0.1
0.01	1	1.14336797499982	1	118	218.779459335	NA	1	0	2.56	1	208.391286475	209.53465445	"6"	8462.937194711	8454.808728312	1.5	0.1
0.01	1	0.00367326500054332	1	118	218.779459335	NA	1	0	2.56	1	209.760263902	209.763937167	"6"	8462.937194711	8454.808728312	1.5	0.1
0.01	1	2.76429045199984	1	118	218.779459335	NA	1	0	2.56	1	209.99400644	212.758296892	"6"	8462.937194711	8454.808728312	1.5	0.1
0.01	1	0.383483390000038	1	118	218.779459335	NA	1	0	2.56	1	212.99900788	213.38249127	"6"	8462.937194711	8454.808728312	1.5	0.1
0.01	1	0.494908923999901	1	118	218.779459335	NA	1	0	2.56	1	213.616778992	214.111687916	"6"	8462.937194711	8454.808728312	1.5	0.1
0.01	1	0.321000820000336	1	118	218.779459335	NA	1	0	2.56	1	214.334598462	214.655599282	"6"	8462.937194711	8454.808728312	1.5	0.1
0.01	1	0.00460314199972345	1	118	218.779459335	NA	1	0	2.56	1	214.885519235	214.890122377	"6"	8462.937194711	8454.808728312	1.5	0.1
0.01	1	0.392182681000122	1	118	218.779459335	NA	1	0	2.56	1	215.119293052	215.511475733	"6"	8462.937194711	8454.808728312	1.5	0.1
0.01	1	0.487252950999391	1	118	218.779459335	NA	1	0	2.56	1	215.736955842	216.224208793	"6"	8462.937194711	8454.808728312	1.5	0.1
0.01	1	0.392979590999857	1	118	218.779459335	NA	1	0	2.56	1	216.454845512	216.847825103	"6"	8462.937194711	8454.808728312	1.5	0.1
0.01	1	0.463169288999779	1	118	218.779459335	NA	1	0	2.56	1	217.072501225	217.535670514	"6"	8462.937194711	8454.808728312	1.5	0.1
0.01	1	0.657558101000177	1	118	218.779459335	NA	1	0	2.56	1	217.773762734	218.431320835	"6"	8462.937194711	8454.808728312	1.5	0.1
0.01	1	0.00391775000025518	1	118	218.779459335	NA	1	0	2.56	1	218.658407905	218.662325655	"6"	8462.937194711	8454.808728312	1.5	0.1
0.01	1	0.186936872999468	1	87	251.049427922	NA	1	0	2.56	1	220.828923654	221.015860527	"7"	8462.937194711	8454.808728312	1.5	0.1
0.01	1	0.00459415199929936	1	87	251.049427922	NA	1	0	2.56	1	221.246233585	221.250827737	"7"	8462.937194711	8454.808728312	1.5	0.1
0.01	1	0.00379639799939469	1	87	251.049427922	NA	1	0	2.56	1	221.479948695001	221.483745093	"7"	8462.937194711	8454.808728312	1.5	0.1
0.01	1	0.00388642899997649	1	87	251.049427922	NA	1	0	2.56	1	221.71369941	221.717585839	"7"	8462.937194711	8454.808728312	1.5	0.1
0.01	1	0.00372256300033769	1	87	251.049427922	NA	1	0	2.56	1	221.947306162	221.951028725	"7"	8462.937194711	8454.808728312	1.5	0.1
0.01	1	0.00392235300023458	1	87	251.049427922	NA	1	0	2.56	1	222.181140402	222.185062755	"7"	8462.937194711	8454.808728312	1.5	0.1
0.01	1	0.00391357500029699	1	87	251.049427922	NA	1	0	2.56	1	222.41488133	222.418794905	"7"	8462.937194711	8454.808728312	1.5	0.1
0.01	1	0.00387949499963725	1	87	251.049427922	NA	1	0	2.56	1	222.64861963	222.652499125	"7"	8462.937194711	8454.808728312	1.5	0.1
0.01	1	0.00352361600016593	1	87	251.049427922	NA	1	0	2.56	1	222.882281715	222.885805331	"7"	8462.937194711	8454.808728312	1.5	0.1
0.01	1	0.0032457079996675	1	87	251.049427922	NA	1	0	2.56	1	223.115967153	223.119212861	"7"	8462.937194711	8454.808728312	1.5	0.1
0.01	1	0.00396256899966829	1	87	251.049427922	NA	1	0	2.56	1	223.349698812	223.353661381	"7"	8462.937194711	8454.808728312	1.5	0.1
0.01	1	0.00366717899942159	1	87	251.049427922	NA	1	0	2.56	1	223.58337007	223.587037249	"7"	8462.937194711	8454.808728312	1.5	0.1
0.01	1	0.00391897000008612	1	87	251.049427922	NA	1	0	2.56	1	223.817193205	223.821112175	"7"	8462.937194711	8454.808728312	1.5	0.1
0.01	1	0.0046100050003588	1	87	251.049427922	NA	1	0	2.56	1	224.050893605	224.05550361	"7"	8462.937194711	8454.808728312	1.5	0.1
0.01	1	0.00401983300071151	1	87	251.049427922	NA	1	0	2.56	1	224.28470236	224.288722193	"7"	8462.937194711	8454.808728312	1.5	0.1
0.01	1	0.040538094999647	1	87	251.049427922	NA	1	0	2.56	1	224.518467537	224.559005632	"7"	8462.937194711	8454.808728312	1.5	0.1
0.01	1	0.0783350739993693	1	87	251.049427922	NA	1	0	2.56	1	224.785419812	224.863754886	"7"	8462.937194711	8454.808728312	1.5	0.1
0.01	1	0.0900342869999804	1	87	251.049427922	NA	1	0	2.56	1	225.086018838	225.176053125	"7"	8462.937194711	8454.808728312	1.5	0.1
0.01	1	0.00401238299946272	1	87	251.049427922	NA	1	0	2.56	1	225.403189362	225.407201745	"7"	8462.937194711	8454.808728312	1.5	0.1
0.01	1	0.0427170670000123	1	87	251.049427922	NA	1	0	2.56	1	225.636962207	225.679679274	"7"	8462.937194711	8454.808728312	1.5	0.1
0.01	1	0.00458914200044092	1	87	251.049427922	NA	1	0	2.56	1	225.904048535	225.908637677	"7"	8462.937194711	8454.808728312	1.5	0.1
0.01	1	0.0452849359999163	1	87	251.049427922	NA	1	0	2.56	1	226.137673945	226.182958881	"7"	8462.937194711	8454.808728312	1.5	0.1
0.01	1	0.106207480000194	1	87	251.049427922	NA	1	0	2.56	1	226.40486701	226.51107449	"7"	8462.937194711	8454.808728312	1.5	0.1
0.01	1	0.00388647399995534	1	87	251.049427922	NA	1	0	2.56	1	226.738848835	226.742735309	"7"	8462.937194711	8454.808728312	1.5	0.1
0.01	1	0.0665577689997008	1	87	251.049427922	NA	1	0	2.56	1	226.972480014	227.039037783	"7"	8462.937194711	8454.808728312	1.5	0.1
0.01	1	0.0865733150003507	1	87	251.049427922	NA	1	0	2.56	1	227.272980232	227.359553547	"7"	8462.937194711	8454.808728312	1.5	0.1
0.01	1	0.0418573609995292	1	87	251.049427922	NA	1	0	2.56	1	227.59023082	227.632088181	"7"	8462.937194711	8454.808728312	1.5	0.1
0.01	1	0.00381557499986229	1	87	251.049427922	NA	1	0	2.56	1	227.8573421	227.861157675	"7"	8462.937194711	8454.808728312	1.5	0.1
0.01	1	0.00431456200021785	1	87	251.049427922	NA	1	0	2.56	1	228.091052615	228.095367177	"7"	8462.937194711	8454.808728312	1.5	0.1
0.01	1	0.00326022399985959	1	87	251.049427922	NA	1	0	2.56	1	228.324881385	228.328141609	"7"	8462.937194711	8454.808728312	1.5	0.1
0.01	1	0.0037349180001911	1	87	251.049427922	NA	1	0	2.56	1	228.558561645	228.562296563	"7"	8462.937194711	8454.808728312	1.5	0.1
0.01	1	0.0628341390001879	1	87	251.049427922	NA	1	0	2.56	1	228.792274965	228.855109104	"7"	8462.937194711	8454.808728312	1.5	0.1
0.01	1	0.113559020000139	1	87	251.049427922	NA	1	0	2.56	1	229.092656215	229.206215235	"7"	8462.937194711	8454.808728312	1.5	0.1
0.01	1	0.00388456200016662	1	87	251.049427922	NA	1	0	2.56	1	229.443301425	229.447185987	"7"	8462.937194711	8454.808728312	1.5	0.1
0.01	1	0.0575833510001758	1	87	251.049427922	NA	1	0	2.56	1	229.677046895	229.734630246	"7"	8462.937194711	8454.808728312	1.5	0.1
0.01	1	0.00335909800014633	1	87	251.049427922	NA	1	0	2.56	1	229.960867189	229.964226287	"7"	8462.937194711	8454.808728312	1.5	0.1
0.01	1	0.0919946940002774	1	87	251.049427922	NA	1	0	2.56	1	230.194666595	230.286661289	"7"	8462.937194711	8454.808728312	1.5	0.1
0.01	1	0.00453388200003246	1	87	251.049427922	NA	1	0	2.56	1	230.51179182	230.516325702	"7"	8462.937194711	8454.808728312	1.5	0.1
0.01	1	0.0939261889998306	1	87	251.049427922	NA	1	0	2.56	1	230.745465055	230.839391244	"7"	8462.937194711	8454.808728312	1.5	0.1
0.01	1	0.00361657400026161	1	87	251.049427922	NA	1	0	2.56	1	231.079371295	231.082987869	"7"	8462.937194711	8454.808728312	1.5	0.1
0.01	1	0.0620511039996927	1	87	251.049427922	NA	1	0	2.56	1	231.313138732	231.375189836	"7"	8462.937194711	8454.808728312	1.5	0.1
0.01	1	0.113794928000061	1	87	251.049427922	NA	1	0	2.56	1	231.613642942	231.72743787	"7"	8462.937194711	8454.808728312	1.5	0.1
0.01	1	0.123372828000356	1	87	251.049427922	NA	1	0	2.56	1	231.964271742	232.087644570001	"7"	8462.937194711	8454.808728312	1.5	0.1
0.01	1	0.00394092299939075	1	87	251.049427922	NA	1	0	2.56	1	232.31483368	232.318774603	"7"	8462.937194711	8454.808728312	1.5	0.1
0.01	1	0.0749639519999619	1	87	251.049427922	NA	1	0	2.56	1	232.548502345	232.623466297	"7"	8462.937194711	8454.808728312	1.5	0.1
0.01	1	0.00337217400010559	1	87	251.049427922	NA	1	0	2.56	1	232.849049063	232.852421237	"7"	8462.937194711	8454.808728312	1.5	0.1
0.01	1	0.123685362999822	1	87	251.049427922	NA	1	0	2.56	1	233.08283179	233.206517153	"7"	8462.937194711	8454.808728312	1.5	0.1
0.01	1	0.00386089800031186	1	87	251.049427922	NA	1	0	2.56	1	233.433413965	233.437274863	"7"	8462.937194711	8454.808728312	1.5	0.1
0.01	1	0.171137015000568	1	87	251.049427922	NA	1	0	2.56	1	233.667111352	233.838248367	"7"	8462.937194711	8454.808728312	1.5	0.1
0.01	1	0.634917830000632	1	87	251.049427922	NA	1	0	2.56	1	234.067681457	234.702599287	"7"	8462.937194711	8454.808728312	1.5	0.1
0.01	1	0.00394108900036372	1	87	251.049427922	NA	1	0	2.56	1	234.93593558	234.939876669	"7"	8462.937194711	8454.808728312	1.5	0.1
0.01	1	0.0941175970001495	1	87	251.049427922	NA	1	0	2.56	1	235.169660142	235.263777739	"7"	8462.937194711	8454.808728312	1.5	0.1
0.01	1	0.136223427999539	1	87	251.049427922	NA	1	0	2.56	1	235.486900965	235.623124393	"7"	8462.937194711	8454.808728312	1.5	0.1
0.01	1	0.137932882999849	1	87	251.049427922	NA	1	0	2.56	1	235.854087635	235.992020518	"7"	8462.937194711	8454.808728312	1.5	0.1
0.01	1	0.00292840400015848	1	87	251.049427922	NA	1	0	2.56	1	236.221464463	236.224392867	"7"	8462.937194711	8454.808728312	1.5	0.1
0.01	1	0.0631321549999484	1	87	251.049427922	NA	1	0	2.56	1	236.455239512	236.518371667	"7"	8462.937194711	8454.808728312	1.5	0.1
0.01	1	0.0908275310002864	1	87	251.049427922	NA	1	0	2.56	1	236.755578132	236.846405663	"7"	8462.937194711	8454.808728312	1.5	0.1
0.01	1	0.134922682000251	1	87	251.049427922	NA	1	0	2.56	1	237.072743985	237.207666667	"7"	8462.937194711	8454.808728312	1.5	0.1
0.01	1	0.463596019999386	1	87	251.049427922	NA	1	0	2.56	1	237.44013804	237.90373406	"7"	8462.937194711	8454.808728312	1.5	0.1
0.01	1	0.11465980200046	1	87	251.049427922	NA	1	0	2.56	1	238.141348995	238.256008797001	"7"	8462.937194711	8454.808728312	1.5	0.1
0.01	1	0.299584774999857	1	87	251.049427922	NA	1	0	2.56	1	238.491899057	238.791483832	"7"	8462.937194711	8454.808728312	1.5	0.1
0.01	1	0.00399950700011686	1	87	251.049427922	NA	1	0	2.56	1	239.02611092	239.030110427	"7"	8462.937194711	8454.808728312	1.5	0.1
0.01	1	0.0913706639994416	1	87	251.049427922	NA	1	0	2.56	1	239.259852142	239.351222806	"7"	8462.937194711	8454.808728312	1.5	0.1
0.01	1	0.301838115999999	1	87	251.049427922	NA	1	0	2.56	1	239.577067137	239.878905253	"7"	8462.937194711	8454.808728312	1.5	0.1
0.01	1	0.136811870000201	1	87	251.049427922	NA	1	0	2.56	1	240.111254927	240.248066797	"7"	8462.937194711	8454.808728312	1.5	0.1
0.01	1	0.223715148999872	1	87	251.049427922	NA	1	0	2.56	1	240.478629317	240.702344466	"7"	8462.937194711	8454.808728312	1.5	0.1
0.01	1	0.10217192699929	1	87	251.049427922	NA	1	0	2.56	1	240.929327421	241.031499348	"7"	8462.937194711	8454.808728312	1.5	0.1
0.01	1	0.35955414899945	1	87	251.049427922	NA	1	0	2.56	1	241.26329605	241.622850199	"7"	8462.937194711	8454.808728312	1.5	0.1
0.01	1	0.00369279900041874	1	87	251.049427922	NA	1	0	2.56	1	241.847460852	241.851153651	"7"	8462.937194711	8454.808728312	1.5	0.1
0.01	1	0.42156524999973	1	87	251.049427922	NA	1	0	2.56	1	242.081304320001	242.50286957	"7"	8462.937194711	8454.808728312	1.5	0.1
0.01	1	0.00462166699981026	1	87	251.049427922	NA	1	0	2.56	1	242.732443895	242.737065562	"7"	8462.937194711	8454.808728312	1.5	0.1
0.01	1	0.760249124000438	1	87	251.049427922	NA	1	0	2.56	1	242.966074125	243.726323249	"7"	8462.937194711	8454.808728312	1.5	0.1
0.01	1	0.00206360199990741	1	87	251.049427922	NA	1	0	2.56	1	243.950958772	243.953022374	"7"	8462.937194711	8454.808728312	1.5	0.1
0.01	1	0.582237120999707	1	87	251.049427922	NA	1	0	2.56	1	244.184796282	244.767033403	"7"	8462.937194711	8454.808728312	1.5	0.1
0.01	1	0.00368254199929652	1	87	251.049427922	NA	1	0	2.56	1	245.002829687	245.006512229	"7"	8462.937194711	8454.808728312	1.5	0.1
0.01	1	0.530900275999556	1	87	251.049427922	NA	1	0	2.56	1	245.23657859	245.767478866	"7"	8462.937194711	8454.808728312	1.5	0.1
0.01	1	0.00404948499999591	1	87	251.049427922	NA	1	0	2.56	1	246.00462136	246.008670845	"7"	8462.937194711	8454.808728312	1.5	0.1
0.01	1	0.544403113000044	1	87	251.049427922	NA	1	0	2.56	1	246.23830432	246.782707433	"7"	8462.937194711	8454.808728312	1.5	0.1
0.01	1	0.00327039999956469	1	87	251.049427922	NA	1	0	2.56	1	247.006209475	247.009479875	"7"	8462.937194711	8454.808728312	1.5	0.1
0.01	1	0.416241526999329	1	87	251.049427922	NA	1	0	2.56	1	247.239836505	247.656078032	"7"	8462.937194711	8454.808728312	1.5	0.1
0.01	1	0.00369289099944581	1	87	251.049427922	NA	1	0	2.56	1	247.891088672	247.894781563	"7"	8462.937194711	8454.808728312	1.5	0.1
0.01	1	0.0987869649998174	1	87	251.049427922	NA	1	0	2.56	1	248.124688377	248.223475342	"7"	8462.937194711	8454.808728312	1.5	0.1
0.01	1	0.501557771999614	1	87	251.049427922	NA	1	0	2.56	1	248.458652072	248.960209844	"7"	8462.937194711	8454.808728312	1.5	0.1
0.01	1	0.00439965799978381	1	87	251.049427922	NA	1	0	2.56	1	249.193250494	249.197650152	"7"	8462.937194711	8454.808728312	1.5	0.1
0.01	1	0.428903252999589	1	87	251.049427922	NA	1	0	2.56	1	249.426860937	249.85576419	"7"	8462.937194711	8454.808728312	1.5	0.1
0.01	1	0.609073658999478	1	87	251.049427922	NA	1	0	2.56	1	250.094728945	250.703802604	"7"	8462.937194711	8454.808728312	1.5	0.1
0.01	1	0.00382371900013823	1	87	251.049427922	NA	1	0	2.56	1	250.92951652	250.933340239	"7"	8462.937194711	8454.808728312	1.5	0.1
0.01	1	0.267463338999733	1	6	254.63914809	NA	1	0	2.56	1	253.083235824	253.350699163	"8"	8462.937194711	8454.808728312	1.5	0.1
0.01	1	0.00395441999989998	1	6	254.63914809	NA	1	0	2.56	1	253.584038215	253.587992635	"8"	8462.937194711	8454.808728312	1.5	0.1
0.01	1	0.00396899000043049	1	6	254.63914809	NA	1	0	2.56	1	253.817661165	253.821630155	"8"	8462.937194711	8454.808728312	1.5	0.1
0.01	1	0.00336419599989313	1	6	254.63914809	NA	1	0	2.56	1	254.051379153	254.054743349	"8"	8462.937194711	8454.808728312	1.5	0.1
0.01	1	0.00387259400031326	1	6	254.63914809	NA	1	0	2.56	1	254.285030465	254.288903059	"8"	8462.937194711	8454.808728312	1.5	0.1
0.01	1	0.00420535699959146	1	6	254.63914809	NA	1	0	2.56	1	254.518818002	254.523023359	"8"	8462.937194711	8454.808728312	1.5	0.1
0.01	1	0.390963917999215	1	106	NA	287.584952127	0	0.76	3.32	1	256.672479675	257.063443593	"9"	8462.937194711	8454.808728312	1.5	0.1
0.01	1	0.00460743200073921	1	106	NA	287.584952127	0	0.76	3.32	1	257.29011148	257.294718912	"9"	8462.937194711	8454.808728312	1.5	0.1
0.01	1	0.172062229999938	1	106	NA	287.584952127	0	0.76	3.32	1	257.523836417	257.695898647	"9"	8462.937194711	8454.808728312	1.5	0.1
0.01	1	0.00454742500005523	1	106	NA	287.584952127	0	0.76	3.32	1	257.924572107	257.929119532	"9"	8462.937194711	8454.808728312	1.5	0.1
0.01	1	0.104090589999942	1	106	NA	287.584952127	0	0.76	3.32	1	258.15835	258.26244059	"9"	8462.937194711	8454.808728312	1.5	0.1
0.01	1	0.00294371099971613	1	106	NA	287.584952127	0	0.76	3.32	1	258.492194469	258.49513818	"9"	8462.937194711	8454.808728312	1.5	0.1
0.01	1	0.288363338000636	1	106	NA	287.584952127	0	0.76	3.32	1	258.725834555	259.014197893001	"9"	8462.937194711	8454.808728312	1.5	0.1
0.01	1	0.00403168200045911	1	106	NA	287.584952127	0	0.76	3.32	1	259.243446765	259.247478447001	"9"	8462.937194711	8454.808728312	1.5	0.1
0.01	1	0.152975169999991	1	106	NA	287.584952127	0	0.76	3.32	1	259.477164677	259.630139847	"9"	8462.937194711	8454.808728312	1.5	0.1
0.01	1	0.00290482200034603	1	106	NA	287.584952127	0	0.76	3.32	1	259.861100749	259.864005571	"9"	8462.937194711	8454.808728312	1.5	0.1
0.01	1	0.135289096999259	1	106	NA	287.584952127	0	0.76	3.32	1	260.09479693	260.230086027	"9"	8462.937194711	8454.808728312	1.5	0.1
0.01	1	0.00328403999992588	1	106	NA	287.584952127	0	0.76	3.32	1	260.462199579	260.465483619	"9"	8462.937194711	8454.808728312	1.5	0.1
0.01	1	0.111738003000028	1	106	NA	287.584952127	0	0.76	3.32	1	260.695916282	260.807654285	"9"	8462.937194711	8454.808728312	1.5	0.1
0.01	1	0.00321922399962205	1	106	NA	287.584952127	0	0.76	3.32	1	261.029848885	261.033068109	"9"	8462.937194711	8454.808728312	1.5	0.1
0.01	1	0.00388003100033529	1	106	NA	287.584952127	0	0.76	3.32	1	261.263435582	261.267315613	"9"	8462.937194711	8454.808728312	1.5	0.1
0.01	1	0.109439490999648	1	106	NA	287.584952127	0	0.76	3.32	1	261.497297742	261.606737233	"9"	8462.937194711	8454.808728312	1.5	0.1
0.01	1	0.063452051999775	1	106	NA	287.584952127	0	0.76	3.32	1	261.847879355	261.911331407	"9"	8462.937194711	8454.808728312	1.5	0.1
0.01	1	0.00220184099998733	1	106	NA	287.584952127	0	0.76	3.32	1	262.148218671	262.150420512	"9"	8462.937194711	8454.808728312	1.5	0.1
0.01	1	0.113616839000315	1	106	NA	287.584952127	0	0.76	3.32	1	262.382104395	262.495721234	"9"	8462.937194711	8454.808728312	1.5	0.1
0.01	1	0.00327632799962885	1	106	NA	287.584952127	0	0.76	3.32	1	262.732680045	262.735956373	"9"	8462.937194711	8454.808728312	1.5	0.1
0.01	1	0.185056639000322	1	106	NA	287.584952127	0	0.76	3.32	1	262.966369522	263.151426161	"9"	8462.937194711	8454.808728312	1.5	0.1
0.01	1	0.00979094800004532	1	106	NA	287.584952127	0	0.76	3.32	1	263.38380893	263.393599878	"9"	8462.937194711	8454.808728312	1.5	0.1
0.01	1	0.00455144999978074	1	106	NA	287.584952127	0	0.76	3.32	1	263.617450445	263.622001895	"9"	8462.937194711	8454.808728312	1.5	0.1
0.01	1	0.00288888800059794	1	106	NA	287.584952127	0	0.76	3.32	1	263.851269053	263.854157941	"9"	8462.937194711	8454.808728312	1.5	0.1
0.01	1	0.00378648500009149	1	106	NA	287.584952127	0	0.76	3.32	1	264.08493935	264.088725835	"9"	8462.937194711	8454.808728312	1.5	0.1
0.01	1	0.00412935300028039	1	106	NA	287.584952127	0	0.76	3.32	1	264.318570552	264.322699905	"9"	8462.937194711	8454.808728312	1.5	0.1
0.01	1	0.094812938999894	1	106	NA	287.584952127	0	0.76	3.32	1	264.552327070001	264.647140009	"9"	8462.937194711	8454.808728312	1.5	0.1
0.01	1	0.0043742600000769	1	106	NA	287.584952127	0	0.76	3.32	1	264.886270497	264.890644757	"9"	8462.937194711	8454.808728312	1.5	0.1
0.01	1	0.111183377000089	1	106	NA	287.584952127	0	0.76	3.32	1	265.120015055	265.231198432	"9"	8462.937194711	8454.808728312	1.5	0.1
0.01	1	0.00454249199992773	1	106	NA	287.584952127	0	0.76	3.32	1	265.45402368	265.458566172	"9"	8462.937194711	8454.808728312	1.5	0.1
0.01	1	0.00315286600016407	1	106	NA	287.584952127	0	0.76	3.32	1	265.687608295	265.690761161	"9"	8462.937194711	8454.808728312	1.5	0.1
0.01	1	0.00375414500012994	1	106	NA	287.584952127	0	0.76	3.32	1	265.92139508	265.925149225	"9"	8462.937194711	8454.808728312	1.5	0.1
0.01	1	0.12380874199971	1	106	NA	287.584952127	0	0.76	3.32	1	266.15507729	266.278886032	"9"	8462.937194711	8454.808728312	1.5	0.1
0.01	1	0.036871248999887	1	106	NA	287.584952127	0	0.76	3.32	1	266.50565942	266.542530669	"9"	8462.937194711	8454.808728312	1.5	0.1
0.01	1	0.305684025000119	1	106	NA	287.584952127	0	0.76	3.32	1	266.772873435	267.07855746	"9"	8462.937194711	8454.808728312	1.5	0.1
0.01	1	0.252262415000587	1	106	NA	287.584952127	0	0.76	3.32	1	267.306989692	267.559252107	"9"	8462.937194711	8454.808728312	1.5	0.1
0.01	1	0.152546813999834	1	106	NA	287.584952127	0	0.76	3.32	1	267.791189172	267.943735986	"9"	8462.937194711	8454.808728312	1.5	0.1
0.01	1	0.104652115000135	1	106	NA	287.584952127	0	0.76	3.32	1	268.175126592	268.279778707	"9"	8462.937194711	8454.808728312	1.5	0.1
0.01	1	0.161547014000462	1	106	NA	287.584952127	0	0.76	3.32	1	268.509070473	268.670617487001	"9"	8462.937194711	8454.808728312	1.5	0.1
0.01	1	0.138789292000183	1	106	NA	287.584952127	0	0.76	3.32	1	268.893019608	269.0318089	"9"	8462.937194711	8454.808728312	1.5	0.1
0.01	1	0.146938169999885	1	106	NA	287.584952127	0	0.76	3.32	1	269.26025097	269.40718914	"9"	8462.937194711	8454.808728312	1.5	0.1
0.01	1	0.139365121000083	1	106	NA	287.584952127	0	0.76	3.32	1	269.644362135	269.783727256	"9"	8462.937194711	8454.808728312	1.5	0.1
0.01	1	0.188391098000466	1	106	NA	287.584952127	0	0.76	3.32	1	270.01152026	270.199911358	"9"	8462.937194711	8454.808728312	1.5	0.1
0.01	1	0.210387531999913	1	106	NA	287.584952127	0	0.76	3.32	1	270.428882402	270.639269934	"9"	8462.937194711	8454.808728312	1.5	0.1
0.01	1	0.263041531999988	1	106	NA	287.584952127	0	0.76	3.32	1	270.879668342001	271.142709874001	"9"	8462.937194711	8454.808728312	1.5	0.1
0.01	1	0.194863046999671	1	106	NA	287.584952127	0	0.76	3.32	1	271.38042158	271.575284627	"9"	8462.937194711	8454.808728312	1.5	0.1
0.01	1	0.288710181999704	1	106	NA	287.584952127	0	0.76	3.32	1	271.79779371	272.086503892	"9"	8462.937194711	8454.808728312	1.5	0.1
0.01	1	0.180033442999957	1	106	NA	287.584952127	0	0.76	3.32	1	272.3153679	272.495401343	"9"	8462.937194711	8454.808728312	1.5	0.1
0.01	1	0.178015512999991	1	106	NA	287.584952127	0	0.76	3.32	1	272.732753655	272.910769168	"9"	8462.937194711	8454.808728312	1.5	0.1
0.01	1	0.128948849999688	1	106	NA	287.584952127	0	0.76	3.32	1	273.133477505	273.262426355	"9"	8462.937194711	8454.808728312	1.5	0.1
0.01	1	0.282996185000229	1	106	NA	287.584952127	0	0.76	3.32	1	273.48397375	273.766969935	"9"	8462.937194711	8454.808728312	1.5	0.1
0.01	1	0.237008342000081	1	106	NA	287.584952127	0	0.76	3.32	1	274.001575735	274.238584077	"9"	8462.937194711	8454.808728312	1.5	0.1
0.01	1	0.137265913000192	1	106	NA	287.584952127	0	0.76	3.32	1	274.469116557	274.60638247	"9"	8462.937194711	8454.808728312	1.5	0.1
0.01	1	0.353833570999996	1	106	NA	287.584952127	0	0.76	3.32	1	274.836364265	275.190197836	"9"	8462.937194711	8454.808728312	1.5	0.1
0.01	1	0.258296899000015	1	106	NA	287.584952127	0	0.76	3.32	1	275.4206908	275.678987699	"9"	8462.937194711	8454.808728312	1.5	0.1
0.01	1	0.199178133000714	1	106	NA	287.584952127	0	0.76	3.32	1	275.904751982	276.103930115	"9"	8462.937194711	8454.808728312	1.5	0.1
0.01	1	0.331916381000156	1	106	NA	287.584952127	0	0.76	3.32	1	276.338801665	276.670718046	"9"	8462.937194711	8454.808728312	1.5	0.1
0.01	1	0.260455559000548	1	106	NA	287.584952127	0	0.76	3.32	1	276.90650235	277.166957909	"9"	8462.937194711	8454.808728312	1.5	0.1
0.01	1	0.329012045000127	1	106	NA	287.584952127	0	0.76	3.32	1	277.39062751	277.719639555	"9"	8462.937194711	8454.808728312	1.5	0.1
0.01	1	0.32977007000045	1	106	NA	287.584952127	0	0.76	3.32	1	277.941598873	278.271368943	"9"	8462.937194711	8454.808728312	1.5	0.1
0.01	1	0.354560441000103	1	106	NA	287.584952127	0	0.76	3.32	1	278.49243711	278.846997551	"9"	8462.937194711	8454.808728312	1.5	0.1
0.01	1	0.21126463300061	1	106	NA	287.584952127	0	0.76	3.32	1	279.07683519	279.288099823	"9"	8462.937194711	8454.808728312	1.5	0.1
0.01	1	0.201310376999572	1	106	NA	287.584952127	0	0.76	3.32	1	279.510836585	279.712146962	"9"	8462.937194711	8454.808728312	1.5	0.1
0.01	1	0.309432080999613	1	106	NA	287.584952127	0	0.76	3.32	1	279.94488546	280.254317541	"9"	8462.937194711	8454.808728312	1.5	0.1
0.01	1	0.30469383199943	1	106	NA	287.584952127	0	0.76	3.32	1	280.479117462	280.783811294	"9"	8462.937194711	8454.808728312	1.5	0.1
0.01	1	0.249309952999283	1	106	NA	287.584952127	0	0.76	3.32	1	281.01329554	281.262605493	"9"	8462.937194711	8454.808728312	1.5	0.1
0.01	1	0.4446713920006	1	106	NA	287.584952127	0	0.76	3.32	1	281.497516095	281.942187487	"9"	8462.937194711	8454.808728312	1.5	0.1
0.01	1	0.330521196999143	1	106	NA	287.584952127	0	0.76	3.32	1	282.165336169001	282.495857366	"9"	8462.937194711	8454.808728312	1.5	0.1
0.01	1	0.314183972999672	1	106	NA	287.584952127	0	0.76	3.32	1	282.73292365	283.047107623	"9"	8462.937194711	8454.808728312	1.5	0.1
0.01	1	0.306945147000079	1	106	NA	287.584952127	0	0.76	3.32	1	283.283927825	283.590872972	"9"	8462.937194711	8454.808728312	1.5	0.1
0.01	1	0.429023946000598	1	106	NA	287.584952127	0	0.76	3.32	1	283.81830784	284.247331786	"9"	8462.937194711	8454.808728312	1.5	0.1
0.01	1	0.369648367000082	1	106	NA	287.584952127	0	0.76	3.32	1	284.469113155	284.838761522	"9"	8462.937194711	8454.808728312	1.5	0.1
0.01	1	0.249703323999711	1	106	NA	287.584952127	0	0.76	3.32	1	285.070179320001	285.319882644	"9"	8462.937194711	8454.808728312	1.5	0.1
0.01	1	0.228851712000505	1	106	NA	287.584952127	0	0.76	3.32	1	285.554413467	285.783265179	"9"	8462.937194711	8454.808728312	1.5	0.1
0.01	1	0.22601853299966	1	106	NA	287.584952127	0	0.76	3.32	1	286.005068851	286.231087384	"9"	8462.937194711	8454.808728312	1.5	0.1
0.01	1	0.141851925999617	1	106	NA	287.584952127	0	0.76	3.32	1	286.472562341	286.614414267	"9"	8462.937194711	8454.808728312	1.5	0.1
0.01	1	0.743638323000596	2	106	NA	287.584952127	0	0.76	3.32	1	286.839774927	287.58341325	"9"	8462.937194711	8454.808728312	1.5	0.1
0.01	1	4.71460467700035	1	21	299.630934242	NA	1	0	3.32	1	289.61115418	294.325758857	"10"	8462.937194711	8454.808728312	1.5	0.1
0.01	1	0.00447834999977204	1	21	299.630934242	NA	1	0	3.32	1	294.552765070001	294.55724342	"10"	8462.937194711	8454.808728312	1.5	0.1
0.01	1	0.00368383699969854	1	21	299.630934242	NA	1	0	3.32	1	294.786538752001	294.790222589	"10"	8462.937194711	8454.808728312	1.5	0.1
0.01	1	0.00337101800050732	1	21	299.630934242	NA	1	0	3.32	1	295.020301687	295.023672705001	"10"	8462.937194711	8454.808728312	1.5	0.1
0.01	1	0.00341982999998436	1	21	299.630934242	NA	1	0	3.32	1	295.254067335	295.257487165	"10"	8462.937194711	8454.808728312	1.5	0.1
0.01	1	0.00390605499978847	1	21	299.630934242	NA	1	0	3.32	1	295.48774382	295.491649875	"10"	8462.937194711	8454.808728312	1.5	0.1
0.01	1	0.00378315699981613	1	21	299.630934242	NA	1	0	3.32	1	295.721421712	295.725204869	"10"	8462.937194711	8454.808728312	1.5	0.1
0.01	1	0.00395463899985771	1	21	299.630934242	NA	1	0	3.32	1	295.955155222	295.959109861	"10"	8462.937194711	8454.808728312	1.5	0.1
0.01	1	0.0036066379998374	1	21	299.630934242	NA	1	0	3.32	1	296.188830217	296.192436855	"10"	8462.937194711	8454.808728312	1.5	0.1
0.01	1	0.00380211799983954	1	21	299.630934242	NA	1	0	3.32	1	296.422534345	296.426336463	"10"	8462.937194711	8454.808728312	1.5	0.1
0.01	1	0.00377121600013197	1	21	299.630934242	NA	1	0	3.32	1	296.656363757	296.660134973	"10"	8462.937194711	8454.808728312	1.5	0.1
0.01	1	0.227766091000376	1	21	299.630934242	NA	1	0	3.32	1	296.890023055	297.117789146	"10"	8462.937194711	8454.808728312	1.5	0.1
0.01	1	0.0046370449999813	1	21	299.630934242	NA	1	0	3.32	1	297.34086021	297.345497255	"10"	8462.937194711	8454.808728312	1.5	0.1
0.01	1	0.0384286609996707	1	21	299.630934242	NA	1	0	3.32	1	297.574628675	297.613057336	"10"	8462.937194711	8454.808728312	1.5	0.1
0.01	1	0.00332022199927451	1	21	299.630934242	NA	1	0	3.32	1	297.841621907	297.844942129	"10"	8462.937194711	8454.808728312	1.5	0.1
0.01	1	0.00459793499976513	1	21	299.630934242	NA	1	0	3.32	1	298.07543814	298.080036075	"10"	8462.937194711	8454.808728312	1.5	0.1
0.01	1	0.0037528309994741	1	21	299.630934242	NA	1	0	3.32	1	298.30917069	298.312923521	"10"	8462.937194711	8454.808728312	1.5	0.1
0.01	1	0.158863331999783	1	21	299.630934242	NA	1	0	3.32	1	298.542808745	298.701672077	"10"	8462.937194711	8454.808728312	1.5	0.1
0.01	1	0.00466212999981508	1	21	299.630934242	NA	1	0	3.32	1	298.92686254	298.93152467	"10"	8462.937194711	8454.808728312	1.5	0.1
0.01	1	0.12544619900018	1	21	299.630934242	NA	1	0	3.32	1	299.160568845	299.286015044	"10"	8462.937194711	8454.808728312	1.5	0.1
0.01	1	0.00459967499955383	1	21	299.630934242	NA	1	0	3.32	1	299.511216325001	299.515816	"10"	8462.937194711	8454.808728312	1.5	0.1
0.01	1	0.83651576200009	1	19	307.46065305	NA	1	0	3.32	1	301.681470282	302.517986044	"11"	8462.937194711	8454.808728312	1.5	0.1
0.01	1	0.0038957599999776	1	19	307.46065305	NA	1	0	3.32	1	302.749916305	302.753812065	"11"	8462.937194711	8454.808728312	1.5	0.1
0.01	1	0.00364153999998962	1	19	307.46065305	NA	1	0	3.32	1	302.983710625	302.987352165	"11"	8462.937194711	8454.808728312	1.5	0.1
0.01	1	0.00389643499966041	1	19	307.46065305	NA	1	0	3.32	1	303.217419812	303.221316247	"11"	8462.937194711	8454.808728312	1.5	0.1
0.01	1	0.00348972200026765	1	19	307.46065305	NA	1	0	3.32	1	303.451059287	303.454549009	"11"	8462.937194711	8454.808728312	1.5	0.1
0.01	1	0.00384339900028863	1	19	307.46065305	NA	1	0	3.32	1	303.6848533	303.688696699001	"11"	8462.937194711	8454.808728312	1.5	0.1
0.01	1	0.00363890999960859	1	19	307.46065305	NA	1	0	3.32	1	303.918561125	303.922200035	"11"	8462.937194711	8454.808728312	1.5	0.1
0.01	1	0.00451684000017849	1	19	307.46065305	NA	1	0	3.32	1	304.152252825	304.156769665	"11"	8462.937194711	8454.808728312	1.5	0.1
0.01	1	0.00362760099960724	1	19	307.46065305	NA	1	0	3.32	1	304.38601858	304.389646181	"11"	8462.937194711	8454.808728312	1.5	0.1
0.01	1	0.00457357999948727	1	19	307.46065305	NA	1	0	3.32	1	304.6198289	304.62440248	"11"	8462.937194711	8454.808728312	1.5	0.1
0.01	1	0.00388085699978546	1	19	307.46065305	NA	1	0	3.32	1	304.853444032	304.857324889	"11"	8462.937194711	8454.808728312	1.5	0.1
0.01	1	0.0034683080002651	1	19	307.46065305	NA	1	0	3.32	1	305.087284935	305.090753243	"11"	8462.937194711	8454.808728312	1.5	0.1
0.01	1	0.0037869400002819	1	19	307.46065305	NA	1	0	3.32	1	305.320929177	305.324716117	"11"	8462.937194711	8454.808728312	1.5	0.1
0.01	1	0.00462827699993795	1	19	307.46065305	NA	1	0	3.32	1	305.554689045	305.559317322	"11"	8462.937194711	8454.808728312	1.5	0.1
0.01	1	0.00387984799999685	1	19	307.46065305	NA	1	0	3.32	1	305.788372995	305.792252843	"11"	8462.937194711	8454.808728312	1.5	0.1
0.01	1	0.00386784300008003	1	19	307.46065305	NA	1	0	3.32	1	306.022041292	306.025909135	"11"	8462.937194711	8454.808728312	1.5	0.1
0.01	1	0.00384657799986599	1	19	307.46065305	NA	1	0	3.32	1	306.255825317	306.259671895	"11"	8462.937194711	8454.808728312	1.5	0.1
0.01	1	0.564322530999561	1	19	307.46065305	NA	1	0	3.32	1	306.48953804	307.053860571	"11"	8462.937194711	8454.808728312	1.5	0.1
0.01	1	0.0517360679996273	1	19	307.46065305	NA	1	0	3.32	1	307.290967695	307.342703763	"11"	8462.937194711	8454.808728312	1.5	0.1
0.01	1	0.0952628409995668	1	63	339.464624575	NA	1	0	3.32	1	309.511243417001	309.606506258	"12"	8462.937194711	8454.808728312	1.5	0.1
0.01	1	0.120396067999536	1	63	339.464624575	NA	1	0	3.32	1	309.845161205	309.965557273	"12"	8462.937194711	8454.808728312	1.5	0.1
0.01	1	0.0905400680003368	1	63	339.464624575	NA	1	0	3.32	1	310.19577083	310.286310898	"12"	8462.937194711	8454.808728312	1.5	0.1
0.01	1	0.00388349700006074	1	63	339.464624575	NA	1	0	3.32	1	310.51294376	310.516827257	"12"	8462.937194711	8454.808728312	1.5	0.1
0.01	1	0.0920274769996468	1	63	339.464624575	NA	1	0	3.32	1	310.746695695	310.838723172	"12"	8462.937194711	8454.808728312	1.5	0.1
0.01	1	0.00388290099999722	1	63	339.464624575	NA	1	0	3.32	1	311.063914692	311.067797593	"12"	8462.937194711	8454.808728312	1.5	0.1
0.01	1	0.124015170999883	1	63	339.464624575	NA	1	0	3.32	1	311.29766887	311.421684041	"12"	8462.937194711	8454.808728312	1.5	0.1
0.01	1	0.00315739999950893	1	63	339.464624575	NA	1	0	3.32	1	311.648301453	311.651458853	"12"	8462.937194711	8454.808728312	1.5	0.1
0.01	1	0.00381450900022173	1	63	339.464624575	NA	1	0	3.32	1	311.88186815	311.885682659	"12"	8462.937194711	8454.808728312	1.5	0.1
0.01	1	0.121300054999665	1	63	339.464624575	NA	1	0	3.32	1	312.115699812	312.236999867	"12"	8462.937194711	8454.808728312	1.5	0.1
0.01	1	0.00332660200001555	1	63	339.464624575	NA	1	0	3.32	1	312.466334635	312.469661237	"12"	8462.937194711	8454.808728312	1.5	0.1
0.01	1	0.00323038200076553	1	63	339.464624575	NA	1	0	3.32	1	312.700063347	312.703293729001	"12"	8462.937194711	8454.808728312	1.5	0.1
0.01	1	0.0044880479999847	1	63	339.464624575	NA	1	0	3.32	1	312.933721197001	312.938209245001	"12"	8462.937194711	8454.808728312	1.5	0.1
0.01	1	0.0620461689995864	1	63	339.464624575	NA	1	0	3.32	1	313.167425675	313.229471844	"12"	8462.937194711	8454.808728312	1.5	0.1
0.01	1	0.00375748199985537	1	63	339.464624575	NA	1	0	3.32	1	313.451260805	313.455018287	"12"	8462.937194711	8454.808728312	1.5	0.1
0.01	1	0.00301814400063449	1	63	339.464624575	NA	1	0	3.32	1	313.685024443	313.688042587	"12"	8462.937194711	8454.808728312	1.5	0.1
0.01	1	0.120132484999885	1	63	339.464624575	NA	1	0	3.32	1	313.918653005	314.03878549	"12"	8462.937194711	8454.808728312	1.5	0.1
0.01	1	0.112613793000492	1	63	339.464624575	NA	1	0	3.32	1	314.269323642	314.381937435001	"12"	8462.937194711	8454.808728312	1.5	0.1
0.01	1	0.00387070099986886	1	63	339.464624575	NA	1	0	3.32	1	314.61997567	314.623846371	"12"	8462.937194711	8454.808728312	1.5	0.1
0.01	1	0.00400259099933464	1	63	339.464624575	NA	1	0	3.32	1	314.853670162001	314.857672753	"12"	8462.937194711	8454.808728312	1.5	0.1
0.01	1	0.0862981620002756	1	63	339.464624575	NA	1	0	3.32	1	315.087318197	315.173616359	"12"	8462.937194711	8454.808728312	1.5	0.1
0.01	1	0.0412177609996434	1	63	339.464624575	NA	1	0	3.32	1	315.404501335001	315.445719096	"12"	8462.937194711	8454.808728312	1.5	0.1
0.01	1	0.00362635599958594	1	63	339.464624575	NA	1	0	3.32	1	315.671668177	315.675294533	"12"	8462.937194711	8454.808728312	1.5	0.1
0.01	1	0.0137203639997097	1	63	339.464624575	NA	1	0	3.32	1	315.9054126	315.919132964	"12"	8462.937194711	8454.808728312	1.5	0.1
0.01	1	4.48308467900006	1	63	339.464624575	NA	1	0	3.32	1	316.155808857	320.638893536	"12"	8462.937194711	8454.808728312	1.5	0.1
0.01	1	0.00428896200082818	1	63	339.464624575	NA	1	0	3.32	1	320.880394788	320.88468375	"12"	8462.937194711	8454.808728312	1.5	0.1
0.01	1	0.138981912999952	1	63	339.464624575	NA	1	0	3.32	1	321.114122642	321.253104555	"12"	8462.937194711	8454.808728312	1.5	0.1
0.01	1	0.0841994160000468	1	63	339.464624575	NA	1	0	3.32	1	321.48136929	321.565568706	"12"	8462.937194711	8454.808728312	1.5	0.1
0.01	1	0.00459136500012391	1	63	339.464624575	NA	1	0	3.32	1	321.798613845	321.80320521	"12"	8462.937194711	8454.808728312	1.5	0.1
0.01	1	0.356754561000344	1	63	339.464624575	NA	1	0	3.32	1	322.03235244	322.389107001	"12"	8462.937194711	8454.808728312	1.5	0.1
0.01	1	0.0779843929994968	1	63	339.464624575	NA	1	0	3.32	1	322.616723537	322.69470793	"12"	8462.937194711	8454.808728312	1.5	0.1
0.01	1	0.00295624999944266	1	63	339.464624575	NA	1	0	3.32	1	322.917209973	322.920166223	"12"	8462.937194711	8454.808728312	1.5	0.1
0.01	1	0.360034452000036	1	63	339.464624575	NA	1	0	3.32	1	323.150911	323.510945452	"12"	8462.937194711	8454.808728312	1.5	0.1
