"payoff.level"	"balloon"	"rt"	"resp"	"explode.trial"	"explode.time"	"finish.time"	"exploded"	"trial.total"	"cumulative.total"	"finished"	"trial.start"	"trial.end"	"trial.num"	"secs"	"start.time"	"iti"	"isi"
0.01	1	1.63993224099977	1	64	27.8664810819901	NA	1	0	0	1	0.0149103800067678	1.65484262100654	"1"	205683.158897258	205676.938734365	1.5	0.1
0.01	1	0.832685430010315	1	64	27.8664810819901	NA	1	0	0	1	1.95141917999717	2.78410461000749	"1"	205683.158897258	205676.938734365	1.5	0.1
0.01	1	0.867582973995013	1	64	27.8664810819901	NA	1	0	0	1	3.01994133999688	3.88752431399189	"1"	205683.158897258	205676.938734365	1.5	0.1
0.01	1	0.574229211983038	1	64	27.8664810819901	NA	1	0	0	1	4.12176280701533	4.69599201899837	"1"	205683.158897258	205676.938734365	1.5	0.1
0.01	1	0.516495785006555	1	64	27.8664810819901	NA	1	0	0	1	4.9231223250099	5.43961811001645	"1"	205683.158897258	205676.938734365	1.5	0.1
0.01	1	0.492698678019224	1	64	27.8664810819901	NA	1	0	0	1	5.67425008499413	6.16694876301335	"1"	205683.158897258	205676.938734365	1.5	0.1
0.01	1	0.320256980980048	1	64	27.8664810819901	NA	1	0	0	1	6.39222635701299	6.71248333799304	"1"	205683.158897258	205676.938734365	1.5	0.1
0.01	1	0.28001733700512	1	64	27.8664810819901	NA	1	0	0	1	6.94311023000046	7.22312756700558	"1"	205683.158897258	205676.938734365	1.5	0.1
0.01	1	0.219032619002974	1	64	27.8664810819901	NA	1	0	0	1	7.46071436500642	7.6797469840094	"1"	205683.158897258	205676.938734365	1.5	0.1
0.01	1	0.264287811995018	1	64	27.8664810819901	NA	1	0	0	1	7.9114614650025	8.17574927699752	"1"	205683.158897258	205676.938734365	1.5	0.1
0.01	1	0.730627013021149	1	64	27.8664810819901	NA	1	0	0	1	8.41227075699135	9.1428977700125	"1"	205683.158897258	205676.938734365	1.5	0.1
0.01	1	0.250659882003674	1	64	27.8664810819901	NA	1	0	0	1	9.38069283499499	9.63135271699866	"1"	205683.158897258	205676.938734365	1.5	0.1
0.01	1	0.25473003598745	1	64	27.8664810819901	NA	1	0	0	1	9.86476010500337	10.1194901409908	"1"	205683.158897258	205676.938734365	1.5	0.1
0.01	1	0.258170069981134	1	64	27.8664810819901	NA	1	0	0	1	10.3489776310162	10.6071477009973	"1"	205683.158897258	205676.938734365	1.5	0.1
0.01	1	0.261927226994885	1	64	27.8664810819901	NA	1	0	0	1	10.8330282020033	11.0949554289982	"1"	205683.158897258	205676.938734365	1.5	0.1
0.01	1	0.298475098010385	1	64	27.8664810819901	NA	1	0	0	1	11.3171991150011	11.6156742130115	"1"	205683.158897258	205676.938734365	1.5	0.1
0.01	1	0.243684457003837	1	64	27.8664810819901	NA	1	0	0	1	11.851327190001	12.0950116470049	"1"	205683.158897258	205676.938734365	1.5	0.1
0.01	1	0.231919463025406	1	64	27.8664810819901	NA	1	0	0	1	12.3356363319908	12.5675557950162	"1"	205683.158897258	205676.938734365	1.5	0.1
0.01	1	0.260244563018205	1	64	27.8664810819901	NA	1	0	0	1	12.8030037599965	13.0632483230147	"1"	205683.158897258	205676.938734365	1.5	0.1
0.01	1	0.280662595992908	1	64	27.8664810819901	NA	1	0	0	1	13.287158874009	13.5678214700019	"1"	205683.158897258	205676.938734365	1.5	0.1
0.01	1	0.34731032999116	1	64	27.8664810819901	NA	1	0	0	1	13.8047185250034	14.1520288549946	"1"	205683.158897258	205676.938734365	1.5	0.1
0.01	1	0.2434563949937	1	64	27.8664810819901	NA	1	0	0	1	14.3890162600146	14.6324726550083	"1"	205683.158897258	205676.938734365	1.5	0.1
0.01	1	0.214886284986278	1	64	27.8664810819901	NA	1	0	0	1	14.8564587600122	15.0713450449985	"1"	205683.158897258	205676.938734365	1.5	0.1
0.01	1	0.188318094005808	1	64	27.8664810819901	NA	1	0	0	1	15.3072216899891	15.4955397839949	"1"	205683.158897258	205676.938734365	1.5	0.1
0.01	1	0.17024957400281	1	64	27.8664810819901	NA	1	0	0	1	15.7245864899887	15.8948360639915	"1"	205683.158897258	205676.938734365	1.5	0.1
0.01	1	0.122632744984003	1	64	27.8664810819901	NA	1	0	0	1	16.1253286050051	16.2479613499891	"1"	205683.158897258	205676.938734365	1.5	0.1
0.01	1	0.0839925390027929	1	64	27.8664810819901	NA	1	0	0	1	16.4758194049937	16.5598119439965	"1"	205683.158897258	205676.938734365	1.5	0.1
0.01	1	0.19786653900519	1	64	27.8664810819901	NA	1	0	0	1	16.7929851649969	16.9908517040021	"1"	205683.158897258	205676.938734365	1.5	0.1
0.01	1	0.164928240003064	1	64	27.8664810819901	NA	1	0	0	1	17.2271056919999	17.392033932003	"1"	205683.158897258	205676.938734365	1.5	0.1
0.01	1	0.179901872004848	1	64	27.8664810819901	NA	1	0	0	1	17.6278552000003	17.8077570720052	"1"	205683.158897258	205676.938734365	1.5	0.1
0.01	1	0.209688971022842	1	64	27.8664810819901	NA	1	0	0	1	18.0451961419894	18.2548851130123	"1"	205683.158897258	205676.938734365	1.5	0.1
0.01	1	0.00329119799425825	1	64	27.8664810819901	NA	1	0	0	1	18.495824521	18.4991157189943	"1"	205683.158897258	205676.938734365	1.5	0.1
0.01	1	0.0947368750057649	1	64	27.8664810819901	NA	1	0	0	1	18.7297051619971	18.8244420370029	"1"	205683.158897258	205676.938734365	1.5	0.1
0.01	1	0.0730671769997571	1	64	27.8664810819901	NA	1	0	0	1	19.0468384849955	19.1199056619953	"1"	205683.158897258	205676.938734365	1.5	0.1
0.01	1	0.0682216789864469	1	64	27.8664810819901	NA	1	0	0	1	19.3474370650074	19.4156587439938	"1"	205683.158897258	205676.938734365	1.5	0.1
0.01	1	0.0646930109942332	1	64	27.8664810819901	NA	1	0	0	1	19.6478917509958	19.71258476199	"1"	205683.158897258	205676.938734365	1.5	0.1
0.01	1	0.0521352859796025	1	64	27.8664810819901	NA	1	0	0	1	19.9483610730094	20.000496358989	"1"	205683.158897258	205676.938734365	1.5	0.1
0.01	1	0.0474544010066893	1	64	27.8664810819901	NA	1	0	0	1	20.2321013250039	20.2795557260106	"1"	205683.158897258	205676.938734365	1.5	0.1
0.01	1	0.0600374289788306	1	64	27.8664810819901	NA	1	0	0	1	20.5159555420105	20.5759929709893	"1"	205683.158897258	205676.938734365	1.5	0.1
0.01	1	0.103757246979512	1	64	27.8664810819901	NA	1	0	0	1	20.799851245014	20.9036084919935	"1"	205683.158897258	205676.938734365	1.5	0.1
0.01	1	0.129208212980302	1	64	27.8664810819901	NA	1	0	0	1	21.1336934250139	21.2629016379942	"1"	205683.158897258	205676.938734365	1.5	0.1
0.01	1	0.00458161500864662	1	64	27.8664810819901	NA	1	0	0	1	21.5009430850041	21.5055247000128	"1"	205683.158897258	205676.938734365	1.5	0.1
0.01	1	0.02528433300904	1	64	27.8664810819901	NA	1	0	0	1	21.7346445799922	21.7599289130012	"1"	205683.158897258	205676.938734365	1.5	0.1
0.01	1	0.0378897629852872	1	64	27.8664810819901	NA	1	0	0	1	21.9850786770112	22.0229684399965	"1"	205683.158897258	205676.938734365	1.5	0.1
0.01	1	0.0281929380143993	1	64	27.8664810819901	NA	1	0	0	1	22.2522237419907	22.2804166800051	"1"	205683.158897258	205676.938734365	1.5	0.1
0.01	1	0.0488573629991151	1	64	27.8664810819901	NA	1	0	0	1	22.5026914199989	22.551548782998	"1"	205683.158897258	205676.938734365	1.5	0.1
0.01	1	0.00673066300805658	1	64	27.8664810819901	NA	1	0	0	1	22.786429492	22.7931601550081	"1"	205683.158897258	205676.938734365	1.5	0.1
0.01	1	0.0359645550197456	1	64	27.8664810819901	NA	1	0	0	1	23.0202153199934	23.0561798750132	"1"	205683.158897258	205676.938734365	1.5	0.1
0.01	1	0.0478043640032411	1	64	27.8664810819901	NA	1	0	0	1	23.2873985350016	23.3352028990048	"1"	205683.158897258	205676.938734365	1.5	0.1
0.01	1	0.0932992830057628	1	64	27.8664810819901	NA	1	0	0	1	23.5711313470092	23.664430630015	"1"	205683.158897258	205676.938734365	1.5	0.1
0.01	1	0.0713466580200475	1	64	27.8664810819901	NA	1	0	0	1	23.888296494988	23.9596431530081	"1"	205683.158897258	205676.938734365	1.5	0.1
0.01	1	0.026040042983368	1	64	27.8664810819901	NA	1	0	0	1	24.1888594170159	24.2148994599993	"1"	205683.158897258	205676.938734365	1.5	0.1
0.01	1	0.00804321799660102	1	64	27.8664810819901	NA	1	0	0	1	24.4559898650041	24.4640330830007	"1"	205683.158897258	205676.938734365	1.5	0.1
0.01	1	0.00743827401311137	1	64	27.8664810819901	NA	1	0	0	1	24.6896747610008	24.6971130350139	"1"	205683.158897258	205676.938734365	1.5	0.1
0.01	1	0.0275641990010627	1	64	27.8664810819901	NA	1	0	0	1	24.9233616869897	24.9509258859907	"1"	205683.158897258	205676.938734365	1.5	0.1
0.01	1	0.0255647900048643	1	64	27.8664810819901	NA	1	0	0	1	25.1738180019893	25.1993827919941	"1"	205683.158897258	205676.938734365	1.5	0.1
0.01	1	0.0233703959966078	1	64	27.8664810819901	NA	1	0	0	1	25.4242043849954	25.447574780992	"1"	205683.158897258	205676.938734365	1.5	0.1
0.01	1	0.013128767022863	1	64	27.8664810819901	NA	1	0	0	1	25.6746796669904	25.6878084340133	"1"	205683.158897258	205676.938734365	1.5	0.1
0.01	1	0.0177432250056881	1	64	27.8664810819901	NA	1	0	0	1	25.9250508050027	25.9427940300084	"1"	205683.158897258	205676.938734365	1.5	0.1
0.01	1	0.07119967698236	1	64	27.8664810819901	NA	1	0	0	1	26.1756322550063	26.2468319319887	"1"	205683.158897258	205676.938734365	1.5	0.1
0.01	1	0.49939922298654	1	64	27.8664810819901	NA	1	0	0	1	26.476071120007	26.9754703429935	"1"	205683.158897258	205676.938734365	1.5	0.1
0.01	1	0.00249859600444324	1	64	27.8664810819901	NA	1	0	0	1	27.2106635390082	27.2131621350127	"1"	205683.158897258	205676.938734365	1.5	0.1
0.01	1	0.0196522999904118	1	64	27.8664810819901	NA	1	0	0	1	27.4443471720151	27.4639994720055	"1"	205683.158897258	205676.938734365	1.5	0.1
0.01	1	0.0496827650058549	1	64	27.8664810819901	NA	1	0	0	1	27.6947818699991	27.744464635005	"1"	205683.158897258	205676.938734365	1.5	0.1
0.01	1	0.692390227981377	1	15	34.3927960119909	NA	1	0	0	1	29.8984716150153	30.5908618429967	"2"	205683.158897258	205676.938734365	1.5	0.1
0.01	1	0.00369774200953543	1	15	34.3927960119909	NA	1	0	0	1	30.8167430750036	30.8204408170132	"2"	205683.158897258	205676.938734365	1.5	0.1
0.01	1	0.0863144640170503	1	15	34.3927960119909	NA	1	0	0	1	31.0504184699967	31.1367329340137	"2"	205683.158897258	205676.938734365	1.5	0.1
0.01	1	0.025216445006663	1	15	34.3927960119909	NA	1	0	0	1	31.3677475950099	31.3929640400165	"2"	205683.158897258	205676.938734365	1.5	0.1
0.01	1	0.0303609099937603	1	15	34.3927960119909	NA	1	0	0	1	31.618017085013	31.6483779950067	"2"	205683.158897258	205676.938734365	1.5	0.1
0.01	1	0.0111167289724108	1	15	34.3927960119909	NA	1	0	0	1	31.8852315370168	31.8963482659892	"2"	205683.158897258	205676.938734365	1.5	0.1
0.01	1	0.0486889609892387	1	15	34.3927960119909	NA	1	0	0	1	32.1187961600081	32.1674851209973	"2"	205683.158897258	205676.938734365	1.5	0.1
0.01	1	0.00340604802477174	1	15	34.3927960119909	NA	1	0	0	1	32.4027098949882	32.406115943013	"2"	205683.158897258	205676.938734365	1.5	0.1
0.01	1	0.0427954659971874	1	15	34.3927960119909	NA	1	0	0	1	32.636392735003	32.6791882010002	"2"	205683.158897258	205676.938734365	1.5	0.1
0.01	1	0.0805543170135934	1	15	34.3927960119909	NA	1	0	0	1	32.903560131992	32.9841144490056	"2"	205683.158897258	205676.938734365	1.5	0.1
0.01	1	0.0430583620036487	1	15	34.3927960119909	NA	1	0	0	1	33.2206488169904	33.2637071789941	"2"	205683.158897258	205676.938734365	1.5	0.1
0.01	1	0.0400909720046911	1	15	34.3927960119909	NA	1	0	0	1	33.4878802000021	33.5279711720068	"2"	205683.158897258	205676.938734365	1.5	0.1
0.01	1	0.0363644690078218	1	15	34.3927960119909	NA	1	0	0	1	33.7550367049989	33.7914011740068	"2"	205683.158897258	205676.938734365	1.5	0.1
0.01	1	0.0181796939868946	1	15	34.3927960119909	NA	1	0	0	1	34.0221150020079	34.0402946959948	"2"	205683.158897258	205676.938734365	1.5	0.1
0.01	1	0.00972252897918224	1	15	34.3927960119909	NA	1	0	0	1	34.2724145300162	34.2821370589954	"2"	205683.158897258	205676.938734365	1.5	0.1
0.01	1	0.454790774005232	1	66	NA	47.4255278029887	0	0.4	0.4	1	36.4261868800095	36.8809776540147	"3"	205683.158897258	205676.938734365	1.5	0.1
0.01	1	0.00461942201945931	1	66	NA	47.4255278029887	0	0.4	0.4	1	37.1106656299962	37.1152850520157	"3"	205683.158897258	205676.938734365	1.5	0.1
0.01	1	0.0319181669910904	1	66	NA	47.4255278029887	0	0.4	0.4	1	37.3443786650023	37.3762968319934	"3"	205683.158897258	205676.938734365	1.5	0.1
0.01	1	0.0287693770078477	1	66	NA	47.4255278029887	0	0.4	0.4	1	37.6114180349978	37.6401874120056	"3"	205683.158897258	205676.938734365	1.5	0.1
0.01	1	0.0180494159867521	1	66	NA	47.4255278029887	0	0.4	0.4	1	37.878652370011	37.8967017859977	"3"	205683.158897258	205676.938734365	1.5	0.1
0.01	1	0.0140306369867176	1	66	NA	47.4255278029887	0	0.4	0.4	1	38.1289253520081	38.1429559889948	"3"	205683.158897258	205676.938734365	1.5	0.1
0.01	1	0.0120503469952382	1	66	NA	47.4255278029887	0	0.4	0.4	1	38.3794214350055	38.3914717820007	"3"	205683.158897258	205676.938734365	1.5	0.1
0.01	1	0.00973395901382901	1	66	NA	47.4255278029887	0	0.4	0.4	1	38.6297747849894	38.6395087440033	"3"	205683.158897258	205676.938734365	1.5	0.1
0.01	1	0.0322456299909391	1	66	NA	47.4255278029887	0	0.4	0.4	1	38.863666899997	38.895912529988	"3"	205683.158897258	205676.938734365	1.5	0.1
0.01	1	0.00618165099876933	1	66	NA	47.4255278029887	0	0.4	0.4	1	39.1306396700093	39.136821321008	"3"	205683.158897258	205676.938734365	1.5	0.1
0.01	1	0.0506860809982754	1	66	NA	47.4255278029887	0	0.4	0.4	1	39.3643849200162	39.4150710010144	"3"	205683.158897258	205676.938734365	1.5	0.1
0.01	1	0.0159023599990178	1	66	NA	47.4255278029887	0	0.4	0.4	1	39.6482313699962	39.6641337299952	"3"	205683.158897258	205676.938734365	1.5	0.1
0.01	1	0.0211080789740663	1	66	NA	47.4255278029887	0	0.4	0.4	1	39.8985787900165	39.9196868689905	"3"	205683.158897258	205676.938734365	1.5	0.1
0.01	1	0.0426854410034139	1	66	NA	47.4255278029887	0	0.4	0.4	1	40.1490499399952	40.1917353809986	"3"	205683.158897258	205676.938734365	1.5	0.1
0.01	1	0.0406107990129385	1	66	NA	47.4255278029887	0	0.4	0.4	1	40.4162136419909	40.4568244410038	"3"	205683.158897258	205676.938734365	1.5	0.1
0.01	1	0.0445380700111855	1	66	NA	47.4255278029887	0	0.4	0.4	1	40.6832541699987	40.7277922400099	"3"	205683.158897258	205676.938734365	1.5	0.1
0.01	1	0.0174336740165018	1	66	NA	47.4255278029887	0	0.4	0.4	1	40.9505123549898	40.9679460290063	"3"	205683.158897258	205676.938734365	1.5	0.1
0.01	1	0.0304508069821168	1	66	NA	47.4255278029887	0	0.4	0.4	1	41.2007814600074	41.2312322669895	"3"	205683.158897258	205676.938734365	1.5	0.1
0.01	1	0.0204378270136658	1	66	NA	47.4255278029887	0	0.4	0.4	1	41.4679739720013	41.488411799015	"3"	205683.158897258	205676.938734365	1.5	0.1
0.01	1	0.0576887399947736	1	66	NA	47.4255278029887	0	0.4	0.4	1	41.7183316019946	41.7760203419894	"3"	205683.158897258	205676.938734365	1.5	0.1
0.01	1	0.0624007940059528	1	66	NA	47.4255278029887	0	0.4	0.4	1	42.0021542609902	42.0645550549962	"3"	205683.158897258	205676.938734365	1.5	0.1
0.01	1	0.034091300010914	1	66	NA	47.4255278029887	0	0.4	0.4	1	42.3026283899962	42.3367196900072	"3"	205683.158897258	205676.938734365	1.5	0.1
0.01	1	0.0306245239917189	1	66	NA	47.4255278029887	0	0.4	0.4	1	42.5697677000135	42.6003922240052	"3"	205683.158897258	205676.938734365	1.5	0.1
0.01	1	0.00406146701425314	1	66	NA	47.4255278029887	0	0.4	0.4	1	42.8370472819952	42.8411087490094	"3"	205683.158897258	205676.938734365	1.5	0.1
0.01	1	0.0174414369976148	1	66	NA	47.4255278029887	0	0.4	0.4	1	43.0706649149943	43.0881063519919	"3"	205683.158897258	205676.938734365	1.5	0.1
0.01	1	0.023435495008016	1	66	NA	47.4255278029887	0	0.4	0.4	1	43.3210920119891	43.3445275069971	"3"	205683.158897258	205676.938734365	1.5	0.1
0.01	1	0.0284083579899743	1	66	NA	47.4255278029887	0	0.4	0.4	1	43.5714817400149	43.5998900980048	"3"	205683.158897258	205676.938734365	1.5	0.1
0.01	1	0.034450243023457	1	66	NA	47.4255278029887	0	0.4	0.4	1	43.8218763399927	43.8563265830162	"3"	205683.158897258	205676.938734365	1.5	0.1
0.01	1	0.0395008330233395	1	66	NA	47.4255278029887	0	0.4	0.4	1	44.0890084769926	44.1285093100159	"3"	205683.158897258	205676.938734365	1.5	0.1
0.01	1	0.0446037740039174	1	66	NA	47.4255278029887	0	0.4	0.4	1	44.3561898350017	44.4007936090056	"3"	205683.158897258	205676.938734365	1.5	0.1
0.01	1	0.0809496630099602	1	66	NA	47.4255278029887	0	0.4	0.4	1	44.623258556996	44.704208220006	"3"	205683.158897258	205676.938734365	1.5	0.1
0.01	1	0.0428980200085789	1	66	NA	47.4255278029887	0	0.4	0.4	1	44.9405250549898	44.9834230749984	"3"	205683.158897258	205676.938734365	1.5	0.1
0.01	1	0.0559216919937171	1	66	NA	47.4255278029887	0	0.4	0.4	1	45.2075602709956	45.2634819629893	"3"	205683.158897258	205676.938734365	1.5	0.1
0.01	1	0.044770773005439	1	66	NA	47.4255278029887	0	0.4	0.4	1	45.4913565540046	45.53612732701	"3"	205683.158897258	205676.938734365	1.5	0.1
0.01	1	0.0494153949839529	1	66	NA	47.4255278029887	0	0.4	0.4	1	45.7584315050044	45.8078468999884	"3"	205683.158897258	205676.938734365	1.5	0.1
0.01	1	0.0293750500131864	1	66	NA	47.4255278029887	0	0.4	0.4	1	46.0422936769901	46.0716687270033	"3"	205683.158897258	205676.938734365	1.5	0.1
0.01	1	0.0176532089826651	1	66	NA	47.4255278029887	0	0.4	0.4	1	46.3094552920084	46.327108500991	"3"	205683.158897258	205676.938734365	1.5	0.1
0.01	1	0.0323572919878643	1	66	NA	47.4255278029887	0	0.4	0.4	1	46.5598826420028	46.5922399339906	"3"	205683.158897258	205676.938734365	1.5	0.1
0.01	1	0.0201926759909838	1	66	NA	47.4255278029887	0	0.4	0.4	1	46.8269902449974	46.8471829209884	"3"	205683.158897258	205676.938734365	1.5	0.1
0.01	1	0.0422062230063602	1	66	NA	47.4255278029887	0	0.4	0.4	1	47.0773253699881	47.1195315929945	"3"	205683.158897258	205676.938734365	1.5	0.1
0.01	1	0.0795567499881145	2	66	NA	47.4255278029887	0	0.4	0.4	1	47.3444001020107	47.4239568519988	"3"	205683.158897258	205676.938734365	1.5	0.1
0.01	1	0.501924545009388	1	16	53.8087561150023	NA	1	0	0.4	1	49.4814133970067	49.9833379420161	"4"	205683.158897258	205676.938734365	1.5	0.1
0.01	1	0.0157893770083319	1	16	53.8087561150023	NA	1	0	0.4	1	50.2159341899969	50.2317235670052	"4"	205683.158897258	205676.938734365	1.5	0.1
0.01	1	0.0456998219888192	1	16	53.8087561150023	NA	1	0	0.4	1	50.466438160016	50.5121379820048	"4"	205683.158897258	205676.938734365	1.5	0.1
0.01	1	0.0265897389908787	1	16	53.8087561150023	NA	1	0	0.4	1	50.7335197750072	50.760109513998	"4"	205683.158897258	205676.938734365	1.5	0.1
0.01	1	0.00971303798723966	1	16	53.8087561150023	NA	1	0	0.4	1	50.9839362520142	50.9936492900015	"4"	205683.158897258	205676.938734365	1.5	0.1
0.01	1	0.0381216350069735	1	16	53.8087561150023	NA	1	0	0.4	1	51.2177374449966	51.2558590800036	"4"	205683.158897258	205676.938734365	1.5	0.1
0.01	1	0.0118707350047771	1	16	53.8087561150023	NA	1	0	0.4	1	51.4848172370112	51.4966879720159	"4"	205683.158897258	205676.938734365	1.5	0.1
0.01	1	0.017818530992372	1	16	53.8087561150023	NA	1	0	0.4	1	51.718443832011	51.7362623630033	"4"	205683.158897258	205676.938734365	1.5	0.1
0.01	1	0.0082108830101788	1	16	53.8087561150023	NA	1	0	0.4	1	51.9688906199881	51.9771015029983	"4"	205683.158897258	205676.938734365	1.5	0.1
0.01	1	0.0136258259881288	1	16	53.8087561150023	NA	1	0	0.4	1	52.2026568420115	52.2162826679996	"4"	205683.158897258	205676.938734365	1.5	0.1
0.01	1	0.00369395298184827	1	16	53.8087561150023	NA	1	0	0.4	1	52.4531049620127	52.4567989149946	"4"	205683.158897258	205676.938734365	1.5	0.1
0.01	1	0.0339908250025474	1	16	53.8087561150023	NA	1	0	0.4	1	52.6868581300077	52.7208489550103	"4"	205683.158897258	205676.938734365	1.5	0.1
0.01	1	0.0128686279931571	1	16	53.8087561150023	NA	1	0	0.4	1	52.953968590009	52.9668372180022	"4"	205683.158897258	205676.938734365	1.5	0.1
0.01	1	0.0114215880166739	1	16	53.8087561150023	NA	1	0	0.4	1	53.2043592449918	53.2157808330085	"4"	205683.158897258	205676.938734365	1.5	0.1
0.01	1	0.0177183079940733	1	16	53.8087561150023	NA	1	0	0.4	1	53.438074442005	53.4557927499991	"4"	205683.158897258	205676.938734365	1.5	0.1
0.01	1	0.00357257801806554	1	16	53.8087561150023	NA	1	0	0.4	1	53.6884084549965	53.6919810330146	"4"	205683.158897258	205676.938734365	1.5	0.1
0.01	1	0.349044511996908	1	50	68.6498594619916	NA	1	0	0.4	1	55.8421339500055	56.1911784620024	"5"	205683.158897258	205676.938734365	1.5	0.1
0.01	1	0.00328136997995898	1	50	68.6498594619916	NA	1	0	0.4	1	56.4264309990103	56.4297123689903	"5"	205683.158897258	205676.938734365	1.5	0.1
0.01	1	0.0188547260186169	1	50	68.6498594619916	NA	1	0	0.4	1	56.6601720119943	56.6790267380129	"5"	205683.158897258	205676.938734365	1.5	0.1
0.01	1	0.0254716379859019	1	50	68.6498594619916	NA	1	0	0.4	1	56.9105873850058	56.9360590229917	"5"	205683.158897258	205676.938734365	1.5	0.1
0.01	1	0.00750324397813529	1	50	68.6498594619916	NA	1	0	0.4	1	57.1610867110139	57.1685899549921	"5"	205683.158897258	205676.938734365	1.5	0.1
0.01	1	0.0119846659945324	1	50	68.6498594619916	NA	1	0	0.4	1	57.3947035669989	57.4066882329935	"5"	205683.158897258	205676.938734365	1.5	0.1
0.01	1	0.0104806029994506	1	50	68.6498594619916	NA	1	0	0.4	1	57.6284416150011	57.6389222180005	"5"	205683.158897258	205676.938734365	1.5	0.1
0.01	1	0.0175325059972238	1	50	68.6498594619916	NA	1	0	0.4	1	57.8621833740035	57.8797158800007	"5"	205683.158897258	205676.938734365	1.5	0.1
0.01	1	0.0157223920105025	1	50	68.6498594619916	NA	1	0	0.4	1	58.1126398349879	58.1283622269984	"5"	205683.158897258	205676.938734365	1.5	0.1
0.01	1	0.00314121198607609	1	50	68.6498594619916	NA	1	0	0.4	1	58.3630535590055	58.3661947709916	"5"	205683.158897258	205676.938734365	1.5	0.1
0.01	1	0.0197764869953971	1	50	68.6498594619916	NA	1	0	0.4	1	58.5967125050083	58.6164889920037	"5"	205683.158897258	205676.938734365	1.5	0.1
0.01	1	0.0100540129933506	1	50	68.6498594619916	NA	1	0	0.4	1	58.8472397850128	58.8572937980061	"5"	205683.158897258	205676.938734365	1.5	0.1
0.01	1	0.0138769240002148	1	50	68.6498594619916	NA	1	0	0.4	1	59.08090927999	59.0947862039902	"5"	205683.158897258	205676.938734365	1.5	0.1
0.01	1	0.0120181400270667	1	50	68.6498594619916	NA	1	0	0.4	1	59.3313070219883	59.3433251620154	"5"	205683.158897258	205676.938734365	1.5	0.1
0.01	1	0.0113765810092445	1	50	68.6498594619916	NA	1	0	0.4	1	59.5816748799989	59.5930514610081	"5"	205683.158897258	205676.938734365	1.5	0.1
0.01	1	0.015960418008035	1	50	68.6498594619916	NA	1	0	0.4	1	59.8154803600046	59.8314407780126	"5"	205683.158897258	205676.938734365	1.5	0.1
0.01	1	0.0150578400061931	1	50	68.6498594619916	NA	1	0	0.4	1	60.0659696570074	60.0810274970136	"5"	205683.158897258	205676.938734365	1.5	0.1
0.01	1	0.00429481698665768	1	50	68.6498594619916	NA	1	0	0.4	1	60.3163712100068	60.3206660269934	"5"	205683.158897258	205676.938734365	1.5	0.1
0.01	1	0.017357426986564	1	50	68.6498594619916	NA	1	0	0.4	1	60.5500317400147	60.5673891670012	"5"	205683.158897258	205676.938734365	1.5	0.1
0.01	1	0.0229533950041514	1	50	68.6498594619916	NA	1	0	0.4	1	60.8005642000062	60.8235175950103	"5"	205683.158897258	205676.938734365	1.5	0.1
0.01	1	0.0210092399793211	1	50	68.6498594619916	NA	1	0	0.4	1	61.0509762600122	61.0719854999916	"5"	205683.158897258	205676.938734365	1.5	0.1
0.01	1	0.0176839749910869	1	50	68.6498594619916	NA	1	0	0.4	1	61.3013645600004	61.3190485349915	"5"	205683.158897258	205676.938734365	1.5	0.1
0.01	1	0.0151167579751927	1	50	68.6498594619916	NA	1	0	0.4	1	61.5516897950147	61.5668065529899	"5"	205683.158897258	205676.938734365	1.5	0.1
0.01	1	0.0130611659842543	1	50	68.6498594619916	NA	1	0	0.4	1	61.8021835570107	61.815244722995	"5"	205683.158897258	205676.938734365	1.5	0.1
0.01	1	0.0354628930217586	1	50	68.6498594619916	NA	1	0	0.4	1	62.0525422219944	62.0880051150161	"5"	205683.158897258	205676.938734365	1.5	0.1
0.01	1	0.00382014000206254	1	50	68.6498594619916	NA	1	0	0.4	1	62.3196925150114	62.3235126550135	"5"	205683.158897258	205676.938734365	1.5	0.1
0.01	1	0.0213064010022208	1	50	68.6498594619916	NA	1	0	0.4	1	62.5533938420122	62.5747002430144	"5"	205683.158897258	205676.938734365	1.5	0.1
0.01	1	0.0361319970106706	1	50	68.6498594619916	NA	1	0	0.4	1	62.8038176400005	62.8399496370112	"5"	205683.158897258	205676.938734365	1.5	0.1
0.01	1	0.00390230200719088	1	50	68.6498594619916	NA	1	0	0.4	1	63.070909394999	63.0748116970062	"5"	205683.158897258	205676.938734365	1.5	0.1
0.01	1	0.0224783419980668	1	50	68.6498594619916	NA	1	0	0.4	1	63.3046664450085	63.3271447870065	"5"	205683.158897258	205676.938734365	1.5	0.1
0.01	1	0.0285571410204284	1	50	68.6498594619916	NA	1	0	0.4	1	63.5551383309939	63.5836954720144	"5"	205683.158897258	205676.938734365	1.5	0.1
0.01	1	0.0039594859990757	1	50	68.6498594619916	NA	1	0	0.4	1	63.8220955849974	63.8260550709965	"5"	205683.158897258	205676.938734365	1.5	0.1
0.01	1	0.0326928650029004	1	50	68.6498594619916	NA	1	0	0.4	1	64.055970454996	64.0886633199989	"5"	205683.158897258	205676.938734365	1.5	0.1
0.01	1	0.0279528870014474	1	50	68.6498594619916	NA	1	0	0.4	1	64.3230435570003	64.3509964440018	"5"	205683.158897258	205676.938734365	1.5	0.1
0.01	1	0.00988285001949407	1	50	68.6498594619916	NA	1	0	0.4	1	64.5734825569962	64.5833654070157	"5"	205683.158897258	205676.938734365	1.5	0.1
0.01	1	0.0328128020046279	1	50	68.6498594619916	NA	1	0	0.4	1	64.8071532300091	64.8399660320138	"5"	205683.158897258	205676.938734365	1.5	0.1
0.01	1	0.0136404439981561	1	50	68.6498594619916	NA	1	0	0.4	1	65.0742695450026	65.0879099890008	"5"	205683.158897258	205676.938734365	1.5	0.1
0.01	1	0.0187288440065458	1	50	68.6498594619916	NA	1	0	0.4	1	65.3248183570104	65.3435472010169	"5"	205683.158897258	205676.938734365	1.5	0.1
0.01	1	0.0239844899915624	1	50	68.6498594619916	NA	1	0	0.4	1	65.5752074900083	65.5991919799999	"5"	205683.158897258	205676.938734365	1.5	0.1
0.01	1	0.0290636039862875	1	50	68.6498594619916	NA	1	0	0.4	1	65.8256026050076	65.8546662089939	"5"	205683.158897258	205676.938734365	1.5	0.1
0.01	1	0.0358690549910534	1	50	68.6498594619916	NA	1	0	0.4	1	66.0927897620131	66.1286588170042	"5"	205683.158897258	205676.938734365	1.5	0.1
0.01	1	0.0392134980065748	1	50	68.6498594619916	NA	1	0	0.4	1	66.3598730319936	66.3990865300002	"5"	205683.158897258	205676.938734365	1.5	0.1
0.01	1	0.0530567620007787	1	50	68.6498594619916	NA	1	0	0.4	1	66.6269631170144	66.6800198790152	"5"	205683.158897258	205676.938734365	1.5	0.1
0.01	1	0.0325148890260607	1	50	68.6498594619916	NA	1	0	0.4	1	66.9108804799907	66.9433953690168	"5"	205683.158897258	205676.938734365	1.5	0.1
0.01	1	0.0297650849970523	1	50	68.6498594619916	NA	1	0	0.4	1	67.177817245014	67.2075823300111	"5"	205683.158897258	205676.938734365	1.5	0.1
0.01	1	0.01797728301608	1	50	68.6498594619916	NA	1	0	0.4	1	67.4449301809946	67.4629074640106	"5"	205683.158897258	205676.938734365	1.5	0.1
0.01	1	0.0318908200133592	1	50	68.6498594619916	NA	1	0	0.4	1	67.6954759969958	67.7273668170092	"5"	205683.158897258	205676.938734365	1.5	0.1
0.01	1	0.0288508780067787	1	50	68.6498594619916	NA	1	0	0.4	1	67.9624868019891	67.9913376799959	"5"	205683.158897258	205676.938734365	1.5	0.1
0.01	1	0.033430301991757	1	50	68.6498594619916	NA	1	0	0.4	1	68.2296219819982	68.26305228399	"5"	205683.158897258	205676.938734365	1.5	0.1
0.01	1	0.0466285890142899	1	50	68.6498594619916	NA	1	0	0.4	1	68.496861319989	68.5434899090033	"5"	205683.158897258	205676.938734365	1.5	0.1
0.01	1	0.412308405997464	1	45	NA	76.9369835940015	0	0.23	0.63	1	70.6837970000051	71.0961054060026	"6"	205683.158897258	205676.938734365	1.5	0.1
0.01	1	0.00221066799713299	1	45	NA	76.9369835940015	0	0.23	0.63	1	71.334944984992	71.3371556529892	"6"	205683.158897258	205676.938734365	1.5	0.1
0.01	1	0.00221095499000512	1	45	NA	76.9369835940015	0	0.23	0.63	1	71.5684907700052	71.5707017249952	"6"	205683.158897258	205676.938734365	1.5	0.1
0.01	1	0.00723063899204135	1	45	NA	76.9369835940015	0	0.23	0.63	1	71.8023247400124	71.8095553790045	"6"	205683.158897258	205676.938734365	1.5	0.1
0.01	1	0.013498440006515	1	45	NA	76.9369835940015	0	0.23	0.63	1	72.0360440000077	72.0495424400142	"6"	205683.158897258	205676.938734365	1.5	0.1
0.01	1	0.00367265299428254	1	45	NA	76.9369835940015	0	0.23	0.63	1	72.2864327699936	72.2901054229878	"6"	205683.158897258	205676.938734365	1.5	0.1
0.01	1	0.0240858309844043	1	45	NA	76.9369835940015	0	0.23	0.63	1	72.5201211000094	72.5442069309938	"6"	205683.158897258	205676.938734365	1.5	0.1
0.01	1	0.00774809700669721	1	45	NA	76.9369835940015	0	0.23	0.63	1	72.7706033180002	72.7783514150069	"6"	205683.158897258	205676.938734365	1.5	0.1
0.01	1	0.0264572859741747	1	45	NA	76.9369835940015	0	0.23	0.63	1	73.0043782000139	73.0308354859881	"6"	205683.158897258	205676.938734365	1.5	0.1
0.01	1	0.0260407520108856	1	45	NA	76.9369835940015	0	0.23	0.63	1	73.2546971800039	73.2807379320147	"6"	205683.158897258	205676.938734365	1.5	0.1
0.01	1	0.0223383920092601	1	45	NA	76.9369835940015	0	0.23	0.63	1	73.5050843649951	73.5274227570044	"6"	205683.158897258	205676.938734365	1.5	0.1
0.01	1	0.0204362710064743	1	45	NA	76.9369835940015	0	0.23	0.63	1	73.7555569100077	73.7759931810142	"6"	205683.158897258	205676.938734365	1.5	0.1
0.01	1	0.0169644100242294	1	45	NA	76.9369835940015	0	0.23	0.63	1	74.0060536169913	74.0230180270155	"6"	205683.158897258	205676.938734365	1.5	0.1
0.01	1	0.0306953719991725	1	45	NA	76.9369835940015	0	0.23	0.63	1	74.2563833800086	74.2870787520078	"6"	205683.158897258	205676.938734365	1.5	0.1
0.01	1	0.00664664700161666	1	45	NA	76.9369835940015	0	0.23	0.63	1	74.5235356200137	74.5301822670153	"6"	205683.158897258	205676.938734365	1.5	0.1
0.01	1	0.0263796279905364	1	45	NA	76.9369835940015	0	0.23	0.63	1	74.7573353750049	74.7837150029955	"6"	205683.158897258	205676.938734365	1.5	0.1
0.01	1	0.024675815977389	1	45	NA	76.9369835940015	0	0.23	0.63	1	75.0078189340129	75.0324947499903	"6"	205683.158897258	205676.938734365	1.5	0.1
0.01	1	0.0287047070160042	1	45	NA	76.9369835940015	0	0.23	0.63	1	75.2581591999915	75.2868639070075	"6"	205683.158897258	205676.938734365	1.5	0.1
0.01	1	0.0110180890187621	1	45	NA	76.9369835940015	0	0.23	0.63	1	75.5252388099907	75.5362568990095	"6"	205683.158897258	205676.938734365	1.5	0.1
0.01	1	0.032732171996031	1	45	NA	76.9369835940015	0	0.23	0.63	1	75.7589668050059	75.7916989770019	"6"	205683.158897258	205676.938734365	1.5	0.1
0.01	1	0.0453893149970099	1	45	NA	76.9369835940015	0	0.23	0.63	1	76.0261116049951	76.0715009199921	"6"	205683.158897258	205676.938734365	1.5	0.1
0.01	1	0.00965075500425883	1	45	NA	76.9369835940015	0	0.23	0.63	1	76.3098538969934	76.3195046519977	"6"	205683.158897258	205676.938734365	1.5	0.1
0.01	1	0.0882677379995584	1	45	NA	76.9369835940015	0	0.23	0.63	1	76.5435708620062	76.6318386000057	"6"	205683.158897258	205676.938734365	1.5	0.1
0.01	1	0.0745943130168598	2	45	NA	76.9369835940015	0	0.23	0.63	1	76.8607935699983	76.9353878830152	"6"	205683.158897258	205676.938734365	1.5	0.1
0.01	1	0.386452689999714	1	7	80.9380466000002	NA	1	0	0.63	1	78.9810598019976	79.3675124919973	"7"	205683.158897258	205676.938734365	1.5	0.1
0.01	1	0.00391502599813975	1	7	80.9380466000002	NA	1	0	0.63	1	79.5986697949993	79.6025848209974	"7"	205683.158897258	205676.938734365	1.5	0.1
0.01	1	0.00387752600363456	1	7	80.9380466000002	NA	1	0	0.63	1	79.8324080469902	79.8362855729938	"7"	205683.158897258	205676.938734365	1.5	0.1
0.01	1	0.0372243140009232	1	7	80.9380466000002	NA	1	0	0.63	1	80.0662621349911	80.103486448992	"7"	205683.158897258	205676.938734365	1.5	0.1
0.01	1	0.00410393800120801	1	7	80.9380466000002	NA	1	0	0.63	1	80.3334117250051	80.3375156630063	"7"	205683.158897258	205676.938734365	1.5	0.1
0.01	1	0.0253586549952161	1	7	80.9380466000002	NA	1	0	0.63	1	80.5671057050058	80.592464360001	"7"	205683.158897258	205676.938734365	1.5	0.1
0.01	1	0.0136638380063232	1	7	80.9380466000002	NA	1	0	0.63	1	80.8174244519905	80.8310882899968	"7"	205683.158897258	205676.938734365	1.5	0.1
0.01	1	0.00387549301376566	1	34	NA	89.937732195016	0	0.27	0.9	1	82.9877440299897	82.9916195230035	"8"	205683.158897258	205676.938734365	1.5	0.1
0.01	1	0.145564182021189	1	34	NA	89.937732195016	0	0.27	0.9	1	83.2214836099884	83.3670477920095	"8"	205683.158897258	205676.938734365	1.5	0.1
0.01	1	0.0266921750153415	1	34	NA	89.937732195016	0	0.27	0.9	1	83.6054775369994	83.6321697120147	"8"	205683.158897258	205676.938734365	1.5	0.1
0.01	1	0.0558659029775299	1	34	NA	89.937732195016	0	0.27	0.9	1	83.8558903800149	83.9117562829924	"8"	205683.158897258	205676.938734365	1.5	0.1
0.01	1	0.0284599629812874	1	34	NA	89.937732195016	0	0.27	0.9	1	84.1396509600163	84.1681109229976	"8"	205683.158897258	205676.938734365	1.5	0.1
0.01	1	0.0249784540210385	1	34	NA	89.937732195016	0	0.27	0.9	1	84.3901611049951	84.4151395590161	"8"	205683.158897258	205676.938734365	1.5	0.1
0.01	1	0.0225810869887937	1	34	NA	89.937732195016	0	0.27	0.9	1	84.6405752150167	84.6631563020055	"8"	205683.158897258	205676.938734365	1.5	0.1
0.01	1	0.0201555480016395	1	34	NA	89.937732195016	0	0.27	0.9	1	84.8910351640079	84.9111907120096	"8"	205683.158897258	205676.938734365	1.5	0.1
0.01	1	0.0189101099967957	1	34	NA	89.937732195016	0	0.27	0.9	1	85.1413965219981	85.1603066319949	"8"	205683.158897258	205676.938734365	1.5	0.1
0.01	1	0.00266140399617143	1	34	NA	89.937732195016	0	0.27	0.9	1	85.391755855002	85.3944172589981	"8"	205683.158897258	205676.938734365	1.5	0.1
0.01	1	0.0213564659934491	1	34	NA	89.937732195016	0	0.27	0.9	1	85.6256074650155	85.6469639310089	"8"	205683.158897258	205676.938734365	1.5	0.1
0.01	1	0.0188648869807366	1	34	NA	89.937732195016	0	0.27	0.9	1	85.8760124850087	85.8948773719894	"8"	205683.158897258	205676.938734365	1.5	0.1
0.01	1	0.00409734001732431	1	34	NA	89.937732195016	0	0.27	0.9	1	86.1263084849925	86.1304058250098	"8"	205683.158897258	205676.938734365	1.5	0.1
0.01	1	0.0404975690180436	1	34	NA	89.937732195016	0	0.27	0.9	1	86.36012053999	86.4006181090081	"8"	205683.158897258	205676.938734365	1.5	0.1
0.01	1	0.00803531898418441	1	34	NA	89.937732195016	0	0.27	0.9	1	86.6273096800142	86.6353449989983	"8"	205683.158897258	205676.938734365	1.5	0.1
0.01	1	0.0339935719966888	1	34	NA	89.937732195016	0	0.27	0.9	1	86.8609682169918	86.8949617889884	"8"	205683.158897258	205676.938734365	1.5	0.1
0.01	1	0.014765444007935	1	34	NA	89.937732195016	0	0.27	0.9	1	87.1281092799909	87.1428747239988	"8"	205683.158897258	205676.938734365	1.5	0.1
0.01	1	0.0132904950005468	1	34	NA	89.937732195016	0	0.27	0.9	1	87.3785413150035	87.3918318100041	"8"	205683.158897258	205676.938734365	1.5	0.1
0.01	1	0.00425372700556181	1	34	NA	89.937732195016	0	0.27	0.9	1	87.6288868229894	87.633140549995	"8"	205683.158897258	205676.938734365	1.5	0.1
0.01	1	0.0326958829828072	1	34	NA	89.937732195016	0	0.27	0.9	1	87.8625900600164	87.8952859429992	"8"	205683.158897258	205676.938734365	1.5	0.1
0.01	1	0.0214477429981343	1	34	NA	89.937732195016	0	0.27	0.9	1	88.1298961499997	88.1513438929978	"8"	205683.158897258	205676.938734365	1.5	0.1
0.01	1	0.0184042369946837	1	34	NA	89.937732195016	0	0.27	0.9	1	88.3803023500077	88.3987065870024	"8"	205683.158897258	205676.938734365	1.5	0.1
0.01	1	0.032224615017185	1	34	NA	89.937732195016	0	0.27	0.9	1	88.6306526419939	88.6628772570111	"8"	205683.158897258	205676.938734365	1.5	0.1
0.01	1	0.0453490620129742	1	34	NA	89.937732195016	0	0.27	0.9	1	88.8977299940016	88.9430790560145	"8"	205683.158897258	205676.938734365	1.5	0.1
0.01	1	0.0111962349910755	1	34	NA	89.937732195016	0	0.27	0.9	1	89.1816085600003	89.1928047949914	"8"	205683.158897258	205676.938734365	1.5	0.1
0.01	1	0.0174990529776551	1	34	NA	89.937732195016	0	0.27	0.9	1	89.4153080120159	89.4328070649935	"8"	205683.158897258	205676.938734365	1.5	0.1
0.01	1	0.0305680500168819	1	34	NA	89.937732195016	0	0.27	0.9	1	89.6656869399885	89.6962549900054	"8"	205683.158897258	205676.938734365	1.5	0.1
0.01	1	0.00324632800766267	2	34	NA	89.937732195016	0	0.27	0.9	1	89.9328515809902	89.9360979089979	"8"	205683.158897258	205676.938734365	1.5	0.1
0.01	1	0.373317213001428	1	110	NA	99.2889448390051	0	0.25	1.15	1	91.9695996200026	92.342916833004	"9"	205683.158897258	205676.938734365	1.5	0.1
0.01	1	0.0215750689967535	1	110	NA	99.2889448390051	0	0.25	1.15	1	92.5707059350098	92.5922810040065	"9"	205683.158897258	205676.938734365	1.5	0.1
0.01	1	0.00402832400868647	1	110	NA	99.2889448390051	0	0.25	1.15	1	92.8210130149964	92.8250413390051	"9"	205683.158897258	205676.938734365	1.5	0.1
0.01	1	0.00308897599461488	1	110	NA	99.2889448390051	0	0.25	1.15	1	93.0547568190086	93.0578457950032	"9"	205683.158897258	205676.938734365	1.5	0.1
0.01	1	0.008046964998357	1	110	NA	99.2889448390051	0	0.25	1.15	1	93.288403190003	93.2964501550014	"9"	205683.158897258	205676.938734365	1.5	0.1
0.01	1	0.0134702320210636	1	110	NA	99.2889448390051	0	0.25	1.15	1	93.5222786449885	93.5357488770096	"9"	205683.158897258	205676.938734365	1.5	0.1
0.01	1	0.0195429929881357	1	110	NA	99.2889448390051	0	0.25	1.15	1	93.7727106400125	93.7922536330007	"9"	205683.158897258	205676.938734365	1.5	0.1
0.01	1	0.00271177498507313	1	110	NA	99.2889448390051	0	0.25	1.15	1	94.023041945009	94.0257537199941	"9"	205683.158897258	205676.938734365	1.5	0.1
0.01	1	0.00807309697847813	1	110	NA	99.2889448390051	0	0.25	1.15	1	94.2568328200141	94.2649059169926	"9"	205683.158897258	205676.938734365	1.5	0.1
0.01	1	0.0282617530028801	1	110	NA	99.2889448390051	0	0.25	1.15	1	94.4905036799901	94.518765432993	"9"	205683.158897258	205676.938734365	1.5	0.1
0.01	1	0.043309536005836	1	110	NA	99.2889448390051	0	0.25	1.15	1	94.7408491300012	94.784158666007	"9"	205683.158897258	205676.938734365	1.5	0.1
0.01	1	0.0228561740077566	1	110	NA	99.2889448390051	0	0.25	1.15	1	95.0079574300034	95.0308136040112	"9"	205683.158897258	205676.938734365	1.5	0.1
0.01	1	0.0213242140016519	1	110	NA	99.2889448390051	0	0.25	1.15	1	95.2584181750135	95.2797423890152	"9"	205683.158897258	205676.938734365	1.5	0.1
0.01	1	0.0343911119853146	1	110	NA	99.2889448390051	0	0.25	1.15	1	95.5088666850061	95.5432577969914	"9"	205683.158897258	205676.938734365	1.5	0.1
0.01	1	0.015552968980046	1	110	NA	99.2889448390051	0	0.25	1.15	1	95.776038520009	95.7915914889891	"9"	205683.158897258	205676.938734365	1.5	0.1
0.01	1	0.0285041400056798	1	110	NA	99.2889448390051	0	0.25	1.15	1	96.0264495750016	96.0549537150073	"9"	205683.158897258	205676.938734365	1.5	0.1
0.01	1	0.0176338580204174	1	110	NA	99.2889448390051	0	0.25	1.15	1	96.2935321049881	96.3111659630085	"9"	205683.158897258	205676.938734365	1.5	0.1
0.01	1	0.0158172509982251	1	110	NA	99.2889448390051	0	0.25	1.15	1	96.543944975012	96.5597622260102	"9"	205683.158897258	205676.938734365	1.5	0.1
0.01	1	0.0302106270100921	1	110	NA	99.2889448390051	0	0.25	1.15	1	96.7943097499956	96.8245203770057	"9"	205683.158897258	205676.938734365	1.5	0.1
0.01	1	0.01765317999525	1	110	NA	99.2889448390051	0	0.25	1.15	1	97.0614446550026	97.0790978349978	"9"	205683.158897258	205676.938734365	1.5	0.1
0.01	1	0.040198186005	1	110	NA	99.2889448390051	0	0.25	1.15	1	97.3119991600106	97.3521973460156	"9"	205683.158897258	205676.938734365	1.5	0.1
0.01	1	0.0280555709905457	1	110	NA	99.2889448390051	0	0.25	1.15	1	97.5789804900123	97.6070360610029	"9"	205683.158897258	205676.938734365	1.5	0.1
0.01	1	0.0340584789810237	1	110	NA	99.2889448390051	0	0.25	1.15	1	97.829443301016	97.863501779997	"9"	205683.158897258	205676.938734365	1.5	0.1
0.01	1	0.0399839330057148	1	110	NA	99.2889448390051	0	0.25	1.15	1	98.0966136569914	98.1365975899971	"9"	205683.158897258	205676.938734365	1.5	0.1
0.01	1	0.356715497007826	1	110	NA	99.2889448390051	0	0.25	1.15	1	98.3636571849929	98.7203726820007	"9"	205683.158897258	205676.938734365	1.5	0.1
0.01	1	0.339441015006742	2	110	NA	99.2889448390051	0	0.25	1.15	1	98.9479173650034	99.2873583800101	"9"	205683.158897258	205676.938734365	1.5	0.1
0.01	1	0.344687678007176	1	8	103.541845742002	NA	1	0	1.15	1	101.335365261999	101.680052940006	"10"	205683.158897258	205676.938734365	1.5	0.1
0.01	1	0.0154908789845649	1	8	103.541845742002	NA	1	0	1.15	1	101.919647127012	101.935138005996	"10"	205683.158897258	205676.938734365	1.5	0.1
0.01	1	0.00687643099809065	1	8	103.541845742002	NA	1	0	1.15	1	102.170048311993	102.176924742991	"10"	205683.158897258	205676.938734365	1.5	0.1
0.01	1	0.0285872439853847	1	8	103.541845742002	NA	1	0	1.15	1	102.403867220011	102.432454463997	"10"	205683.158897258	205676.938734365	1.5	0.1
0.01	1	0.0176468290155753	1	8	103.541845742002	NA	1	0	1.15	1	102.654244759993	102.671891589009	"10"	205683.158897258	205676.938734365	1.5	0.1
0.01	1	0.00815260800300166	1	8	103.541845742002	NA	1	0	1.15	1	102.904693065007	102.91284567301	"10"	205683.158897258	205676.938734365	1.5	0.1
0.01	1	0.0212206840224098	1	8	103.541845742002	NA	1	0	1.15	1	103.138300694991	103.159521379013	"10"	205683.158897258	205676.938734365	1.5	0.1
0.01	1	0.0343534339917824	1	8	103.541845742002	NA	1	0	1.15	1	103.388907690009	103.423261124	"10"	205683.158897258	205676.938734365	1.5	0.1
0.01	1	0.351776994008105	1	52	NA	117.121093173017	0	0.43	1.58	1	105.592536754993	105.944313749002	"11"	205683.158897258	205676.938734365	1.5	0.1
0.01	1	0.00884500402025878	1	52	NA	117.121093173017	0	0.43	1.58	1	106.176811804995	106.185656809015	"11"	205683.158897258	205676.938734365	1.5	0.1
0.01	1	0.0214639970217831	1	52	NA	117.121093173017	0	0.43	1.58	1	106.410572719993	106.432036717015	"11"	205683.158897258	205676.938734365	1.5	0.1
0.01	1	0.0262139400001615	1	52	NA	117.121093173017	0	0.43	1.58	1	106.660912496998	106.687126436998	"11"	205683.158897258	205676.938734365	1.5	0.1
0.01	1	0.0316594059986528	1	52	NA	117.121093173017	0	0.43	1.58	1	106.911335075012	106.942994481011	"11"	205683.158897258	205676.938734365	1.5	0.1
0.01	1	0.00785969398566522	1	52	NA	117.121093173017	0	0.43	1.58	1	107.178483037016	107.186342731002	"11"	205683.158897258	205676.938734365	1.5	0.1
0.01	1	0.0196477499848697	1	52	NA	117.121093173017	0	0.43	1.58	1	107.41216186501	107.431809614995	"11"	205683.158897258	205676.938734365	1.5	0.1
0.01	1	0.0251425790193025	1	52	NA	117.121093173017	0	0.43	1.58	1	107.662664284988	107.687806864007	"11"	205683.158897258	205676.938734365	1.5	0.1
0.01	1	0.00677589399856515	1	52	NA	117.121093173017	0	0.43	1.58	1	107.913077814999	107.919853708998	"11"	205683.158897258	205676.938734365	1.5	0.1
0.01	1	0.0212521229987033	1	52	NA	117.121093173017	0	0.43	1.58	1	108.14682823699	108.168080359988	"11"	205683.158897258	205676.938734365	1.5	0.1
0.01	1	0.0343489289807621	1	52	NA	117.121093173017	0	0.43	1.58	1	108.397225015011	108.431573943992	"11"	205683.158897258	205676.938734365	1.5	0.1
0.01	1	0.0149048800230958	1	52	NA	117.121093173017	0	0.43	1.58	1	108.66436835099	108.679273231013	"11"	205683.158897258	205676.938734365	1.5	0.1
0.01	1	0.0120808339852374	1	52	NA	117.121093173017	0	0.43	1.58	1	108.914782925014	108.926863758999	"11"	205683.158897258	205676.938734365	1.5	0.1
0.01	1	0.0277778840099927	1	52	NA	117.121093173017	0	0.43	1.58	1	109.16510688499	109.192884769	"11"	205683.158897258	205676.938734365	1.5	0.1
0.01	1	0.0251448199851438	1	52	NA	117.121093173017	0	0.43	1.58	1	109.415547665005	109.44069248499	"11"	205683.158897258	205676.938734365	1.5	0.1
0.01	1	0.0297686460253317	1	52	NA	117.121093173017	0	0.43	1.58	1	109.665997070988	109.695765717013	"11"	205683.158897258	205676.938734365	1.5	0.1
0.01	1	0.00441409400082193	1	52	NA	117.121093173017	0	0.43	1.58	1	109.933230850991	109.937644944992	"11"	205683.158897258	205676.938734365	1.5	0.1
0.01	1	0.0100647009967361	1	52	NA	117.121093173017	0	0.43	1.58	1	110.166887800005	110.176952501002	"11"	205683.158897258	205676.938734365	1.5	0.1
0.01	1	0.0318790799938142	1	52	NA	117.121093173017	0	0.43	1.58	1	110.400593497005	110.432472576998	"11"	205683.158897258	205676.938734365	1.5	0.1
0.01	1	0.0211490269866772	1	52	NA	117.121093173017	0	0.43	1.58	1	110.667721937003	110.68887096399	"11"	205683.158897258	205676.938734365	1.5	0.1
0.01	1	0.0338645880110562	1	52	NA	117.121093173017	0	0.43	1.58	1	110.918129689991	110.951994278003	"11"	205683.158897258	205676.938734365	1.5	0.1
0.01	1	0.0301479650079273	1	52	NA	117.121093173017	0	0.43	1.58	1	111.185156210006	111.215304175013	"11"	205683.158897258	205676.938734365	1.5	0.1
0.01	1	0.00366768499952741	1	52	NA	117.121093173017	0	0.43	1.58	1	111.452440232009	111.456107917009	"11"	205683.158897258	205676.938734365	1.5	0.1
0.01	1	0.017077722994145	1	52	NA	117.121093173017	0	0.43	1.58	1	111.686058179999	111.703135902993	"11"	205683.158897258	205676.938734365	1.5	0.1
0.01	1	0.0228589020262007	1	52	NA	117.121093173017	0	0.43	1.58	1	111.936441617989	111.959300520015	"11"	205683.158897258	205676.938734365	1.5	0.1
0.01	1	0.0375521320092957	1	52	NA	117.121093173017	0	0.43	1.58	1	112.186948101997	112.224500234006	"11"	205683.158897258	205676.938734365	1.5	0.1
0.01	1	0.0337774200015701	1	52	NA	117.121093173017	0	0.43	1.58	1	112.454055459995	112.487832879997	"11"	205683.158897258	205676.938734365	1.5	0.1
0.01	1	0.0232165639754385	1	52	NA	117.121093173017	0	0.43	1.58	1	112.721274650015	112.744491213991	"11"	205683.158897258	205676.938734365	1.5	0.1
0.01	1	0.0194985079870094	1	52	NA	117.121093173017	0	0.43	1.58	1	112.971690470004	112.991188977991	"11"	205683.158897258	205676.938734365	1.5	0.1
0.01	1	0.0409686579951085	1	52	NA	117.121093173017	0	0.43	1.58	1	113.221982677002	113.262951334997	"11"	205683.158897258	205676.938734365	1.5	0.1
0.01	1	0.0477237289887853	1	52	NA	117.121093173017	0	0.43	1.58	1	113.489119352016	113.536843081005	"11"	205683.158897258	205676.938734365	1.5	0.1
0.01	1	0.0193428909988143	1	52	NA	117.121093173017	0	0.43	1.58	1	113.772854120005	113.792197011004	"11"	205683.158897258	205676.938734365	1.5	0.1
0.01	1	0.0726046940253582	1	52	NA	117.121093173017	0	0.43	1.58	1	114.023295419989	114.095900114015	"11"	205683.158897258	205676.938734365	1.5	0.1
0.01	1	0.00457581601222046	1	52	NA	117.121093173017	0	0.43	1.58	1	114.324075154	114.328650970012	"11"	205683.158897258	205676.938734365	1.5	0.1
0.01	1	0.0655837090162095	1	52	NA	117.121093173017	0	0.43	1.58	1	114.557582971	114.623166680016	"11"	205683.158897258	205676.938734365	1.5	0.1
0.01	1	0.0140162140014581	1	52	NA	117.121093173017	0	0.43	1.58	1	114.858057775011	114.872073989012	"11"	205683.158897258	205676.938734365	1.5	0.1
0.01	1	0.0433909450075589	1	52	NA	117.121093173017	0	0.43	1.58	1	115.108499725	115.151890670008	"11"	205683.158897258	205676.938734365	1.5	0.1
0.01	1	0.0715154700155836	1	52	NA	117.121093173017	0	0.43	1.58	1	115.375629749993	115.447145220009	"11"	205683.158897258	205676.938734365	1.5	0.1
0.01	1	0.044716915988829	1	52	NA	117.121093173017	0	0.43	1.58	1	115.676134845009	115.720851760998	"11"	205683.158897258	205676.938734365	1.5	0.1
0.01	1	0.0719629219966009	1	52	NA	117.121093173017	0	0.43	1.58	1	115.959908449993	116.03187137199	"11"	205683.158897258	205676.938734365	1.5	0.1
0.01	1	0.0747214249859098	1	52	NA	117.121093173017	0	0.43	1.58	1	116.26046712001	116.335188544996	"11"	205683.158897258	205676.938734365	1.5	0.1
0.01	1	0.0477802499954123	1	52	NA	117.121093173017	0	0.43	1.58	1	116.560943980003	116.608724229998	"11"	205683.158897258	205676.938734365	1.5	0.1
0.01	1	0.010882530012168	1	52	NA	117.121093173017	0	0.43	1.58	1	116.844877255004	116.855759785016	"11"	205683.158897258	205676.938734365	1.5	0.1
0.01	1	0.0409180380229373	2	52	NA	117.121093173017	0	0.43	1.58	1	117.078561314993	117.119479353016	"11"	205683.158897258	205676.938734365	1.5	0.1
0.01	1	0.723393823980587	1	80	NA	135.753124834999	0	0.55	2.13	1	119.148632510012	119.872026333993	"12"	205683.158897258	205676.938734365	1.5	0.1
0.01	1	0.0363712000253145	1	80	NA	135.753124834999	0	0.55	2.13	1	120.10028765499	120.136658855015	"12"	205683.158897258	205676.938734365	1.5	0.1
0.01	1	0.0396677599928807	1	80	NA	135.753124834999	0	0.55	2.13	1	120.367379250005	120.407047009998	"12"	205683.158897258	205676.938734365	1.5	0.1
0.01	1	0.0139735899865627	1	80	NA	135.753124834999	0	0.55	2.13	1	120.634541545005	120.648515134992	"12"	205683.158897258	205676.938734365	1.5	0.1
0.01	1	0.0273436169954948	1	80	NA	135.753124834999	0	0.55	2.13	1	120.884938200004	120.912281817	"12"	205683.158897258	205676.938734365	1.5	0.1
0.01	1	0.0113969139929395	1	80	NA	135.753124834999	0	0.55	2.13	1	121.135315285006	121.146712198999	"12"	205683.158897258	205676.938734365	1.5	0.1
0.01	1	0.047788383992156	1	80	NA	135.753124834999	0	0.55	2.13	1	121.369086162013	121.416874546005	"12"	205683.158897258	205676.938734365	1.5	0.1
0.01	1	0.00219011900480837	1	80	NA	135.753124834999	0	0.55	2.13	1	121.652844750992	121.655034869997	"12"	205683.158897258	205676.938734365	1.5	0.1
0.01	1	0.0246279569983017	1	80	NA	135.753124834999	0	0.55	2.13	1	121.886612914997	121.911240871996	"12"	205683.158897258	205676.938734365	1.5	0.1
0.01	1	0.0301765390031505	1	80	NA	135.753124834999	0	0.55	2.13	1	122.13699758501	122.167174124013	"12"	205683.158897258	205676.938734365	1.5	0.1
0.01	1	0.0198346330143977	1	80	NA	135.753124834999	0	0.55	2.13	1	122.404172465001	122.424007098016	"12"	205683.158897258	205676.938734365	1.5	0.1
0.01	1	0.0113328290171921	1	80	NA	135.753124834999	0	0.55	2.13	1	122.654630759993	122.66596358901	"12"	205683.158897258	205676.938734365	1.5	0.1
0.01	1	0.0393670029880013	1	80	NA	135.753124834999	0	0.55	2.13	1	122.888268300012	122.927635303	"12"	205683.158897258	205676.938734365	1.5	0.1
0.01	1	0.0283960349916015	1	80	NA	135.753124834999	0	0.55	2.13	1	123.155302422005	123.183698456996	"12"	205683.158897258	205676.938734365	1.5	0.1
0.01	1	0.0173257979913615	1	80	NA	135.753124834999	0	0.55	2.13	1	123.422458485002	123.439784282993	"12"	205683.158897258	205676.938734365	1.5	0.1
0.01	1	0.037721614993643	1	80	NA	135.753124834999	0	0.55	2.13	1	123.672940685006	123.7106623	"12"	205683.158897258	205676.938734365	1.5	0.1
0.01	1	0.0365266160224564	1	80	NA	135.753124834999	0	0.55	2.13	1	123.94005264499	123.976579261012	"12"	205683.158897258	205676.938734365	1.5	0.1
0.01	1	0.0112888670118991	1	80	NA	135.753124834999	0	0.55	2.13	1	124.207257289992	124.218546157004	"12"	205683.158897258	205676.938734365	1.5	0.1
0.01	1	0.0385004160052631	1	80	NA	135.753124834999	0	0.55	2.13	1	124.440968084993	124.479468500998	"12"	205683.158897258	205676.938734365	1.5	0.1
0.01	1	0.0366706109780353	1	80	NA	135.753124834999	0	0.55	2.13	1	124.708011575014	124.744682185992	"12"	205683.158897258	205676.938734365	1.5	0.1
0.01	1	0.0408588700229302	1	80	NA	135.753124834999	0	0.55	2.13	1	124.975104079989	125.015962950012	"12"	205683.158897258	205676.938734365	1.5	0.1
0.01	1	0.0461395879974589	1	80	NA	135.753124834999	0	0.55	2.13	1	125.242219172011	125.288358760008	"12"	205683.158897258	205676.938734365	1.5	0.1
0.01	1	0.0179412550060079	1	80	NA	135.753124834999	0	0.55	2.13	1	125.525954112003	125.543895367009	"12"	205683.158897258	205676.938734365	1.5	0.1
0.01	1	0.031735477008624	1	80	NA	135.753124834999	0	0.55	2.13	1	125.776397234993	125.808132712002	"12"	205683.158897258	205676.938734365	1.5	0.1
0.01	1	0.0204888079897501	1	80	NA	135.753124834999	0	0.55	2.13	1	126.043590752	126.06407955999	"12"	205683.158897258	205676.938734365	1.5	0.1
0.01	1	0.0326595190272201	1	80	NA	135.753124834999	0	0.55	2.13	1	126.294088689989	126.326748209016	"12"	205683.158897258	205676.938734365	1.5	0.1
0.01	1	0.0310446970106568	1	80	NA	135.753124834999	0	0.55	2.13	1	126.561162614991	126.592207312002	"12"	205683.158897258	205676.938734365	1.5	0.1
0.01	1	0.0188021359790582	1	80	NA	135.753124834999	0	0.55	2.13	1	126.828334337013	126.847136472992	"12"	205683.158897258	205676.938734365	1.5	0.1
0.01	1	0.0248516540159471	1	80	NA	135.753124834999	0	0.55	2.13	1	127.078615537001	127.103467191017	"12"	205683.158897258	205676.938734365	1.5	0.1
0.01	1	0.047052634996362	1	80	NA	135.753124834999	0	0.55	2.13	1	127.32910023001	127.376152865007	"12"	205683.158897258	205676.938734365	1.5	0.1
0.01	1	0.0343572289857548	1	80	NA	135.753124834999	0	0.55	2.13	1	127.612927092006	127.647284320992	"12"	205683.158897258	205676.938734365	1.5	0.1
0.01	1	0.030737588996999	1	80	NA	135.753124834999	0	0.55	2.13	1	127.879920792009	127.910658381006	"12"	205683.158897258	205676.938734365	1.5	0.1
0.01	1	0.0139086999988649	1	80	NA	135.753124834999	0	0.55	2.13	1	128.147077755013	128.160986455012	"12"	205683.158897258	205676.938734365	1.5	0.1
0.01	1	0.0180549480137415	1	80	NA	135.753124834999	0	0.55	2.13	1	128.397606276994	128.415661225008	"12"	205683.158897258	205676.938734365	1.5	0.1
0.01	1	0.0395759259990882	1	80	NA	135.753124834999	0	0.55	2.13	1	128.647966335004	128.687542261003	"12"	205683.158897258	205676.938734365	1.5	0.1
0.01	1	0.029478479991667	1	80	NA	135.753124834999	0	0.55	2.13	1	128.914984675008	128.944463155	"12"	205683.158897258	205676.938734365	1.5	0.1
0.01	1	0.0102896919997875	1	80	NA	135.753124834999	0	0.55	2.13	1	129.182176461007	129.192466153007	"12"	205683.158897258	205676.938734365	1.5	0.1
0.01	1	0.0481071030080784	1	80	NA	135.753124834999	0	0.55	2.13	1	129.415985244996	129.464092348004	"12"	205683.158897258	205676.938734365	1.5	0.1
0.01	1	0.0434132389782462	1	80	NA	135.753124834999	0	0.55	2.13	1	129.699766850012	129.74318008899	"12"	205683.158897258	205676.938734365	1.5	0.1
0.01	1	0.0336616419954225	1	80	NA	135.753124834999	0	0.55	2.13	1	129.966911232012	130.000572874007	"12"	205683.158897258	205676.938734365	1.5	0.1
0.01	1	0.0371465100033674	1	80	NA	135.753124834999	0	0.55	2.13	1	130.233936102013	130.271082612016	"12"	205683.158897258	205676.938734365	1.5	0.1
0.01	1	0.0349648670235183	1	80	NA	135.753124834999	0	0.55	2.13	1	130.50103576199	130.536000629014	"12"	205683.158897258	205676.938734365	1.5	0.1
0.01	1	0.0320274299883749	1	80	NA	135.753124834999	0	0.55	2.13	1	130.768221120001	130.800248549989	"12"	205683.158897258	205676.938734365	1.5	0.1
0.01	1	0.0285791489877738	1	80	NA	135.753124834999	0	0.55	2.13	1	131.035251040012	131.063830188999	"12"	205683.158897258	205676.938734365	1.5	0.1
0.01	1	0.0431569700012915	1	80	NA	135.753124834999	0	0.55	2.13	1	131.285646136996	131.328803106997	"12"	205683.158897258	205676.938734365	1.5	0.1
0.01	1	0.0311225400073454	1	80	NA	135.753124834999	0	0.55	2.13	1	131.552751159994	131.583873700001	"12"	205683.158897258	205676.938734365	1.5	0.1
0.01	1	0.0355279429932125	1	80	NA	135.753124834999	0	0.55	2.13	1	131.819983952009	131.855511895003	"12"	205683.158897258	205676.938734365	1.5	0.1
0.01	1	0.0247547299950384	1	80	NA	135.753124834999	0	0.55	2.13	1	132.087061144994	132.111815874989	"12"	205683.158897258	205676.938734365	1.5	0.1
0.01	1	0.0619629980064929	1	80	NA	135.753124834999	0	0.55	2.13	1	132.337459197006	132.399422195012	"12"	205683.158897258	205676.938734365	1.5	0.1
0.01	1	0.0180029020120855	1	80	NA	135.753124834999	0	0.55	2.13	1	132.638000965002	132.656003867014	"12"	205683.158897258	205676.938734365	1.5	0.1
0.01	1	0.511164274998009	1	80	NA	135.753124834999	0	0.55	2.13	1	132.888412635017	133.399576910015	"12"	205683.158897258	205676.938734365	1.5	0.1
0.01	1	0.00392622899380513	1	80	NA	135.753124834999	0	0.55	2.13	1	133.622973170015	133.626899399009	"12"	205683.158897258	205676.938734365	1.5	0.1
0.01	1	0.414810296992073	1	80	NA	135.753124834999	0	0.55	2.13	1	133.85665668	134.271466976992	"12"	205683.158897258	205676.938734365	1.5	0.1
0.01	1	0.00217588202212937	1	80	NA	135.753124834999	0	0.55	2.13	1	134.507830049988	134.51000593201	"12"	205683.158897258	205676.938734365	1.5	0.1
0.01	1	0.513223248999566	1	80	NA	135.753124834999	0	0.55	2.13	1	134.741564914992	135.254788163991	"12"	205683.158897258	205676.938734365	1.5	0.1
0.01	1	0.258773614012171	2	80	NA	135.753124834999	0	0.55	2.13	1	135.492753514991	135.751527129003	"12"	205683.158897258	205676.938734365	1.5	0.1
0.01	1	0.460065082006622	1	100	NA	157.064441171009	0	0.73	2.86	1	137.780017290002	138.240082372009	"13"	205683.158897258	205676.938734365	1.5	0.1
0.01	1	0.00227964197983965	1	100	NA	157.064441171009	0	0.73	2.86	1	138.481076693017	138.483356334997	"13"	205683.158897258	205676.938734365	1.5	0.1
0.01	1	0.00719902399578132	1	100	NA	157.064441171009	0	0.73	2.86	1	138.714899117011	138.722098141006	"13"	205683.158897258	205676.938734365	1.5	0.1
0.01	1	0.0197036099852994	1	100	NA	157.064441171009	0	0.73	2.86	1	138.948595390015	138.968299	"13"	205683.158897258	205676.938734365	1.5	0.1
0.01	1	0.0095556259911973	1	100	NA	157.064441171009	0	0.73	2.86	1	139.198986163014	139.208541789005	"13"	205683.158897258	205676.938734365	1.5	0.1
0.01	1	0.03029446999426	1	100	NA	157.064441171009	0	0.73	2.86	1	139.432792550011	139.463087020005	"13"	205683.158897258	205676.938734365	1.5	0.1
0.01	1	0.00268101200344972	1	100	NA	157.064441171009	0	0.73	2.86	1	139.699938259	139.702619271004	"13"	205683.158897258	205676.938734365	1.5	0.1
0.01	1	0.00391794400638901	1	100	NA	157.064441171009	0	0.73	2.86	1	139.933621256991	139.937539200997	"13"	205683.158897258	205676.938734365	1.5	0.1
0.01	1	0.0327120189904235	1	100	NA	157.064441171009	0	0.73	2.86	1	140.167360521998	140.200072540989	"13"	205683.158897258	205676.938734365	1.5	0.1
0.01	1	0.00704987201606855	1	100	NA	157.064441171009	0	0.73	2.86	1	140.434471104993	140.441520977009	"13"	205683.158897258	205676.938734365	1.5	0.1
0.01	1	0.0346383060095832	1	100	NA	157.064441171009	0	0.73	2.86	1	140.668190147	140.70282845301	"13"	205683.158897258	205676.938734365	1.5	0.1
0.01	1	0.00885772801120766	1	100	NA	157.064441171009	0	0.73	2.86	1	140.935268642002	140.944126370014	"13"	205683.158897258	205676.938734365	1.5	0.1
0.01	1	0.0302710620162543	1	100	NA	157.064441171009	0	0.73	2.86	1	141.169030619989	141.199301682005	"13"	205683.158897258	205676.938734365	1.5	0.1
0.01	1	0.011794325982919	1	100	NA	157.064441171009	0	0.73	2.86	1	141.43611583201	141.447910157993	"13"	205683.158897258	205676.938734365	1.5	0.1
0.01	1	0.0266748680151068	1	100	NA	157.064441171009	0	0.73	2.86	1	141.669825924997	141.696500793012	"13"	205683.158897258	205676.938734365	1.5	0.1
0.01	1	0.0160458250029478	1	100	NA	157.064441171009	0	0.73	2.86	1	141.920303324994	141.936349149997	"13"	205683.158897258	205676.938734365	1.5	0.1
0.01	1	0.0379836309875827	1	100	NA	157.064441171009	0	0.73	2.86	1	142.170663015015	142.208646646002	"13"	205683.158897258	205676.938734365	1.5	0.1
0.01	1	0.0039775540062692	1	100	NA	157.064441171009	0	0.73	2.86	1	142.437806294998	142.441783849004	"13"	205683.158897258	205676.938734365	1.5	0.1
0.01	1	0.0324650689726695	1	100	NA	157.064441171009	0	0.73	2.86	1	142.671655325015	142.704120393988	"13"	205683.158897258	205676.938734365	1.5	0.1
0.01	1	0.00824332900810987	1	100	NA	157.064441171009	0	0.73	2.86	1	142.938676229998	142.946919559006	"13"	205683.158897258	205676.938734365	1.5	0.1
0.01	1	0.0438213160086889	1	100	NA	157.064441171009	0	0.73	2.86	1	143.172395909991	143.216217226	"13"	205683.158897258	205676.938734365	1.5	0.1
0.01	1	0.0247590280196164	1	100	NA	157.064441171009	0	0.73	2.86	1	143.439493296988	143.464252325008	"13"	205683.158897258	205676.938734365	1.5	0.1
0.01	1	0.0134548769856337	1	100	NA	157.064441171009	0	0.73	2.86	1	143.689956114016	143.703410991002	"13"	205683.158897258	205676.938734365	1.5	0.1
0.01	1	0.00383762098499574	1	100	NA	157.064441171009	0	0.73	2.86	1	143.940341300011	143.944178920996	"13"	205683.158897258	205676.938734365	1.5	0.1
0.01	1	0.025335707992781	1	100	NA	157.064441171009	0	0.73	2.86	1	144.174155385001	144.199491092993	"13"	205683.158897258	205676.938734365	1.5	0.1
0.01	1	0.0477708960243035	1	100	NA	157.064441171009	0	0.73	2.86	1	144.424508814991	144.472279711015	"13"	205683.158897258	205676.938734365	1.5	0.1
0.01	1	0.0186212109983899	1	100	NA	157.064441171009	0	0.73	2.86	1	144.70832196399	144.726943174988	"13"	205683.158897258	205676.938734365	1.5	0.1
0.01	1	0.017763908021152	1	100	NA	157.064441171009	0	0.73	2.86	1	144.958702464995	144.976466373017	"13"	205683.158897258	205676.938734365	1.5	0.1
0.01	1	0.0300264570105355	1	100	NA	157.064441171009	0	0.73	2.86	1	145.209155399993	145.239181857003	"13"	205683.158897258	205676.938734365	1.5	0.1
0.01	1	0.0354992090142332	1	100	NA	157.064441171009	0	0.73	2.86	1	145.476375814993	145.511875024007	"13"	205683.158897258	205676.938734365	1.5	0.1
0.01	1	0.0412424850219395	1	100	NA	157.064441171009	0	0.73	2.86	1	145.74336339999	145.784605885012	"13"	205683.158897258	205676.938734365	1.5	0.1
0.01	1	0.0209055200102739	1	100	NA	157.064441171009	0	0.73	2.86	1	146.010492381989	146.031397901999	"13"	205683.158897258	205676.938734365	1.5	0.1
0.01	1	0.0116540169983637	1	100	NA	157.064441171009	0	0.73	2.86	1	146.260886664997	146.272540681995	"13"	205683.158897258	205676.938734365	1.5	0.1
0.01	1	0.0176912249880843	1	100	NA	157.064441171009	0	0.73	2.86	1	146.494628407003	146.512319631991	"13"	205683.158897258	205676.938734365	1.5	0.1
0.01	1	0.0035775680153165	1	100	NA	157.064441171009	0	0.73	2.86	1	146.745042274997	146.748619843012	"13"	205683.158897258	205676.938734365	1.5	0.1
0.01	1	0.0288268270087428	1	100	NA	157.064441171009	0	0.73	2.86	1	146.978715739999	147.007542567007	"13"	205683.158897258	205676.938734365	1.5	0.1
0.01	1	0.043386068980908	1	100	NA	157.064441171009	0	0.73	2.86	1	147.229213075014	147.272599143995	"13"	205683.158897258	205676.938734365	1.5	0.1
0.01	1	0.0228559149836656	1	100	NA	157.064441171009	0	0.73	2.86	1	147.496318137011	147.519174051995	"13"	205683.158897258	205676.938734365	1.5	0.1
0.01	1	0.0209729199996218	1	100	NA	157.064441171009	0	0.73	2.86	1	147.746852315002	147.767825235002	"13"	205683.158897258	205676.938734365	1.5	0.1
0.01	1	0.019183691998478	1	100	NA	157.064441171009	0	0.73	2.86	1	147.997186191002	148.016369883	"13"	205683.158897258	205676.938734365	1.5	0.1
0.01	1	0.0251755820063408	1	100	NA	157.064441171009	0	0.73	2.86	1	148.247583724995	148.272759307001	"13"	205683.158897258	205676.938734365	1.5	0.1
0.01	1	0.0220495779940393	1	100	NA	157.064441171009	0	0.73	2.86	1	148.497960392007	148.520009970001	"13"	205683.158897258	205676.938734365	1.5	0.1
0.01	1	0.0268312740081456	1	100	NA	157.064441171009	0	0.73	2.86	1	148.748432869994	148.775264144002	"13"	205683.158897258	205676.938734365	1.5	0.1
0.01	1	0.0243179360113572	1	100	NA	157.064441171009	0	0.73	2.86	1	148.998800586996	149.023118523008	"13"	205683.158897258	205676.938734365	1.5	0.1
0.01	1	0.015266595990397	1	100	NA	157.064441171009	0	0.73	2.86	1	149.249283953017	149.264550549007	"13"	205683.158897258	205676.938734365	1.5	0.1
0.01	1	0.0126736669917591	1	100	NA	157.064441171009	0	0.73	2.86	1	149.499698905012	149.512372572004	"13"	205683.158897258	205676.938734365	1.5	0.1
0.01	1	0.00970732199493796	1	100	NA	157.064441171009	0	0.73	2.86	1	149.750127592008	149.759834914003	"13"	205683.158897258	205676.938734365	1.5	0.1
0.01	1	0.0242736049985979	1	100	NA	157.064441171009	0	0.73	2.86	1	149.983834393992	150.00810799899	"13"	205683.158897258	205676.938734365	1.5	0.1
0.01	1	0.0208186790114269	1	100	NA	157.064441171009	0	0.73	2.86	1	150.234192006988	150.255010686	"13"	205683.158897258	205676.938734365	1.5	0.1
0.01	1	0.0118885179981589	1	100	NA	157.064441171009	0	0.73	2.86	1	150.484713000013	150.496601518011	"13"	205683.158897258	205676.938734365	1.5	0.1
0.01	1	0.0247166999906767	1	100	NA	157.064441171009	0	0.73	2.86	1	150.73510582	150.759822519991	"13"	205683.158897258	205676.938734365	1.5	0.1
0.01	1	0.0455374529992696	1	100	NA	157.064441171009	0	0.73	2.86	1	150.985563644994	151.031101097993	"13"	205683.158897258	205676.938734365	1.5	0.1
0.01	1	0.0189017480006441	1	100	NA	157.064441171009	0	0.73	2.86	1	151.269274329999	151.288176078	"13"	205683.158897258	205676.938734365	1.5	0.1
0.01	1	0.0393422479974106	1	100	NA	157.064441171009	0	0.73	2.86	1	151.519834703999	151.559176951996	"13"	205683.158897258	205676.938734365	1.5	0.1
0.01	1	0.0212911339767743	1	100	NA	157.064441171009	0	0.73	2.86	1	151.786906540015	151.808197673992	"13"	205683.158897258	205676.938734365	1.5	0.1
0.01	1	0.0176566650043242	1	100	NA	157.064441171009	0	0.73	2.86	1	152.037400705012	152.055057370017	"13"	205683.158897258	205676.938734365	1.5	0.1
0.01	1	0.0248671770095825	1	100	NA	157.064441171009	0	0.73	2.86	1	152.287762761	152.312629938009	"13"	205683.158897258	205676.938734365	1.5	0.1
0.01	1	0.0302267190127168	1	100	NA	157.064441171009	0	0.73	2.86	1	152.538072844996	152.568299564009	"13"	205683.158897258	205676.938734365	1.5	0.1
0.01	1	0.0189712940191384	1	100	NA	157.064441171009	0	0.73	2.86	1	152.80524732999	152.82421862401	"13"	205683.158897258	205676.938734365	1.5	0.1
0.01	1	0.112214948982	1	100	NA	157.064441171009	0	0.73	2.86	1	153.055630440009	153.167845388991	"13"	205683.158897258	205676.938734365	1.5	0.1
0.01	1	0.105746838002233	1	100	NA	157.064441171009	0	0.73	2.86	1	153.406245455	153.511992293003	"13"	205683.158897258	205676.938734365	1.5	0.1
0.01	1	0.035108832991682	1	100	NA	157.064441171009	0	0.73	2.86	1	153.740251133015	153.775359966006	"13"	205683.158897258	205676.938734365	1.5	0.1
0.01	1	0.0488936309993733	1	100	NA	157.064441171009	0	0.73	2.86	1	154.007216255006	154.056109886005	"13"	205683.158897258	205676.938734365	1.5	0.1
0.01	1	0.0363148830074351	1	100	NA	157.064441171009	0	0.73	2.86	1	154.291117274988	154.327432157996	"13"	205683.158897258	205676.938734365	1.5	0.1
0.01	1	0.0417497880116571	1	100	NA	157.064441171009	0	0.73	2.86	1	154.558252351999	154.60000214001	"13"	205683.158897258	205676.938734365	1.5	0.1
0.01	1	0.0471675590088125	1	100	NA	157.064441171009	0	0.73	2.86	1	154.825336120004	154.872503679013	"13"	205683.158897258	205676.938734365	1.5	0.1
0.01	1	0.0337035580014344	1	100	NA	157.064441171009	0	0.73	2.86	1	155.109153322002	155.142856880004	"13"	205683.158897258	205676.938734365	1.5	0.1
0.01	1	0.00981953501468524	1	100	NA	157.064441171009	0	0.73	2.86	1	155.376224759995	155.38604429501	"13"	205683.158897258	205676.938734365	1.5	0.1
0.01	1	0.0294115449942183	1	100	NA	157.064441171009	0	0.73	2.86	1	155.609923835	155.639335379994	"13"	205683.158897258	205676.938734365	1.5	0.1
0.01	1	0.0590305380173959	1	100	NA	157.064441171009	0	0.73	2.86	1	155.877222604991	155.936253143009	"13"	205683.158897258	205676.938734365	1.5	0.1
0.01	1	0.0473823650099803	1	100	NA	157.064441171009	0	0.73	2.86	1	156.160916224995	156.208298590005	"13"	205683.158897258	205676.938734365	1.5	0.1
0.01	1	0.0190828390186653	1	100	NA	157.064441171009	0	0.73	2.86	1	156.444776846998	156.463859686017	"13"	205683.158897258	205676.938734365	1.5	0.1
0.01	1	0.0730082369991578	1	100	NA	157.064441171009	0	0.73	2.86	1	156.695144485013	156.768152722012	"13"	205683.158897258	205676.938734365	1.5	0.1
0.01	1	0.0672727290075272	2	100	NA	157.064441171009	0	0.73	2.86	1	156.995602120005	157.062874849013	"13"	205683.158897258	205676.938734365	1.5	0.1
0.01	1	0.44399973799591	1	24	165.363218145008	NA	1	0	2.86	1	159.115945065016	159.559944803012	"14"	205683.158897258	205676.938734365	1.5	0.1
0.01	1	0.00811105102184229	1	24	165.363218145008	NA	1	0	2.86	1	159.800410989992	159.808522041014	"14"	205683.158897258	205676.938734365	1.5	0.1
0.01	1	0.0137160639860667	1	24	165.363218145008	NA	1	0	2.86	1	160.034058215009	160.047774278995	"14"	205683.158897258	205676.938734365	1.5	0.1
0.01	1	0.0110003899899311	1	24	165.363218145008	NA	1	0	2.86	1	160.284545727016	160.295546117006	"14"	205683.158897258	205676.938734365	1.5	0.1
0.01	1	0.0170474679907784	1	24	165.363218145008	NA	1	0	2.86	1	160.518295702001	160.535343169991	"14"	205683.158897258	205676.938734365	1.5	0.1
0.01	1	0.00921172098605894	1	24	165.363218145008	NA	1	0	2.86	1	160.768683222006	160.777894942992	"14"	205683.158897258	205676.938734365	1.5	0.1
0.01	1	0.0135998730256688	1	24	165.363218145008	NA	1	0	2.86	1	161.002395844989	161.015995718015	"14"	205683.158897258	205676.938734365	1.5	0.1
0.01	1	0.0270805879845284	1	24	165.363218145008	NA	1	0	2.86	1	161.252760555013	161.279841142998	"14"	205683.158897258	205676.938734365	1.5	0.1
0.01	1	0.0322654780175071	1	24	165.363218145008	NA	1	0	2.86	1	161.503247774992	161.535513253009	"14"	205683.158897258	205676.938734365	1.5	0.1
0.01	1	0.0129470649990253	1	24	165.363218145008	NA	1	0	2.86	1	161.770298774994	161.783245839993	"14"	205683.158897258	205676.938734365	1.5	0.1
0.01	1	0.0106216669955757	1	24	165.363218145008	NA	1	0	2.86	1	162.020781711995	162.031403378991	"14"	205683.158897258	205676.938734365	1.5	0.1
0.01	1	0.0322475470020436	1	24	165.363218145008	NA	1	0	2.86	1	162.254531179991	162.286778726993	"14"	205683.158897258	205676.938734365	1.5	0.1
0.01	1	0.00339866601279937	1	24	165.363218145008	NA	1	0	2.86	1	162.52159007499	162.524988741003	"14"	205683.158897258	205676.938734365	1.5	0.1
0.01	1	0.0033822100085672	1	24	165.363218145008	NA	1	0	2.86	1	162.755326904997	162.758709115005	"14"	205683.158897258	205676.938734365	1.5	0.1
0.01	1	0.0268574729852844	1	24	165.363218145008	NA	1	0	2.86	1	162.989118160011	163.015975632996	"14"	205683.158897258	205676.938734365	1.5	0.1
0.01	1	0.0316696749941912	1	24	165.363218145008	NA	1	0	2.86	1	163.239431505004	163.271101179998	"14"	205683.158897258	205676.938734365	1.5	0.1
0.01	1	0.00335670198546723	1	24	165.363218145008	NA	1	0	2.86	1	163.506532099011	163.509888800996	"14"	205683.158897258	205676.938734365	1.5	0.1
0.01	1	0.0134345830010716	1	24	165.363218145008	NA	1	0	2.86	1	163.740366364014	163.753800947015	"14"	205683.158897258	205676.938734365	1.5	0.1
0.01	1	0.00343926998903044	1	24	165.363218145008	NA	1	0	2.86	1	163.990737676999	163.994176946988	"14"	205683.158897258	205676.938734365	1.5	0.1
0.01	1	0.0154857909947168	1	24	165.363218145008	NA	1	0	2.86	1	164.224472844013	164.239958635007	"14"	205683.158897258	205676.938734365	1.5	0.1
0.01	1	0.0210497269872576	1	24	165.363218145008	NA	1	0	2.86	1	164.474872237013	164.495921964	"14"	205683.158897258	205676.938734365	1.5	0.1
0.01	1	0.0174185950018	1	24	165.363218145008	NA	1	0	2.86	1	164.725403315009	164.742821910011	"14"	205683.158897258	205676.938734365	1.5	0.1
0.01	1	0.0230809170170687	1	24	165.363218145008	NA	1	0	2.86	1	164.9757407	164.998821617017	"14"	205683.158897258	205676.938734365	1.5	0.1
0.01	1	0.0287139430001844	1	24	165.363218145008	NA	1	0	2.86	1	165.226187960012	165.254901903012	"14"	205683.158897258	205676.938734365	1.5	0.1
0.01	1	0.274778052000329	1	75	188.084151204996	NA	1	0	2.86	1	167.413161672011	167.687939724012	"15"	205683.158897258	205676.938734365	1.5	0.1
0.01	1	0.0210307700035628	1	75	188.084151204996	NA	1	0	2.86	1	167.914043655008	167.935074425011	"15"	205683.158897258	205676.938734365	1.5	0.1
0.01	1	0.0194289700011723	1	75	188.084151204996	NA	1	0	2.86	1	168.164412804996	168.183841774997	"15"	205683.158897258	205676.938734365	1.5	0.1
0.01	1	0.00938004601630382	1	75	188.084151204996	NA	1	0	2.86	1	168.41482105499	168.424201101006	"15"	205683.158897258	205676.938734365	1.5	0.1
0.01	1	0.00712210702477023	1	75	188.084151204996	NA	1	0	2.86	1	168.64864150199	168.655763609015	"15"	205683.158897258	205676.938734365	1.5	0.1
0.01	1	0.00334758398821577	1	75	188.084151204996	NA	1	0	2.86	1	168.882249595015	168.885597179004	"15"	205683.158897258	205676.938734365	1.5	0.1
0.01	1	0.0116047119954601	1	75	188.084151204996	NA	1	0	2.86	1	169.116053895006	169.127658607002	"15"	205683.158897258	205676.938734365	1.5	0.1
0.01	1	0.0343245350231882	1	75	188.084151204996	NA	1	0	2.86	1	169.349680204992	169.384004740015	"15"	205683.158897258	205676.938734365	1.5	0.1
0.01	1	0.00724733000970446	1	75	188.084151204996	NA	1	0	2.86	1	169.616889005003	169.624136335013	"15"	205683.158897258	205676.938734365	1.5	0.1
0.01	1	0.0211695119796786	1	75	188.084151204996	NA	1	0	2.86	1	169.850649527012	169.871819038992	"15"	205683.158897258	205676.938734365	1.5	0.1
0.01	1	0.0259208669885993	1	75	188.084151204996	NA	1	0	2.86	1	170.100973808003	170.126894674991	"15"	205683.158897258	205676.938734365	1.5	0.1
0.01	1	0.0115880029916298	1	75	188.084151204996	NA	1	0	2.86	1	170.351541740005	170.363129742997	"15"	205683.158897258	205676.938734365	1.5	0.1
0.01	1	0.0213039630034473	1	75	188.084151204996	NA	1	0	2.86	1	170.60197625999	170.623280222993	"15"	205683.158897258	205676.938734365	1.5	0.1
0.01	1	0.00403231297968887	1	75	188.084151204996	NA	1	0	2.86	1	170.852370130015	170.856402442994	"15"	205683.158897258	205676.938734365	1.5	0.1
0.01	1	0.0262585850141477	1	75	188.084151204996	NA	1	0	2.86	1	171.085976848	171.112235433015	"15"	205683.158897258	205676.938734365	1.5	0.1
0.01	1	0.0036367780121509	1	75	188.084151204996	NA	1	0	2.86	1	171.353079124994	171.356715903006	"15"	205683.158897258	205676.938734365	1.5	0.1
0.01	1	0.0138167679833714	1	75	188.084151204996	NA	1	0	2.86	1	171.586759485013	171.600576252997	"15"	205683.158897258	205676.938734365	1.5	0.1
0.01	1	0.00198744700173847	1	75	188.084151204996	NA	1	0	2.86	1	171.837236907013	171.839224354015	"15"	205683.158897258	205676.938734365	1.5	0.1
0.01	1	0.00258942801156081	1	75	188.084151204996	NA	1	0	2.86	1	172.070984063001	172.073573491012	"15"	205683.158897258	205676.938734365	1.5	0.1
0.01	1	0.00737185499747284	1	75	188.084151204996	NA	1	0	2.86	1	172.304738044011	172.312109899009	"15"	205683.158897258	205676.938734365	1.5	0.1
0.01	1	0.0286932600138243	1	75	188.084151204996	NA	1	0	2.86	1	172.538504994998	172.567198255012	"15"	205683.158897258	205676.938734365	1.5	0.1
0.01	1	0.0112522499985062	1	75	188.084151204996	NA	1	0	2.86	1	172.80553740199	172.816789651988	"15"	205683.158897258	205676.938734365	1.5	0.1
0.01	1	0.0398650020069908	1	75	188.084151204996	NA	1	0	2.86	1	173.039335490001	173.079200492008	"15"	205683.158897258	205676.938734365	1.5	0.1
0.01	1	0.0299742140050512	1	75	188.084151204996	NA	1	0	2.86	1	173.30646990001	173.336444114015	"15"	205683.158897258	205676.938734365	1.5	0.1
0.01	1	0.0271484029944986	1	75	188.084151204996	NA	1	0	2.86	1	173.573592519999	173.600740922993	"15"	205683.158897258	205676.938734365	1.5	0.1
0.01	1	0.0148301510198507	1	75	188.084151204996	NA	1	0	2.86	1	173.823878961994	173.838709113013	"15"	205683.158897258	205676.938734365	1.5	0.1
0.01	1	0.0137159939913545	1	75	188.084151204996	NA	1	0	2.86	1	174.074417360011	174.088133354002	"15"	205683.158897258	205676.938734365	1.5	0.1
0.01	1	0.00429974697181024	1	75	188.084151204996	NA	1	0	2.86	1	174.324821745016	174.329121491988	"15"	205683.158897258	205676.938734365	1.5	0.1
0.01	1	0.0166025549988262	1	75	188.084151204996	NA	1	0	2.86	1	174.558555390016	174.575157945015	"15"	205683.158897258	205676.938734365	1.5	0.1
0.01	1	0.0219047369901091	1	75	188.084151204996	NA	1	0	2.86	1	174.808998480003	174.830903216993	"15"	205683.158897258	205676.938734365	1.5	0.1
0.01	1	0.0354766979871783	1	75	188.084151204996	NA	1	0	2.86	1	175.059423405008	175.094900102995	"15"	205683.158897258	205676.938734365	1.5	0.1
0.01	1	0.0164341130002867	1	75	188.084151204996	NA	1	0	2.86	1	175.32642316501	175.34285727801	"15"	205683.158897258	205676.938734365	1.5	0.1
0.01	1	0.0304030150000472	1	75	188.084151204996	NA	1	0	2.86	1	175.57697630499	175.60737931999	"15"	205683.158897258	205676.938734365	1.5	0.1
0.01	1	0.0114035250153393	1	75	188.084151204996	NA	1	0	2.86	1	175.844041189994	175.855444715009	"15"	205683.158897258	205676.938734365	1.5	0.1
0.01	1	0.0173774979775771	1	75	188.084151204996	NA	1	0	2.86	1	176.077702692011	176.095080189989	"15"	205683.158897258	205676.938734365	1.5	0.1
0.01	1	0.0471781399974134	1	75	188.084151204996	NA	1	0	2.86	1	176.328184570011	176.375362710009	"15"	205683.158897258	205676.938734365	1.5	0.1
0.01	1	0.00717548598186113	1	75	188.084151204996	NA	1	0	2.86	1	176.611980645015	176.619156130997	"15"	205683.158897258	205676.938734365	1.5	0.1
0.01	1	0.0175720610131975	1	75	188.084151204996	NA	1	0	2.86	1	176.845732059999	176.863304121012	"15"	205683.158897258	205676.938734365	1.5	0.1
0.01	1	0.015427139995154	1	75	188.084151204996	NA	1	0	2.86	1	177.09609911	177.111526249995	"15"	205683.158897258	205676.938734365	1.5	0.1
0.01	1	0.0136836119927466	1	75	188.084151204996	NA	1	0	2.86	1	177.346477492014	177.360161104007	"15"	205683.158897258	205676.938734365	1.5	0.1
0.01	1	0.0107033200038131	1	75	188.084151204996	NA	1	0	2.86	1	177.596866601991	177.607569921995	"15"	205683.158897258	205676.938734365	1.5	0.1
0.01	1	0.0482616430090275	1	75	188.084151204996	NA	1	0	2.86	1	177.830657654995	177.878919298004	"15"	205683.158897258	205676.938734365	1.5	0.1
0.01	1	0.00701561500318348	1	75	188.084151204996	NA	1	0	2.86	1	178.114577002008	178.121592617012	"15"	205683.158897258	205676.938734365	1.5	0.1
0.01	1	0.0430213510117028	1	75	188.084151204996	NA	1	0	2.86	1	178.348304821993	178.391326173005	"15"	205683.158897258	205676.938734365	1.5	0.1
0.01	1	0.00926011701812968	1	75	188.084151204996	NA	1	0	2.86	1	178.615423206997	178.624683324015	"15"	205683.158897258	205676.938734365	1.5	0.1
0.01	1	0.0397457460057922	1	75	188.084151204996	NA	1	0	2.86	1	178.849093972007	178.888839718013	"15"	205683.158897258	205676.938734365	1.5	0.1
0.01	1	0.0270329609920736	1	75	188.084151204996	NA	1	0	2.86	1	179.116118842008	179.143151803	"15"	205683.158897258	205676.938734365	1.5	0.1
0.01	1	0.0420144429954235	1	75	188.084151204996	NA	1	0	2.86	1	179.366526082013	179.408540525008	"15"	205683.158897258	205676.938734365	1.5	0.1
0.01	1	0.0374673519982025	1	75	188.084151204996	NA	1	0	2.86	1	179.633746501	179.671213852998	"15"	205683.158897258	205676.938734365	1.5	0.1
0.01	1	0.00221576599869877	1	75	188.084151204996	NA	1	0	2.86	1	179.900904618989	179.903120384988	"15"	205683.158897258	205676.938734365	1.5	0.1
0.01	1	0.0421642720175441	1	75	188.084151204996	NA	1	0	2.86	1	180.134641874989	180.176806147007	"15"	205683.158897258	205676.938734365	1.5	0.1
0.01	1	0.0125390499888454	1	75	188.084151204996	NA	1	0	2.86	1	180.418301632017	180.430840682006	"15"	205683.158897258	205676.938734365	1.5	0.1
0.01	1	0.0178815490216948	1	75	188.084151204996	NA	1	0	2.86	1	180.668830576993	180.686712126015	"15"	205683.158897258	205676.938734365	1.5	0.1
0.01	1	0.0172993059968576	1	75	188.084151204996	NA	1	0	2.86	1	180.919240007002	180.936539312999	"15"	205683.158897258	205676.938734365	1.5	0.1
0.01	1	0.0301085270184558	1	75	188.084151204996	NA	1	0	2.86	1	181.169681169995	181.199789697013	"15"	205683.158897258	205676.938734365	1.5	0.1
0.01	1	0.0040227230056189	1	75	188.084151204996	NA	1	0	2.86	1	181.436802701995	181.440825425001	"15"	205683.158897258	205676.938734365	1.5	0.1
0.01	1	0.0253476670186501	1	75	188.084151204996	NA	1	0	2.86	1	181.670476369996	181.695824037015	"15"	205683.158897258	205676.938734365	1.5	0.1
0.01	1	0.0307615320198238	1	75	188.084151204996	NA	1	0	2.86	1	181.920997109992	181.951758642012	"15"	205683.158897258	205676.938734365	1.5	0.1
0.01	1	0.0274457810155582	1	75	188.084151204996	NA	1	0	2.86	1	182.187986751989	182.215432533005	"15"	205683.158897258	205676.938734365	1.5	0.1
0.01	1	0.0403645040059928	1	75	188.084151204996	NA	1	0	2.86	1	182.438356516999	182.478721021005	"15"	205683.158897258	205676.938734365	1.5	0.1
0.01	1	0.0211942410096526	1	75	188.084151204996	NA	1	0	2.86	1	182.705580782	182.726775023009	"15"	205683.158897258	205676.938734365	1.5	0.1
0.01	1	0.0286437580070924	1	75	188.084151204996	NA	1	0	2.86	1	182.956016665004	182.984660423012	"15"	205683.158897258	205676.938734365	1.5	0.1
0.01	1	0.0244184769981075	1	75	188.084151204996	NA	1	0	2.86	1	183.206400035007	183.230818512005	"15"	205683.158897258	205676.938734365	1.5	0.1
0.01	1	0.0235221800103318	1	75	188.084151204996	NA	1	0	2.86	1	183.456797505001	183.480319685012	"15"	205683.158897258	205676.938734365	1.5	0.1
0.01	1	0.0436832529958338	1	75	188.084151204996	NA	1	0	2.86	1	183.707213602	183.750896854996	"15"	205683.158897258	205676.938734365	1.5	0.1
0.01	1	0.0402447239903267	1	75	188.084151204996	NA	1	0	2.86	1	183.991087641014	184.031332365004	"15"	205683.158897258	205676.938734365	1.5	0.1
0.01	1	0.0621056430099998	1	75	188.084151204996	NA	1	0	2.86	1	184.258161445003	184.320267088013	"15"	205683.158897258	205676.938734365	1.5	0.1
0.01	1	0.328873969003325	1	75	188.084151204996	NA	1	0	2.86	1	184.558619310992	184.887493279995	"15"	205683.158897258	205676.938734365	1.5	0.1
0.01	1	0.0505652079882566	1	75	188.084151204996	NA	1	0	2.86	1	185.109597192	185.160162399989	"15"	205683.158897258	205676.938734365	1.5	0.1
0.01	1	0.311241863993928	1	75	188.084151204996	NA	1	0	2.86	1	185.393488016998	185.704729880992	"15"	205683.158897258	205676.938734365	1.5	0.1
0.01	1	0.296154571988154	1	75	188.084151204996	NA	1	0	2.86	1	185.927687790012	186.223842362	"15"	205683.158897258	205676.938734365	1.5	0.1
0.01	1	0.10663141097757	1	75	188.084151204996	NA	1	0	2.86	1	186.461912510014	186.568543920992	"15"	205683.158897258	205676.938734365	1.5	0.1
0.01	1	0.2272781849897	1	75	188.084151204996	NA	1	0	2.86	1	186.795766935014	187.023045120004	"15"	205683.158897258	205676.938734365	1.5	0.1
0.01	1	0.257303489983315	1	75	188.084151204996	NA	1	0	2.86	1	187.246591792005	187.503895281989	"15"	205683.158897258	205676.938734365	1.5	0.1
0.01	1	0.236262639984488	1	75	188.084151204996	NA	1	0	2.86	1	187.730653250008	187.966915889992	"15"	205683.158897258	205676.938734365	1.5	0.1
0.01	1	0.490686375997029	1	112	NA	202.392327062	0	0.49	3.35	1	190.118076293991	190.608762669988	"16"	205683.158897258	205676.938734365	1.5	0.1
0.01	1	0.0188601069967262	1	112	NA	202.392327062	0	0.49	3.35	1	190.835839030013	190.854699137009	"16"	205683.158897258	205676.938734365	1.5	0.1
0.01	1	0.00247683399356902	1	112	NA	202.392327062	0	0.49	3.35	1	191.086391888995	191.088868722989	"16"	205683.158897258	205676.938734365	1.5	0.1
0.01	1	0.00385550301871262	1	112	NA	202.392327062	0	0.49	3.35	1	191.319959891989	191.323815395008	"16"	205683.158897258	205676.938734365	1.5	0.1
0.01	1	0.00822759701986797	1	112	NA	202.392327062	0	0.49	3.35	1	191.553785489989	191.562013087008	"16"	205683.158897258	205676.938734365	1.5	0.1
0.01	1	0.00332530000014231	1	112	NA	202.392327062	0	0.49	3.35	1	191.787437487015	191.790762787015	"16"	205683.158897258	205676.938734365	1.5	0.1
0.01	1	0.00201741899945773	1	112	NA	202.392327062	0	0.49	3.35	1	192.021242954012	192.023260373011	"16"	205683.158897258	205676.938734365	1.5	0.1
0.01	1	0.00379171301028691	1	112	NA	202.392327062	0	0.49	3.35	1	192.255043162004	192.258834875014	"16"	205683.158897258	205676.938734365	1.5	0.1
0.01	1	0.00374383997404948	1	112	NA	202.392327062	0	0.49	3.35	1	192.488714455016	192.49245829499	"16"	205683.158897258	205676.938734365	1.5	0.1
0.01	1	0.00366123000276275	1	112	NA	202.392327062	0	0.49	3.35	1	192.722474934999	192.726136165002	"16"	205683.158897258	205676.938734365	1.5	0.1
0.01	1	0.00380961300106719	1	112	NA	202.392327062	0	0.49	3.35	1	192.956143562013	192.959953175014	"16"	205683.158897258	205676.938734365	1.5	0.1
0.01	1	0.129000317014288	1	112	NA	202.392327062	0	0.49	3.35	1	193.18982439299	193.318824710004	"16"	205683.158897258	205676.938734365	1.5	0.1
0.01	1	0.00234266297775321	1	112	NA	202.392327062	0	0.49	3.35	1	193.557150027016	193.559492689994	"16"	205683.158897258	205676.938734365	1.5	0.1
0.01	1	0.00202383199939504	1	112	NA	202.392327062	0	0.49	3.35	1	193.790858635009	193.792882467009	"16"	205683.158897258	205676.938734365	1.5	0.1
0.01	1	0.00211585700162686	1	112	NA	202.392327062	0	0.49	3.35	1	194.024594473012	194.026710330014	"16"	205683.158897258	205676.938734365	1.5	0.1
0.01	1	0.00458118700771593	1	112	NA	202.392327062	0	0.49	3.35	1	194.258378024999	194.262959212007	"16"	205683.158897258	205676.938734365	1.5	0.1
0.01	1	0.00446170000941493	1	112	NA	202.392327062	0	0.49	3.35	1	194.492058659991	194.49652036	"16"	205683.158897258	205676.938734365	1.5	0.1
0.01	1	0.00391712400596589	1	112	NA	202.392327062	0	0.49	3.35	1	194.725731437007	194.729648561013	"16"	205683.158897258	205676.938734365	1.5	0.1
0.01	1	0.00379565599723719	1	112	NA	202.392327062	0	0.49	3.35	1	194.959488594992	194.963284250989	"16"	205683.158897258	205676.938734365	1.5	0.1
0.01	1	0.00206584698753431	1	112	NA	202.392327062	0	0.49	3.35	1	195.193282212014	195.195348059002	"16"	205683.158897258	205676.938734365	1.5	0.1
0.01	1	0.00270852801622823	1	112	NA	202.392327062	0	0.49	3.35	1	195.427010804997	195.429719333013	"16"	205683.158897258	205676.938734365	1.5	0.1
0.01	1	0.00459583700285293	1	112	NA	202.392327062	0	0.49	3.35	1	195.660779005004	195.665374842007	"16"	205683.158897258	205676.938734365	1.5	0.1
0.01	1	0.00450438700499944	1	112	NA	202.392327062	0	0.49	3.35	1	195.894473455002	195.898977842007	"16"	205683.158897258	205676.938734365	1.5	0.1
0.01	1	0.00384334000409581	1	112	NA	202.392327062	0	0.49	3.35	1	196.128122544993	196.131965884997	"16"	205683.158897258	205676.938734365	1.5	0.1
0.01	1	0.00408272698405199	1	112	NA	202.392327062	0	0.49	3.35	1	196.361902600009	196.365985326993	"16"	205683.158897258	205676.938734365	1.5	0.1
0.01	1	0.00377088799723424	1	112	NA	202.392327062	0	0.49	3.35	1	196.595597167005	196.599368055002	"16"	205683.158897258	205676.938734365	1.5	0.1
0.01	1	0.00391707799280994	1	112	NA	202.392327062	0	0.49	3.35	1	196.829269784997	196.83318686299	"16"	205683.158897258	205676.938734365	1.5	0.1
0.01	1	0.00444951999816112	1	112	NA	202.392327062	0	0.49	3.35	1	197.06306101699	197.067510536988	"16"	205683.158897258	205676.938734365	1.5	0.1
0.01	1	0.00376651601982303	1	112	NA	202.392327062	0	0.49	3.35	1	197.296873474988	197.300639991008	"16"	205683.158897258	205676.938734365	1.5	0.1
0.01	1	0.00398996501462534	1	112	NA	202.392327062	0	0.49	3.35	1	197.530482931994	197.534472897009	"16"	205683.158897258	205676.938734365	1.5	0.1
0.01	1	0.00369140098337084	1	112	NA	202.392327062	0	0.49	3.35	1	197.764274920017	197.767966321	"16"	205683.158897258	205676.938734365	1.5	0.1
0.01	1	0.00391623598989099	1	112	NA	202.392327062	0	0.49	3.35	1	197.998074055009	198.001990290999	"16"	205683.158897258	205676.938734365	1.5	0.1
0.01	1	0.00458815199090168	1	112	NA	202.392327062	0	0.49	3.35	1	198.231884070003	198.236472221994	"16"	205683.158897258	205676.938734365	1.5	0.1
0.01	1	0.00216701198951341	1	112	NA	202.392327062	0	0.49	3.35	1	198.465286969004	198.467453980993	"16"	205683.158897258	205676.938734365	1.5	0.1
0.01	1	0.00715657000546344	1	112	NA	202.392327062	0	0.49	3.35	1	198.699085344997	198.706241915002	"16"	205683.158897258	205676.938734365	1.5	0.1
0.01	1	0.0194489980058279	1	112	NA	202.392327062	0	0.49	3.35	1	198.932827462006	198.952276460011	"16"	205683.158897258	205676.938734365	1.5	0.1
0.01	1	0.0107388209726196	1	112	NA	202.392327062	0	0.49	3.35	1	199.183397984016	199.194136804988	"16"	205683.158897258	205676.938734365	1.5	0.1
0.01	1	0.0309744400146883	1	112	NA	202.392327062	0	0.49	3.35	1	199.417033981998	199.448008422012	"16"	205683.158897258	205676.938734365	1.5	0.1
0.01	1	0.00433413501014002	1	112	NA	202.392327062	0	0.49	3.35	1	199.68421005999	199.688544195	"16"	205683.158897258	205676.938734365	1.5	0.1
0.01	1	0.0178393259993754	1	112	NA	202.392327062	0	0.49	3.35	1	199.917857152002	199.935696478002	"16"	205683.158897258	205676.938734365	1.5	0.1
0.01	1	0.0321664270013571	1	112	NA	202.392327062	0	0.49	3.35	1	200.168224755005	200.200391182007	"16"	205683.158897258	205676.938734365	1.5	0.1
0.01	1	0.00222829199628904	1	112	NA	202.392327062	0	0.49	3.35	1	200.435374287015	200.437602579012	"16"	205683.158897258	205676.938734365	1.5	0.1
0.01	1	0.0196642199880444	1	112	NA	202.392327062	0	0.49	3.35	1	200.66919772001	200.688861939998	"16"	205683.158897258	205676.938734365	1.5	0.1
0.01	1	0.017416401009541	1	112	NA	202.392327062	0	0.49	3.35	1	200.919508310006	200.936924711015	"16"	205683.158897258	205676.938734365	1.5	0.1
0.01	1	0.00219617001130246	1	112	NA	202.392327062	0	0.49	3.35	1	201.169984737004	201.172180907015	"16"	205683.158897258	205676.938734365	1.5	0.1
0.01	1	0.00223214199650101	1	112	NA	202.392327062	0	0.49	3.35	1	201.403694295004	201.405926437001	"16"	205683.158897258	205676.938734365	1.5	0.1
0.01	1	0.00982281501637772	1	112	NA	202.392327062	0	0.49	3.35	1	201.637424754997	201.647247570014	"16"	205683.158897258	205676.938734365	1.5	0.1
0.01	1	0.0113520070153754	1	112	NA	202.392327062	0	0.49	3.35	1	201.871170819999	201.882522827014	"16"	205683.158897258	205676.938734365	1.5	0.1
0.01	1	0.0301129669824149	1	112	NA	202.392327062	0	0.49	3.35	1	202.104939200013	202.135052166996	"16"	205683.158897258	205676.938734365	1.5	0.1
0.01	1	0.0187952310079709	2	112	NA	202.392327062	0	0.49	3.35	1	202.371942389989	202.390737620997	"16"	205683.158897258	205676.938734365	1.5	0.1
0.01	1	0.358237798005575	1	116	NA	219.842852250993	0	0.63	3.98	1	204.442144077009	204.800381875015	"17"	205683.158897258	205676.938734365	1.5	0.1
0.01	1	0.00704945699544623	1	116	NA	219.842852250993	0	0.63	3.98	1	205.026517740014	205.03356719701	"17"	205683.158897258	205676.938734365	1.5	0.1
0.01	1	0.0188490260043181	1	116	NA	219.842852250993	0	0.63	3.98	1	205.26018397999	205.279033005994	"17"	205683.158897258	205676.938734365	1.5	0.1
0.01	1	0.0261406810022891	1	116	NA	219.842852250993	0	0.63	3.98	1	205.510635221988	205.53677590299	"17"	205683.158897258	205676.938734365	1.5	0.1
0.01	1	0.00723983300849795	1	116	NA	219.842852250993	0	0.63	3.98	1	205.761041152	205.768280985008	"17"	205683.158897258	205676.938734365	1.5	0.1
0.01	1	0.00334310598555021	1	116	NA	219.842852250993	0	0.63	3.98	1	205.994648743013	205.997991848999	"17"	205683.158897258	205676.938734365	1.5	0.1
0.01	1	0.00226146401837468	1	116	NA	219.842852250993	0	0.63	3.98	1	206.228439644998	206.230701109016	"17"	205683.158897258	205676.938734365	1.5	0.1
0.01	1	0.00263486398034729	1	116	NA	219.842852250993	0	0.63	3.98	1	206.462214071013	206.464848934993	"17"	205683.158897258	205676.938734365	1.5	0.1
0.01	1	0.00375495001208037	1	116	NA	219.842852250993	0	0.63	3.98	1	206.69582024499	206.699575195002	"17"	205683.158897258	205676.938734365	1.5	0.1
0.01	1	0.00267958999029361	1	116	NA	219.842852250993	0	0.63	3.98	1	206.929629743012	206.932309333002	"17"	205683.158897258	205676.938734365	1.5	0.1
0.01	1	0.00205764500424266	1	116	NA	219.842852250993	0	0.63	3.98	1	207.163421130012	207.165478775016	"17"	205683.158897258	205676.938734365	1.5	0.1
0.01	1	0.00252624499262311	1	116	NA	219.842852250993	0	0.63	3.98	1	207.397173053003	207.399699297996	"17"	205683.158897258	205676.938734365	1.5	0.1
0.01	1	0.00460989499697462	1	116	NA	219.842852250993	0	0.63	3.98	1	207.630822145002	207.635432039999	"17"	205683.158897258	205676.938734365	1.5	0.1
0.01	1	0.00203226300072856	1	116	NA	219.842852250993	0	0.63	3.98	1	207.864573211991	207.866605474992	"17"	205683.158897258	205676.938734365	1.5	0.1
0.01	1	0.00303286401322111	1	116	NA	219.842852250993	0	0.63	3.98	1	208.098245992995	208.101278857008	"17"	205683.158897258	205676.938734365	1.5	0.1
0.01	1	0.00455964700086042	1	116	NA	219.842852250993	0	0.63	3.98	1	208.332040195004	208.336599842005	"17"	205683.158897258	205676.938734365	1.5	0.1
0.01	1	0.00266116601414979	1	116	NA	219.842852250993	0	0.63	3.98	1	208.56574934299	208.568410509004	"17"	205683.158897258	205676.938734365	1.5	0.1
0.01	1	0.00237483499222435	1	116	NA	219.842852250993	0	0.63	3.98	1	208.799527129013	208.801901964005	"17"	205683.158897258	205676.938734365	1.5	0.1
0.01	1	0.0020315170113463	1	116	NA	219.842852250993	0	0.63	3.98	1	209.033176047	209.035207564011	"17"	205683.158897258	205676.938734365	1.5	0.1
0.01	1	0.0135071149852592	1	116	NA	219.842852250993	0	0.63	3.98	1	209.266822742007	209.280329856992	"17"	205683.158897258	205676.938734365	1.5	0.1
0.01	1	0.00403187100891955	1	116	NA	219.842852250993	0	0.63	3.98	1	209.517414951988	209.521446822997	"17"	205683.158897258	205676.938734365	1.5	0.1
0.01	1	0.00963481198414229	1	116	NA	219.842852250993	0	0.63	3.98	1	209.751107062009	209.760741873994	"17"	205683.158897258	205676.938734365	1.5	0.1
0.01	1	0.0144138020114042	1	116	NA	219.842852250993	0	0.63	3.98	1	209.984808804991	209.999222607003	"17"	205683.158897258	205676.938734365	1.5	0.1
0.01	1	0.0119484570168424	1	116	NA	219.842852250993	0	0.63	3.98	1	210.235183443991	210.247131901007	"17"	205683.158897258	205676.938734365	1.5	0.1
0.01	1	0.0121076749928761	1	116	NA	219.842852250993	0	0.63	3.98	1	210.468929474999	210.481037149992	"17"	205683.158897258	205676.938734365	1.5	0.1
0.01	1	0.00389081801404245	1	116	NA	219.842852250993	0	0.63	3.98	1	210.719231964991	210.723122783005	"17"	205683.158897258	205676.938734365	1.5	0.1
0.01	1	0.00258098100312054	1	116	NA	219.842852250993	0	0.63	3.98	1	210.953117641009	210.955698622012	"17"	205683.158897258	205676.938734365	1.5	0.1
0.01	1	0.00249597200308926	1	116	NA	219.842852250993	0	0.63	3.98	1	211.186774989008	211.189270961011	"17"	205683.158897258	205676.938734365	1.5	0.1
0.01	1	0.00461847201222554	1	116	NA	219.842852250993	0	0.63	3.98	1	211.420590399997	211.42520887201	"17"	205683.158897258	205676.938734365	1.5	0.1
0.01	1	0.00250984597369097	1	116	NA	219.842852250993	0	0.63	3.98	1	211.654259563016	211.65676940899	"17"	205683.158897258	205676.938734365	1.5	0.1
0.01	1	0.00468403499689884	1	116	NA	219.842852250993	0	0.63	3.98	1	211.888084834995	211.892768869991	"17"	205683.158897258	205676.938734365	1.5	0.1
0.01	1	0.00383125798543915	1	116	NA	219.842852250993	0	0.63	3.98	1	212.12159703701	212.125428294996	"17"	205683.158897258	205676.938734365	1.5	0.1
0.01	1	0.00706047500716522	1	116	NA	219.842852250993	0	0.63	3.98	1	212.355516851996	212.362577327003	"17"	205683.158897258	205676.938734365	1.5	0.1
0.01	1	0.011732151004253	1	116	NA	219.842852250993	0	0.63	3.98	1	212.589187209989	212.600919360993	"17"	205683.158897258	205676.938734365	1.5	0.1
0.01	1	0.00310068798717111	1	116	NA	219.842852250993	0	0.63	3.98	1	212.839604865003	212.84270555299	"17"	205683.158897258	205676.938734365	1.5	0.1
0.01	1	0.00252269100747071	1	116	NA	219.842852250993	0	0.63	3.98	1	213.073214420991	213.075737111998	"17"	205683.158897258	205676.938734365	1.5	0.1
0.01	1	0.00692111498210579	1	116	NA	219.842852250993	0	0.63	3.98	1	213.306951002014	213.313872116996	"17"	205683.158897258	205676.938734365	1.5	0.1
0.01	1	0.00464120699325576	1	116	NA	219.842852250993	0	0.63	3.98	1	213.540801675001	213.545442881994	"17"	205683.158897258	205676.938734365	1.5	0.1
0.01	1	0.0249555580085143	1	116	NA	219.842852250993	0	0.63	3.98	1	213.774598135002	213.79955369301	"17"	205683.158897258	205676.938734365	1.5	0.1
0.01	1	0.00696963700465858	1	116	NA	219.842852250993	0	0.63	3.98	1	214.024874169991	214.031843806995	"17"	205683.158897258	205676.938734365	1.5	0.1
0.01	1	0.0297980479954276	1	116	NA	219.842852250993	0	0.63	3.98	1	214.258719892008	214.288517940004	"17"	205683.158897258	205676.938734365	1.5	0.1
0.01	1	0.0112058999948204	1	116	NA	219.842852250993	0	0.63	3.98	1	214.525923895009	214.537129795004	"17"	205683.158897258	205676.938734365	1.5	0.1
0.01	1	0.00387779300217517	1	116	NA	219.842852250993	0	0.63	3.98	1	214.759373862005	214.763251655007	"17"	205683.158897258	205676.938734365	1.5	0.1
0.01	1	0.0139161070110276	1	116	NA	219.842852250993	0	0.63	3.98	1	214.993177969998	215.007094077009	"17"	205683.158897258	205676.938734365	1.5	0.1
0.01	1	0.00315366999711841	1	116	NA	219.842852250993	0	0.63	3.98	1	215.243576298992	215.246729968989	"17"	205683.158897258	205676.938734365	1.5	0.1
0.01	1	0.0116176840092521	1	116	NA	219.842852250993	0	0.63	3.98	1	215.477418516995	215.489036201005	"17"	205683.158897258	205676.938734365	1.5	0.1
0.01	1	0.00394719099858776	1	116	NA	219.842852250993	0	0.63	3.98	1	215.710960302007	215.714907493006	"17"	205683.158897258	205676.938734365	1.5	0.1
0.01	1	0.0157448980025947	1	116	NA	219.842852250993	0	0.63	3.98	1	215.944781305006	215.960526203009	"17"	205683.158897258	205676.938734365	1.5	0.1
0.01	1	0.0022083790099714	1	116	NA	219.842852250993	0	0.63	3.98	1	216.195278186991	216.197486566001	"17"	205683.158897258	205676.938734365	1.5	0.1
0.01	1	0.00207203801255673	1	116	NA	219.842852250993	0	0.63	3.98	1	216.429007625004	216.431079663016	"17"	205683.158897258	205676.938734365	1.5	0.1
0.01	1	0.00449076399672776	1	116	NA	219.842852250993	0	0.63	3.98	1	216.662627301004	216.667118065001	"17"	205683.158897258	205676.938734365	1.5	0.1
0.01	1	0.0156327510194387	1	116	NA	219.842852250993	0	0.63	3.98	1	216.896425999992	216.912058751012	"17"	205683.158897258	205676.938734365	1.5	0.1
0.01	1	0.0120951620046981	1	116	NA	219.842852250993	0	0.63	3.98	1	217.146825762	217.158920924005	"17"	205683.158897258	205676.938734365	1.5	0.1
0.01	1	0.00315644798683934	1	116	NA	219.842852250993	0	0.63	3.98	1	217.397264397005	217.400420844991	"17"	205683.158897258	205676.938734365	1.5	0.1
0.01	1	0.00263342302059755	1	116	NA	219.842852250993	0	0.63	3.98	1	217.630946652993	217.633580076013	"17"	205683.158897258	205676.938734365	1.5	0.1
0.01	1	0.00717200801591389	1	116	NA	219.842852250993	0	0.63	3.98	1	217.864747284999	217.871919293015	"17"	205683.158897258	205676.938734365	1.5	0.1
0.01	1	0.0210776680032723	1	116	NA	219.842852250993	0	0.63	3.98	1	218.098430482001	218.119508150005	"17"	205683.158897258	205676.938734365	1.5	0.1
0.01	1	0.00440727901877835	1	116	NA	219.842852250993	0	0.63	3.98	1	218.348907320993	218.353314600012	"17"	205683.158897258	205676.938734365	1.5	0.1
0.01	1	0.0177847949962597	1	116	NA	219.842852250993	0	0.63	3.98	1	218.582605445001	218.600390239997	"17"	205683.158897258	205676.938734365	1.5	0.1
0.01	1	0.0157361419987865	1	116	NA	219.842852250993	0	0.63	3.98	1	218.833030776994	218.848766918993	"17"	205683.158897258	205676.938734365	1.5	0.1
0.01	1	0.028942114993697	1	116	NA	219.842852250993	0	0.63	3.98	1	219.083486001997	219.11242811699	"17"	205683.158897258	205676.938734365	1.5	0.1
0.01	1	0.00274500201339833	1	116	NA	219.842852250993	0	0.63	3.98	1	219.350519781001	219.353264783014	"17"	205683.158897258	205676.938734365	1.5	0.1
0.01	1	0.00257287800195627	1	116	NA	219.842852250993	0	0.63	3.98	1	219.584211675014	219.586784553016	"17"	205683.158897258	205676.938734365	1.5	0.1
0.01	1	0.022774221986765	2	116	NA	219.842852250993	0	0.63	3.98	1	219.818000122003	219.840774343989	"17"	205683.158897258	205676.938734365	1.5	0.1
0.01	1	0.359363506984664	1	31	229.387022762006	NA	1	0	3.98	1	221.888214470004	222.247577976988	"18"	205683.158897258	205676.938734365	1.5	0.1
0.01	1	0.00255168101284653	1	31	229.387022762006	NA	1	0	3.98	1	222.489217780996	222.491769462009	"18"	205683.158897258	205676.938734365	1.5	0.1
0.01	1	0.00321184599306434	1	31	229.387022762006	NA	1	0	3.98	1	222.722832622996	222.726044468989	"18"	205683.158897258	205676.938734365	1.5	0.1
0.01	1	0.00300751801114529	1	31	229.387022762006	NA	1	0	3.98	1	222.956600253005	222.959607771016	"18"	205683.158897258	205676.938734365	1.5	0.1
0.01	1	0.00397700499161147	1	31	229.387022762006	NA	1	0	3.98	1	223.190215740004	223.194192744995	"18"	205683.158897258	205676.938734365	1.5	0.1
0.01	1	0.00247225401108153	1	31	229.387022762006	NA	1	0	3.98	1	223.424078279	223.426550533011	"18"	205683.158897258	205676.938734365	1.5	0.1
0.01	1	0.00208829599432647	1	31	229.387022762006	NA	1	0	3.98	1	223.657877179008	223.659965475003	"18"	205683.158897258	205676.938734365	1.5	0.1
0.01	1	0.0022356589906849	1	31	229.387022762006	NA	1	0	3.98	1	223.891565577011	223.893801236001	"18"	205683.158897258	205676.938734365	1.5	0.1
0.01	1	0.00423003398464061	1	31	229.387022762006	NA	1	0	3.98	1	224.125290911004	224.129520944989	"18"	205683.158897258	205676.938734365	1.5	0.1
0.01	1	0.00208137801382691	1	31	229.387022762006	NA	1	0	3.98	1	224.358912024996	224.36099340301	"18"	205683.158897258	205676.938734365	1.5	0.1
0.01	1	0.00250744700315408	1	31	229.387022762006	NA	1	0	3.98	1	224.592756983009	224.595264430012	"18"	205683.158897258	205676.938734365	1.5	0.1
0.01	1	0.00398514699190855	1	31	229.387022762006	NA	1	0	3.98	1	224.826368600014	224.830353747006	"18"	205683.158897258	205676.938734365	1.5	0.1
0.01	1	0.00457889700192027	1	31	229.387022762006	NA	1	0	3.98	1	225.060160814988	225.06473971199	"18"	205683.158897258	205676.938734365	1.5	0.1
0.01	1	0.00443687199731357	1	31	229.387022762006	NA	1	0	3.98	1	225.293884770013	225.298321642011	"18"	205683.158897258	205676.938734365	1.5	0.1
0.01	1	0.00254567799856886	1	31	229.387022762006	NA	1	0	3.98	1	225.527624487004	225.530170165002	"18"	205683.158897258	205676.938734365	1.5	0.1
0.01	1	0.00457175701740198	1	31	229.387022762006	NA	1	0	3.98	1	225.761426084995	225.765997842012	"18"	205683.158897258	205676.938734365	1.5	0.1
0.01	1	0.00336152399540879	1	31	229.387022762006	NA	1	0	3.98	1	225.994984955003	225.998346478998	"18"	205683.158897258	205676.938734365	1.5	0.1
0.01	1	0.00381417700555176	1	31	229.387022762006	NA	1	0	3.98	1	226.228748369991	226.232562546997	"18"	205683.158897258	205676.938734365	1.5	0.1
0.01	1	0.00397592701483518	1	31	229.387022762006	NA	1	0	3.98	1	226.462465721997	226.466441649012	"18"	205683.158897258	205676.938734365	1.5	0.1
0.01	1	0.00461511500179768	1	31	229.387022762006	NA	1	0	3.98	1	226.696162000007	226.700777115009	"18"	205683.158897258	205676.938734365	1.5	0.1
0.01	1	0.00397270501707681	1	31	229.387022762006	NA	1	0	3.98	1	226.929943539988	226.933916245005	"18"	205683.158897258	205676.938734365	1.5	0.1
0.01	1	0.00257423898437992	1	31	229.387022762006	NA	1	0	3.98	1	227.163636131008	227.166210369993	"18"	205683.158897258	205676.938734365	1.5	0.1
0.01	1	0.00205684098182246	1	31	229.387022762006	NA	1	0	3.98	1	227.397415211017	227.399472051999	"18"	205683.158897258	205676.938734365	1.5	0.1
0.01	1	0.00197188099264167	1	31	229.387022762006	NA	1	0	3.98	1	227.631066161004	227.633038041997	"18"	205683.158897258	205676.938734365	1.5	0.1
0.01	1	0.00469281000550836	1	31	229.387022762006	NA	1	0	3.98	1	227.864936619997	227.869629430003	"18"	205683.158897258	205676.938734365	1.5	0.1
0.01	1	0.00465370999881998	1	31	229.387022762006	NA	1	0	3.98	1	228.098584070016	228.103237780015	"18"	205683.158897258	205676.938734365	1.5	0.1
0.01	1	0.00270245497813448	1	31	229.387022762006	NA	1	0	3.98	1	228.332353605016	228.335056059994	"18"	205683.158897258	205676.938734365	1.5	0.1
0.01	1	0.00297703198157251	1	31	229.387022762006	NA	1	0	3.98	1	228.566054919007	228.569031950989	"18"	205683.158897258	205676.938734365	1.5	0.1
0.01	1	0.0023541730188299	1	31	229.387022762006	NA	1	0	3.98	1	228.799806972995	228.802161146014	"18"	205683.158897258	205676.938734365	1.5	0.1
