"payoff.level"	"balloon"	"rt"	"resp"	"explode.trial"	"explode.time"	"finish.time"	"exploded"	"trial.total"	"cumulative.total"	"finished"	"trial.start"	"trial.end"	"trial.num"	"secs"	"start.time"	"iti"	"isi"
0.01	1	1.75705394899978	1	64	NA	87.5350094089999	0	0.57	0.57	1	0.0162552580004558	1.77330920700024	"1"	8482.772331692	8477.260673129	1.5	0.1
0.01	1	1.69554855200022	1	64	NA	87.5350094089999	0	0.57	0.57	1	2.06959881300008	3.7651473650003	"1"	8482.772331692	8477.260673129	1.5	0.1
0.01	1	1.63105859999996	1	64	NA	87.5350094089999	0	0.57	0.57	1	3.98952182799985	5.62058042799981	"1"	8482.772331692	8477.260673129	1.5	0.1
0.01	1	1.45786798799963	1	64	NA	87.5350094089999	0	0.57	0.57	1	5.85942919300032	7.31729718099996	"1"	8482.772331692	8477.260673129	1.5	0.1
0.01	1	1.4038176110007	1	64	NA	87.5350094089999	0	0.57	0.57	1	7.54551256299965	8.94933017400035	"1"	8482.772331692	8477.260673129	1.5	0.1
0.01	1	1.34336778099987	1	64	NA	87.5350094089999	0	0.57	0.57	1	9.18150429300022	10.5248720740001	"1"	8482.772331692	8477.260673129	1.5	0.1
0.01	1	1.33355918699999	1	64	NA	87.5350094089999	0	0.57	0.57	1	10.7509681629999	12.0845273499999	"1"	8482.772331692	8477.260673129	1.5	0.1
0.01	1	1.27648946299996	1	64	NA	87.5350094089999	0	0.57	0.57	1	12.3201263600004	13.5966158230003	"1"	8482.772331692	8477.260673129	1.5	0.1
0.01	1	1.22322379499929	1	64	NA	87.5350094089999	0	0.57	0.57	1	13.8227496030004	15.0459733979997	"1"	8482.772331692	8477.260673129	1.5	0.1
0.01	1	1.24182072699932	1	64	NA	87.5350094089999	0	0.57	0.57	1	15.2752864780005	16.5171072049998	"1"	8482.772331692	8477.260673129	1.5	0.1
0.01	1	1.18064578799931	1	64	NA	87.5350094089999	0	0.57	0.57	1	16.7443229950004	17.9249687829997	"1"	8482.772331692	8477.260673129	1.5	0.1
0.01	1	1.1861609259995	1	64	NA	87.5350094089999	0	0.57	0.57	1	18.1633829230004	19.3495438489999	"1"	8482.772331692	8477.260673129	1.5	0.1
0.01	1	1.2238549599997	1	64	NA	87.5350094089999	0	0.57	0.57	1	19.5823998599999	20.8062548199996	"1"	8482.772331692	8477.260673129	1.5	0.1
0.01	1	1.10703080900021	1	64	NA	87.5350094089999	0	0.57	0.57	1	21.0349040399997	22.1419348489999	"1"	8482.772331692	8477.260673129	1.5	0.1
0.01	1	1.04310361900025	1	64	NA	87.5350094089999	0	0.57	0.57	1	22.3704531029998	23.4135567220001	"1"	8482.772331692	8477.260673129	1.5	0.1
0.01	1	1.0870376619996	1	64	NA	87.5350094089999	0	0.57	0.57	1	23.639320018	24.7263576799996	"1"	8482.772331692	8477.260673129	1.5	0.1
0.01	1	0.944113135999942	1	64	NA	87.5350094089999	0	0.57	0.57	1	24.9581868679998	25.9023000039997	"1"	8482.772331692	8477.260673129	1.5	0.1
0.01	1	0.999548757999946	1	64	NA	87.5350094089999	0	0.57	0.57	1	26.1267355919999	27.1262843499999	"1"	8482.772331692	8477.260673129	1.5	0.1
0.01	1	0.875929341999836	1	64	NA	87.5350094089999	0	0.57	0.57	1	27.3621190900003	28.2380484320001	"1"	8482.772331692	8477.260673129	1.5	0.1
0.01	1	1.06202194700018	1	64	NA	87.5350094089999	0	0.57	0.57	1	28.4640492629997	29.5260712099998	"1"	8482.772331692	8477.260673129	1.5	0.1
0.01	1	0.894319886999256	1	64	NA	87.5350094089999	0	0.57	0.57	1	29.7662261180003	30.6605460049996	"1"	8482.772331692	8477.260673129	1.5	0.1
0.01	1	0.904328050000004	1	64	NA	87.5350094089999	0	0.57	0.57	1	30.8847780779997	31.7891061279997	"1"	8482.772331692	8477.260673129	1.5	0.1
0.01	1	0.985210028000438	1	64	NA	87.5350094089999	0	0.57	0.57	1	32.0200281529997	33.0052381810001	"1"	8482.772331692	8477.260673129	1.5	0.1
0.01	1	0.887764658999913	1	64	NA	87.5350094089999	0	0.57	0.57	1	33.2388250829999	34.1265897419999	"1"	8482.772331692	8477.260673129	1.5	0.1
0.01	1	0.912049867999485	1	64	NA	87.5350094089999	0	0.57	0.57	1	34.3573184200004	35.2693682879999	"1"	8482.772331692	8477.260673129	1.5	0.1
0.01	1	1.04859926400059	1	64	NA	87.5350094089999	0	0.57	0.57	1	35.4924623079996	36.5410615720002	"1"	8482.772331692	8477.260673129	1.5	0.1
0.01	1	0.915748174999862	1	64	NA	87.5350094089999	0	0.57	0.57	1	36.7780542999999	37.6938024749998	"1"	8482.772331692	8477.260673129	1.5	0.1
0.01	1	1.05047632199967	1	64	NA	87.5350094089999	0	0.57	0.57	1	37.9300574429999	38.9805337649996	"1"	8482.772331692	8477.260673129	1.5	0.1
0.01	1	0.893247242999678	1	64	NA	87.5350094089999	0	0.57	0.57	1	39.2154371400002	40.1086843829999	"1"	8482.772331692	8477.260673129	1.5	0.1
0.01	1	5.31106029199964	1	64	NA	87.5350094089999	0	0.57	0.57	1	40.3340949530002	45.6451552449998	"1"	8482.772331692	8477.260673129	1.5	0.1
0.01	1	1.18534413499947	1	64	NA	87.5350094089999	0	0.57	0.57	1	45.8767201330002	47.0620642679996	"1"	8482.772331692	8477.260673129	1.5	0.1
0.01	1	1.74257825799941	1	64	NA	87.5350094089999	0	0.57	0.57	1	47.2957559280003	49.0383341859997	"1"	8482.772331692	8477.260673129	1.5	0.1
0.01	1	1.34032083500006	1	64	NA	87.5350094089999	0	0.57	0.57	1	49.2657219900002	50.6060428250003	"1"	8482.772331692	8477.260673129	1.5	0.1
0.01	1	1.21022141899994	1	64	NA	87.5350094089999	0	0.57	0.57	1	50.8350221580004	52.0452435770003	"1"	8482.772331692	8477.260673129	1.5	0.1
0.01	1	1.78220824500022	1	64	NA	87.5350094089999	0	0.57	0.57	1	52.2708503029999	54.0530585480001	"1"	8482.772331692	8477.260673129	1.5	0.1
0.01	1	1.04999604500063	1	64	NA	87.5350094089999	0	0.57	0.57	1	54.2907917149996	55.3407877600002	"1"	8482.772331692	8477.260673129	1.5	0.1
0.01	1	1.50080249700022	1	64	NA	87.5350094089999	0	0.57	0.57	1	55.5763833379997	57.0771858349999	"1"	8482.772331692	8477.260673129	1.5	0.1
0.01	1	1.85251635199984	1	64	NA	87.5350094089999	0	0.57	0.57	1	57.31264526	59.1651616119998	"1"	8482.772331692	8477.260673129	1.5	0.1
0.01	1	1.22910653899999	1	64	NA	87.5350094089999	0	0.57	0.57	1	59.3996361879999	60.6287427269999	"1"	8482.772331692	8477.260673129	1.5	0.1
0.01	1	1.17801227199925	1	64	NA	87.5350094089999	0	0.57	0.57	1	60.8685990390004	62.0466113109997	"1"	8482.772331692	8477.260673129	1.5	0.1
0.01	1	1.08600468500026	1	64	NA	87.5350094089999	0	0.57	0.57	1	62.2709613699999	63.3569660550002	"1"	8482.772331692	8477.260673129	1.5	0.1
0.01	1	1.22400034100065	1	64	NA	87.5350094089999	0	0.57	0.57	1	63.5898552649996	64.8138556060003	"1"	8482.772331692	8477.260673129	1.5	0.1
0.01	1	1.09169294599997	1	64	NA	87.5350094089999	0	0.57	0.57	1	65.0422323049997	66.1339252509997	"1"	8482.772331692	8477.260673129	1.5	0.1
0.01	1	1.05218097699981	1	64	NA	87.5350094089999	0	0.57	0.57	1	66.3612149150003	67.4133958920002	"1"	8482.772331692	8477.260673129	1.5	0.1
0.01	1	1.06305564200011	1	64	NA	87.5350094089999	0	0.57	0.57	1	67.6466130179997	68.7096686599998	"1"	8482.772331692	8477.260673129	1.5	0.1
0.01	1	1.0664238599993	1	64	NA	87.5350094089999	0	0.57	0.57	1	68.9320869330004	69.9985107929997	"1"	8482.772331692	8477.260673129	1.5	0.1
0.01	1	1.10706340199977	1	64	NA	87.5350094089999	0	0.57	0.57	1	70.2342774010003	71.3413408030001	"1"	8482.772331692	8477.260673129	1.5	0.1
0.01	1	1.10871994199988	1	64	NA	87.5350094089999	0	0.57	0.57	1	71.569869553	72.6785894949999	"1"	8482.772331692	8477.260673129	1.5	0.1
0.01	1	1.3803055999997	1	64	NA	87.5350094089999	0	0.57	0.57	1	72.905478961	74.2857845609997	"1"	8482.772331692	8477.260673129	1.5	0.1
0.01	1	1.18540209599996	1	64	NA	87.5350094089999	0	0.57	0.57	1	74.5248343229996	75.7102364189996	"1"	8482.772331692	8477.260673129	1.5	0.1
0.01	1	1.75035600799947	1	64	NA	87.5350094089999	0	0.57	0.57	1	75.9439572000001	77.6943132079996	"1"	8482.772331692	8477.260673129	1.5	0.1
0.01	1	1.28246329099966	1	64	NA	87.5350094089999	0	0.57	0.57	1	77.9305878280002	79.2130511189998	"1"	8482.772331692	8477.260673129	1.5	0.1
0.01	1	1.18071997200059	1	64	NA	87.5350094089999	0	0.57	0.57	1	79.4498458899998	80.6305658620004	"1"	8482.772331692	8477.260673129	1.5	0.1
0.01	1	1.09593502400003	1	64	NA	87.5350094089999	0	0.57	0.57	1	80.8689169620002	81.9648519860002	"1"	8482.772331692	8477.260673129	1.5	0.1
0.01	1	1.2109560530007	1	64	NA	87.5350094089999	0	0.57	0.57	1	82.1878452379997	83.3988012910004	"1"	8482.772331692	8477.260673129	1.5	0.1
0.01	1	1.06959722600004	1	64	NA	87.5350094089999	0	0.57	0.57	1	83.6235469430003	84.6931441690003	"1"	8482.772331692	8477.260673129	1.5	0.1
0.01	1	1.49657371500052	1	64	NA	87.5350094089999	0	0.57	0.57	1	84.9256810079996	86.4222547230002	"1"	8482.772331692	8477.260673129	1.5	0.1
0.01	1	0.88807148900014	2	64	NA	87.5350094089999	0	0.57	0.57	1	86.6452454399996	87.5333169289997	"1"	8482.772331692	8477.260673129	1.5	0.1
0.01	1	0.717614443000457	1	102	NA	145.207549798	0	0.940000000000001	1.51	1	89.5836313919999	90.3012458350004	"2"	8482.772331692	8477.260673129	1.5	0.1
0.01	1	0.399202737000451	1	102	NA	145.207549798	0	0.940000000000001	1.51	1	90.5351037709997	90.9343065080002	"2"	8482.772331692	8477.260673129	1.5	0.1
0.01	1	0.532872194999982	1	102	NA	145.207549798	0	0.940000000000001	1.51	1	91.1695378000004	91.7024099950004	"2"	8482.772331692	8477.260673129	1.5	0.1
0.01	1	0.412264647000484	1	102	NA	145.207549798	0	0.940000000000001	1.51	1	91.9375167779999	92.3497814250004	"2"	8482.772331692	8477.260673129	1.5	0.1
0.01	1	0.457983059999606	1	102	NA	145.207549798	0	0.940000000000001	1.51	1	92.5719225700004	93.02990563	"2"	8482.772331692	8477.260673129	1.5	0.1
0.01	1	0.349372482000035	1	102	NA	145.207549798	0	0.940000000000001	1.51	1	93.2563181380001	93.6056906200001	"2"	8482.772331692	8477.260673129	1.5	0.1
0.01	1	0.332995741000559	1	102	NA	145.207549798	0	0.940000000000001	1.51	1	93.8406761899996	94.1736719310002	"2"	8482.772331692	8477.260673129	1.5	0.1
0.01	1	0.381981291000557	1	102	NA	145.207549798	0	0.940000000000001	1.51	1	94.4084451079998	94.7904263990004	"2"	8482.772331692	8477.260673129	1.5	0.1
0.01	1	0.395341547000498	1	102	NA	145.207549798	0	0.940000000000001	1.51	1	95.0261050649997	95.4214466120002	"2"	8482.772331692	8477.260673129	1.5	0.1
0.01	1	0.330919858000016	1	102	NA	145.207549798	0	0.940000000000001	1.51	1	95.6438565529998	95.9747764109998	"2"	8482.772331692	8477.260673129	1.5	0.1
0.01	1	0.339026114999797	1	102	NA	145.207549798	0	0.940000000000001	1.51	1	96.2114527479998	96.5504788629996	"2"	8482.772331692	8477.260673129	1.5	0.1
0.01	1	0.338559425000312	1	102	NA	145.207549798	0	0.940000000000001	1.51	1	96.7789667930001	97.1175262180004	"2"	8482.772331692	8477.260673129	1.5	0.1
0.01	1	0.346997182999985	1	102	NA	145.207549798	0	0.940000000000001	1.51	1	97.3466134999999	97.6936106829999	"2"	8482.772331692	8477.260673129	1.5	0.1
0.01	1	0.411857235000753	1	102	NA	145.207549798	0	0.940000000000001	1.51	1	97.9309819829996	98.3428392180003	"2"	8482.772331692	8477.260673129	1.5	0.1
0.01	1	0.368942679000611	1	102	NA	145.207549798	0	0.940000000000001	1.51	1	98.5653203029997	98.9342629820003	"2"	8482.772331692	8477.260673129	1.5	0.1
0.01	1	0.392122294999353	1	102	NA	145.207549798	0	0.940000000000001	1.51	1	99.1663997100004	99.5585220049998	"2"	8482.772331692	8477.260673129	1.5	0.1
0.01	1	0.285605552000561	1	102	NA	145.207549798	0	0.940000000000001	1.51	1	99.7840002829998	100.069605835	"2"	8482.772331692	8477.260673129	1.5	0.1
0.01	1	0.32788606000031	1	102	NA	145.207549798	0	0.940000000000001	1.51	1	100.301619113	100.629505173	"2"	8482.772331692	8477.260673129	1.5	0.1
0.01	1	0.34370961500008	1	102	NA	145.207549798	0	0.940000000000001	1.51	1	100.869335053	101.213044668	"2"	8482.772331692	8477.260673129	1.5	0.1
0.01	1	0.409844736000196	1	102	NA	145.207549798	0	0.940000000000001	1.51	1	101.436861933	101.846706669	"2"	8482.772331692	8477.260673129	1.5	0.1
0.01	1	0.326000959999874	1	102	NA	145.207549798	0	0.940000000000001	1.51	1	102.071299088	102.397300048	"2"	8482.772331692	8477.260673129	1.5	0.1
0.01	1	0.31152536099944	1	102	NA	145.207549798	0	0.940000000000001	1.51	1	102.622071638	102.933596999	"2"	8482.772331692	8477.260673129	1.5	0.1
0.01	1	0.28145385300013	1	102	NA	145.207549798	0	0.940000000000001	1.51	1	103.156397205	103.437851058	"2"	8482.772331692	8477.260673129	1.5	0.1
0.01	1	0.31558957300058	1	102	NA	145.207549798	0	0.940000000000001	1.51	1	103.673999633	103.989589206	"2"	8482.772331692	8477.260673129	1.5	0.1
0.01	1	0.292949317999955	1	102	NA	145.207549798	0	0.940000000000001	1.51	1	104.224824438	104.517773756	"2"	8482.772331692	8477.260673129	1.5	0.1
0.01	1	0.302813583999523	1	102	NA	145.207549798	0	0.940000000000001	1.51	1	104.742383003	105.045196587	"2"	8482.772331692	8477.260673129	1.5	0.1
0.01	1	0.264399487999981	1	102	NA	145.207549798	0	0.940000000000001	1.51	1	105.276568703	105.540968191	"2"	8482.772331692	8477.260673129	1.5	0.1
0.01	1	0.259964275000129	1	102	NA	145.207549798	0	0.940000000000001	1.51	1	105.777446391	106.037410666	"2"	8482.772331692	8477.260673129	1.5	0.1
0.01	1	0.271529995000492	1	102	NA	145.207549798	0	0.940000000000001	1.51	1	106.261644333	106.533174328	"2"	8482.772331692	8477.260673129	1.5	0.1
0.01	1	0.338703118000012	1	102	NA	145.207549798	0	0.940000000000001	1.51	1	106.762509188	107.101212306	"2"	8482.772331692	8477.260673129	1.5	0.1
0.01	1	0.298710500000197	1	102	NA	145.207549798	0	0.940000000000001	1.51	1	107.330149548	107.628860048	"2"	8482.772331692	8477.260673129	1.5	0.1
0.01	1	0.333342683999945	1	102	NA	145.207549798	0	0.940000000000001	1.51	1	107.864399418	108.197742102	"2"	8482.772331692	8477.260673129	1.5	0.1
0.01	1	0.358572285999799	1	102	NA	145.207549798	0	0.940000000000001	1.51	1	108.431934333	108.790506619	"2"	8482.772331692	8477.260673129	1.5	0.1
0.01	1	0.398169336999672	1	102	NA	145.207549798	0	0.940000000000001	1.51	1	109.016212693	109.41438203	"2"	8482.772331692	8477.260673129	1.5	0.1
0.01	1	0.282903172999795	1	102	NA	145.207549798	0	0.940000000000001	1.51	1	109.65069301	109.933596183	"2"	8482.772331692	8477.260673129	1.5	0.1
0.01	1	0.302328267999656	1	102	NA	145.207549798	0	0.940000000000001	1.51	1	110.16818339	110.470511658	"2"	8482.772331692	8477.260673129	1.5	0.1
0.01	1	0.312117481999849	1	102	NA	145.207549798	0	0.940000000000001	1.51	1	110.702354039	111.014471521	"2"	8482.772331692	8477.260673129	1.5	0.1
0.01	1	0.288929674000428	1	102	NA	145.207549798	0	0.940000000000001	1.51	1	111.236583045	111.525512719	"2"	8482.772331692	8477.260673129	1.5	0.1
0.01	1	0.300541635000627	1	102	NA	145.207549798	0	0.940000000000001	1.51	1	111.754199378	112.054741013	"2"	8482.772331692	8477.260673129	1.5	0.1
0.01	1	0.486223735000749	1	102	NA	145.207549798	0	0.940000000000001	1.51	1	112.28843146	112.774655195	"2"	8482.772331692	8477.260673129	1.5	0.1
0.01	1	0.271788332000142	1	102	NA	145.207549798	0	0.940000000000001	1.51	1	113.006410763	113.278199095	"2"	8482.772331692	8477.260673129	1.5	0.1
0.01	1	0.234113526000328	1	102	NA	145.207549798	0	0.940000000000001	1.51	1	113.507232555	113.741346081	"2"	8482.772331692	8477.260673129	1.5	0.1
0.01	1	0.328011417999733	1	102	NA	145.207549798	0	0.940000000000001	1.51	1	113.974663465	114.302674883	"2"	8482.772331692	8477.260673129	1.5	0.1
0.01	1	0.296027681999476	1	102	NA	145.207549798	0	0.940000000000001	1.51	1	114.52548757	114.821515252	"2"	8482.772331692	8477.260673129	1.5	0.1
0.01	1	0.290181931999541	1	102	NA	145.207549798	0	0.940000000000001	1.51	1	115.059899023	115.350080955	"2"	8482.772331692	8477.260673129	1.5	0.1
0.01	1	0.283601500000259	1	102	NA	145.207549798	0	0.940000000000001	1.51	1	115.577343808	115.860945308	"2"	8482.772331692	8477.260673129	1.5	0.1
0.01	1	0.302342943999975	1	102	NA	145.207549798	0	0.940000000000001	1.51	1	116.09488721	116.397230154	"2"	8482.772331692	8477.260673129	1.5	0.1
0.01	1	0.329107321000265	1	102	NA	145.207549798	0	0.940000000000001	1.51	1	116.629036263	116.958143584	"2"	8482.772331692	8477.260673129	1.5	0.1
0.01	1	0.313042249999853	1	102	NA	145.207549798	0	0.940000000000001	1.51	1	117.179999405	117.493041655	"2"	8482.772331692	8477.260673129	1.5	0.1
0.01	1	0.369887786000618	1	102	NA	145.207549798	0	0.940000000000001	1.51	1	117.730878183	118.100765969	"2"	8482.772331692	8477.260673129	1.5	0.1
0.01	1	0.361459562000164	1	102	NA	145.207549798	0	0.940000000000001	1.51	1	118.331969833	118.693429395	"2"	8482.772331692	8477.260673129	1.5	0.1
0.01	1	0.378184610999597	1	102	NA	145.207549798	0	0.940000000000001	1.51	1	118.916176658	119.294361269	"2"	8482.772331692	8477.260673129	1.5	0.1
0.01	1	0.32030848299928	1	102	NA	145.207549798	0	0.940000000000001	1.51	1	119.51727748	119.837585963	"2"	8482.772331692	8477.260673129	1.5	0.1
0.01	1	0.313052789999347	1	102	NA	145.207549798	0	0.940000000000001	1.51	1	120.068256708	120.381309498	"2"	8482.772331692	8477.260673129	1.5	0.1
0.01	1	0.331614292999802	1	102	NA	145.207549798	0	0.940000000000001	1.51	1	120.619057285	120.950671578	"2"	8482.772331692	8477.260673129	1.5	0.1
0.01	1	0.178599054999722	1	102	NA	145.207549798	0	0.940000000000001	1.51	1	121.186737873	121.365336928	"2"	8482.772331692	8477.260673129	1.5	0.1
0.01	1	0.34623385300074	1	102	NA	145.207549798	0	0.940000000000001	1.51	1	121.587441176	121.933675029	"2"	8482.772331692	8477.260673129	1.5	0.1
0.01	1	0.386625481999545	1	102	NA	145.207549798	0	0.940000000000001	1.51	1	122.171709315	122.558334797	"2"	8482.772331692	8477.260673129	1.5	0.1
0.01	1	0.26535234900075	1	102	NA	145.207549798	0	0.940000000000001	1.51	1	122.789394453	123.054746802	"2"	8482.772331692	8477.260673129	1.5	0.1
0.01	1	0.306665380000595	1	102	NA	145.207549798	0	0.940000000000001	1.51	1	123.290341178	123.597006558	"2"	8482.772331692	8477.260673129	1.5	0.1
0.01	1	0.221371675999762	1	102	NA	145.207549798	0	0.940000000000001	1.51	1	123.824531763	124.045903439	"2"	8482.772331692	8477.260673129	1.5	0.1
0.01	1	0.347415342000204	1	102	NA	145.207549798	0	0.940000000000001	1.51	1	124.275234768	124.62265011	"2"	8482.772331692	8477.260673129	1.5	0.1
0.01	1	0.433783889000551	1	102	NA	145.207549798	0	0.940000000000001	1.51	1	124.859621473	125.293405362	"2"	8482.772331692	8477.260673129	1.5	0.1
0.01	1	0.341900849000012	1	102	NA	145.207549798	0	0.940000000000001	1.51	1	125.527350685	125.869251534	"2"	8482.772331692	8477.260673129	1.5	0.1
0.01	1	0.285903197999687	1	102	NA	145.207549798	0	0.940000000000001	1.51	1	126.094979403	126.380882601	"2"	8482.772331692	8477.260673129	1.5	0.1
0.01	1	0.321659272000034	1	102	NA	145.207549798	0	0.940000000000001	1.51	1	126.612548418	126.93420769	"2"	8482.772331692	8477.260673129	1.5	0.1
0.01	1	0.282029813999543	1	102	NA	145.207549798	0	0.940000000000001	1.51	1	127.163488318	127.445518132	"2"	8482.772331692	8477.260673129	1.5	0.1
0.01	1	0.2932923139997	1	102	NA	145.207549798	0	0.940000000000001	1.51	1	127.681085358	127.974377672	"2"	8482.772331692	8477.260673129	1.5	0.1
0.01	1	0.35048776199983	1	102	NA	145.207549798	0	0.940000000000001	1.51	1	128.198557978	128.54904574	"2"	8482.772331692	8477.260673129	1.5	0.1
0.01	1	0.342388404000303	1	102	NA	145.207549798	0	0.940000000000001	1.51	1	128.782885298	129.125273702	"2"	8482.772331692	8477.260673129	1.5	0.1
0.01	1	0.56000566900002	1	102	NA	145.207549798	0	0.940000000000001	1.51	1	129.350600573	129.910606242	"2"	8482.772331692	8477.260673129	1.5	0.1
0.01	1	0.453541557999415	1	102	NA	145.207549798	0	0.940000000000001	1.51	1	130.135209713	130.588751271	"2"	8482.772331692	8477.260673129	1.5	0.1
0.01	1	0.32292235299974	1	102	NA	145.207549798	0	0.940000000000001	1.51	1	130.819618918	131.142541271	"2"	8482.772331692	8477.260673129	1.5	0.1
0.01	1	0.291980396999861	1	102	NA	145.207549798	0	0.940000000000001	1.51	1	131.370556303	131.6625367	"2"	8482.772331692	8477.260673129	1.5	0.1
0.01	1	0.309129653999662	1	102	NA	145.207549798	0	0.940000000000001	1.51	1	131.888143483	132.197273137	"2"	8482.772331692	8477.260673129	1.5	0.1
0.01	1	0.303483157999835	1	102	NA	145.207549798	0	0.940000000000001	1.51	1	132.42232795	132.725811108	"2"	8482.772331692	8477.260673129	1.5	0.1
0.01	1	0.281605112999387	1	102	NA	145.207549798	0	0.940000000000001	1.51	1	132.95658728	133.238192393	"2"	8482.772331692	8477.260673129	1.5	0.1
0.01	1	0.356308364000142	1	102	NA	145.207549798	0	0.940000000000001	1.51	1	133.474047885	133.830356249	"2"	8482.772331692	8477.260673129	1.5	0.1
0.01	1	0.444421135000084	1	102	NA	145.207549798	0	0.940000000000001	1.51	1	134.05834429	134.502765425	"2"	8482.772331692	8477.260673129	1.5	0.1
0.01	1	0.495773487999941	1	102	NA	145.207549798	0	0.940000000000001	1.51	1	134.742895608	135.238669096	"2"	8482.772331692	8477.260673129	1.5	0.1
0.01	1	0.593612257000132	1	102	NA	145.207549798	0	0.940000000000001	1.51	1	135.460706908	136.054319165	"2"	8482.772331692	8477.260673129	1.5	0.1
0.01	1	0.51078327400046	1	102	NA	145.207549798	0	0.940000000000001	1.51	1	136.278774265	136.789557539	"2"	8482.772331692	8477.260673129	1.5	0.1
0.01	1	0.487748638999619	1	102	NA	145.207549798	0	0.940000000000001	1.51	1	137.01336677	137.501115409	"2"	8482.772331692	8477.260673129	1.5	0.1
0.01	1	0.499135554000532	1	102	NA	145.207549798	0	0.940000000000001	1.51	1	137.731280368	138.230415922	"2"	8482.772331692	8477.260673129	1.5	0.1
0.01	1	0.380738566999753	1	102	NA	145.207549798	0	0.940000000000001	1.51	1	138.465780618	138.846519185	"2"	8482.772331692	8477.260673129	1.5	0.1
0.01	1	0.361679210999682	1	102	NA	145.207549798	0	0.940000000000001	1.51	1	139.083516925	139.445196136	"2"	8482.772331692	8477.260673129	1.5	0.1
0.01	1	0.329792247000114	1	102	NA	145.207549798	0	0.940000000000001	1.51	1	139.667790478	139.997582725	"2"	8482.772331692	8477.260673129	1.5	0.1
0.01	1	0.321964421999837	1	102	NA	145.207549798	0	0.940000000000001	1.51	1	140.235501913	140.557466335	"2"	8482.772331692	8477.260673129	1.5	0.1
0.01	1	0.322692316999564	1	102	NA	145.207549798	0	0.940000000000001	1.51	1	140.786533163	141.10922548	"2"	8482.772331692	8477.260673129	1.5	0.1
0.01	1	0.308888660000775	1	102	NA	145.207549798	0	0.940000000000001	1.51	1	141.337330488	141.646219148	"2"	8482.772331692	8477.260673129	1.5	0.1
0.01	1	0.317698929000471	1	102	NA	145.207549798	0	0.940000000000001	1.51	1	141.871591065	142.189289994	"2"	8482.772331692	8477.260673129	1.5	0.1
0.01	1	0.559170288000132	1	102	NA	145.207549798	0	0.940000000000001	1.51	1	142.42243186	142.981602148	"2"	8482.772331692	8477.260673129	1.5	0.1
0.01	1	0.421766730999479	1	102	NA	145.207549798	0	0.940000000000001	1.51	1	143.207132522	143.628899253	"2"	8482.772331692	8477.260673129	1.5	0.1
0.01	1	0.404370290999395	1	102	NA	145.207549798	0	0.940000000000001	1.51	1	143.858247398	144.262617689	"2"	8482.772331692	8477.260673129	1.5	0.1
0.01	1	0.713342772000033	2	102	NA	145.207549798	0	0.940000000000001	1.51	1	144.492644585	145.205987357	"2"	8482.772331692	8477.260673129	1.5	0.1
0.01	1	0.470951742999205	1	97	178.36938995	NA	1	0	1.51	1	147.247232878	147.718184621	"3"	8482.772331692	8477.260673129	1.5	0.1
0.01	1	0.0483350519998567	1	97	178.36938995	NA	1	0	1.51	1	147.948486328	147.99682138	"3"	8482.772331692	8477.260673129	1.5	0.1
0.01	1	0.101373243000126	1	97	178.36938995	NA	1	0	1.51	1	148.232283118	148.333656361	"3"	8482.772331692	8477.260673129	1.5	0.1
0.01	1	0.00488416000007419	1	97	178.36938995	NA	1	0	1.51	1	148.566202548	148.571086708	"3"	8482.772331692	8477.260673129	1.5	0.1
0.01	1	0.00206221699954767	1	97	178.36938995	NA	1	0	1.51	1	148.799919103	148.80198132	"3"	8482.772331692	8477.260673129	1.5	0.1
0.01	1	0.00773397800003295	1	97	178.36938995	NA	1	0	1.51	1	149.033612839	149.041346817	"3"	8482.772331692	8477.260673129	1.5	0.1
0.01	1	0.0434434569997393	1	97	178.36938995	NA	1	0	1.51	1	149.267377153	149.31082061	"3"	8482.772331692	8477.260673129	1.5	0.1
0.01	1	0.00812151899935998	1	97	178.36938995	NA	1	0	1.51	1	149.534504148	149.542625667	"3"	8482.772331692	8477.260673129	1.5	0.1
0.01	1	0.00257760499971482	1	97	178.36938995	NA	1	0	1.51	1	149.768146851	149.770724456	"3"	8482.772331692	8477.260673129	1.5	0.1
0.01	1	0.0021244099998512	1	97	178.36938995	NA	1	0	1.51	1	150.001937238	150.004061648	"3"	8482.772331692	8477.260673129	1.5	0.1
0.01	1	0.0493784030004463	1	97	178.36938995	NA	1	0	1.51	1	150.235646728	150.285025131	"3"	8482.772331692	8477.260673129	1.5	0.1
0.01	1	0.038993025000309	1	97	178.36938995	NA	1	0	1.51	1	150.51943381	150.558426835	"3"	8482.772331692	8477.260673129	1.5	0.1
0.01	1	0.00401652899927285	1	97	178.36938995	NA	1	0	1.51	1	150.786618828	150.790635357	"3"	8482.772331692	8477.260673129	1.5	0.1
0.01	1	0.00204946400026529	1	97	178.36938995	NA	1	0	1.51	1	151.020356743	151.022406207	"3"	8482.772331692	8477.260673129	1.5	0.1
0.01	1	0.00380880700049602	1	97	178.36938995	NA	1	0	1.51	1	151.254046358	151.257855165	"3"	8482.772331692	8477.260673129	1.5	0.1
0.01	1	0.0616364280003836	1	97	178.36938995	NA	1	0	1.51	1	151.487689383	151.549325811	"3"	8482.772331692	8477.260673129	1.5	0.1
0.01	1	0.00442105299953255	1	97	178.36938995	NA	1	0	1.51	1	151.771507792	151.775928845	"3"	8482.772331692	8477.260673129	1.5	0.1
0.01	1	0.111741038000218	1	97	178.36938995	NA	1	0	1.51	1	152.00531627	152.117057308	"3"	8482.772331692	8477.260673129	1.5	0.1
0.01	1	0.00420665399997233	1	97	178.36938995	NA	1	0	1.51	1	152.339167176	152.34337383	"3"	8482.772331692	8477.260673129	1.5	0.1
0.01	1	0.360683411999162	1	97	178.36938995	NA	1	0	1.51	1	152.572838048	152.93352146	"3"	8482.772331692	8477.260673129	1.5	0.1
0.01	1	0.00201975599975412	1	97	178.36938995	NA	1	0	1.51	1	153.157198001	153.159217757	"3"	8482.772331692	8477.260673129	1.5	0.1
0.01	1	0.247372241999983	1	97	178.36938995	NA	1	0	1.51	1	153.390861098	153.63823334	"3"	8482.772331692	8477.260673129	1.5	0.1
0.01	1	0.00391051699989475	1	97	178.36938995	NA	1	0	1.51	1	153.875018588	153.878929105	"3"	8482.772331692	8477.260673129	1.5	0.1
0.01	1	0.304677414999787	1	97	178.36938995	NA	1	0	1.51	1	154.10878339	154.413460805	"3"	8482.772331692	8477.260673129	1.5	0.1
0.01	1	0.00221117499950196	1	97	178.36938995	NA	1	0	1.51	1	154.643152044	154.645363219	"3"	8482.772331692	8477.260673129	1.5	0.1
0.01	1	0.00452313000005233	1	97	178.36938995	NA	1	0	1.51	1	154.876722318	154.881245448	"3"	8482.772331692	8477.260673129	1.5	0.1
0.01	1	0.00204611199933424	1	97	178.36938995	NA	1	0	1.51	1	155.110558518	155.11260463	"3"	8482.772331692	8477.260673129	1.5	0.1
0.01	1	0.230561584000498	1	97	178.36938995	NA	1	0	1.51	1	155.344126225	155.574687809	"3"	8482.772331692	8477.260673129	1.5	0.1
0.01	1	0.00314704199990956	1	97	178.36938995	NA	1	0	1.51	1	155.811691977	155.814839019	"3"	8482.772331692	8477.260673129	1.5	0.1
0.01	1	0.0571944229996006	1	97	178.36938995	NA	1	0	1.51	1	156.045486703	156.102681126	"3"	8482.772331692	8477.260673129	1.5	0.1
0.01	1	0.0599111400006223	1	97	178.36938995	NA	1	0	1.51	1	156.329195453	156.389106593	"3"	8482.772331692	8477.260673129	1.5	0.1
0.01	1	0.00983904699933191	1	97	178.36938995	NA	1	0	1.51	1	156.612954248	156.622793295	"3"	8482.772331692	8477.260673129	1.5	0.1
0.01	1	0.0232739700004458	1	97	178.36938995	NA	1	0	1.51	1	156.846766868	156.870040838	"3"	8482.772331692	8477.260673129	1.5	0.1
0.01	1	0.164680936999503	1	97	178.36938995	NA	1	0	1.51	1	157.097307148	157.261988085	"3"	8482.772331692	8477.260673129	1.5	0.1
0.01	1	0.108186188000218	1	97	178.36938995	NA	1	0	1.51	1	157.497882593	157.606068781	"3"	8482.772331692	8477.260673129	1.5	0.1
0.01	1	0.125376914999833	1	97	178.36938995	NA	1	0	1.51	1	157.83174622	157.957123135	"3"	8482.772331692	8477.260673129	1.5	0.1
0.01	1	0.142656007000369	1	97	178.36938995	NA	1	0	1.51	1	158.182419358	158.325075365	"3"	8482.772331692	8477.260673129	1.5	0.1
0.01	1	0.0804514900000868	1	97	178.36938995	NA	1	0	1.51	1	158.549702388	158.630153878	"3"	8482.772331692	8477.260673129	1.5	0.1
0.01	1	0.0749001719996158	1	97	178.36938995	NA	1	0	1.51	1	158.866760138	158.94166031	"3"	8482.772331692	8477.260673129	1.5	0.1
0.01	1	0.0949304109999503	1	97	178.36938995	NA	1	0	1.51	1	159.167404128	159.262334539	"3"	8482.772331692	8477.260673129	1.5	0.1
0.01	1	0.0743973069993444	1	97	178.36938995	NA	1	0	1.51	1	159.484521508	159.558918815	"3"	8482.772331692	8477.260673129	1.5	0.1
0.01	1	0.00712032000046747	1	97	178.36938995	NA	1	0	1.51	1	159.785019313	159.792139633	"3"	8482.772331692	8477.260673129	1.5	0.1
0.01	1	0.026561531999505	1	97	178.36938995	NA	1	0	1.51	1	160.018792173	160.045353705	"3"	8482.772331692	8477.260673129	1.5	0.1
0.01	1	0.176128389000041	1	97	178.36938995	NA	1	0	1.51	1	160.269210043	160.445338432	"3"	8482.772331692	8477.260673129	1.5	0.1
0.01	1	0.400166925999656	1	97	178.36938995	NA	1	0	1.51	1	160.669877803	161.070044729	"3"	8482.772331692	8477.260673129	1.5	0.1
0.01	1	0.293000177999602	1	97	178.36938995	NA	1	0	1.51	1	161.30425129	161.597251468	"3"	8482.772331692	8477.260673129	1.5	0.1
0.01	1	0.240844465000009	1	97	178.36938995	NA	1	0	1.51	1	161.821780433	162.062624898	"3"	8482.772331692	8477.260673129	1.5	0.1
0.01	1	0.205218956999488	1	97	178.36938995	NA	1	0	1.51	1	162.28925409	162.494473047	"3"	8482.772331692	8477.260673129	1.5	0.1
0.01	1	0.177627537000262	1	97	178.36938995	NA	1	0	1.51	1	162.723221173	162.90084871	"3"	8482.772331692	8477.260673129	1.5	0.1
0.01	1	0.160749267000028	1	97	178.36938995	NA	1	0	1.51	1	163.140696025	163.301445292	"3"	8482.772331692	8477.260673129	1.5	0.1
0.01	1	0.144931482000175	1	97	178.36938995	NA	1	0	1.51	1	163.524589963	163.669521445	"3"	8482.772331692	8477.260673129	1.5	0.1
0.01	1	0.16984724699978	1	97	178.36938995	NA	1	0	1.51	1	163.891988268	164.061835515	"3"	8482.772331692	8477.260673129	1.5	0.1
0.01	1	0.11268212899995	1	97	178.36938995	NA	1	0	1.51	1	164.292693093	164.405375222	"3"	8482.772331692	8477.260673129	1.5	0.1
0.01	1	0.114559892000216	1	97	178.36938995	NA	1	0	1.51	1	164.643198728	164.75775862	"3"	8482.772331692	8477.260673129	1.5	0.1
0.01	1	0.0764068500002395	1	97	178.36938995	NA	1	0	1.51	1	164.993804428	165.070211278	"3"	8482.772331692	8477.260673129	1.5	0.1
0.01	1	0.112376460000633	1	97	178.36938995	NA	1	0	1.51	1	165.294312968	165.406689428	"3"	8482.772331692	8477.260673129	1.5	0.1
0.01	1	0.0725997379995533	1	97	178.36938995	NA	1	0	1.51	1	165.628253763	165.700853501	"3"	8482.772331692	8477.260673129	1.5	0.1
0.01	1	0.0692520570000852	1	97	178.36938995	NA	1	0	1.51	1	165.928800883	165.99805294	"3"	8482.772331692	8477.260673129	1.5	0.1
0.01	1	0.032970939999359	1	97	178.36938995	NA	1	0	1.51	1	166.229238173	166.262209113	"3"	8482.772331692	8477.260673129	1.5	0.1
0.01	1	0.0375419649999458	1	97	178.36938995	NA	1	0	1.51	1	166.496385933	166.533927898	"3"	8482.772331692	8477.260673129	1.5	0.1
0.01	1	0.0747355550001885	1	97	178.36938995	NA	1	0	1.51	1	166.763582828	166.838318383	"3"	8482.772331692	8477.260673129	1.5	0.1
0.01	1	0.0625538539998161	1	97	178.36938995	NA	1	0	1.51	1	167.064008908	167.126562762	"3"	8482.772331692	8477.260673129	1.5	0.1
0.01	1	0.0743056439996508	1	97	178.36938995	NA	1	0	1.51	1	167.364391813	167.438697457	"3"	8482.772331692	8477.260673129	1.5	0.1
0.01	1	0.093218515999979	1	97	178.36938995	NA	1	0	1.51	1	167.664978742	167.758197258	"3"	8482.772331692	8477.260673129	1.5	0.1
0.01	1	0.0637175779993413	1	97	178.36938995	NA	1	0	1.51	1	167.982103293	168.045820871	"3"	8482.772331692	8477.260673129	1.5	0.1
0.01	1	0.0662838859998374	1	97	178.36938995	NA	1	0	1.51	1	168.282701235	168.348985121	"3"	8482.772331692	8477.260673129	1.5	0.1
0.01	1	0.0557285119994049	1	97	178.36938995	NA	1	0	1.51	1	168.583190518	168.63891903	"3"	8482.772331692	8477.260673129	1.5	0.1
0.01	1	0.0671151390006344	1	97	178.36938995	NA	1	0	1.51	1	168.867010538	168.934125677	"3"	8482.772331692	8477.260673129	1.5	0.1
0.01	1	0.0378742000002603	1	97	178.36938995	NA	1	0	1.51	1	169.167514385	169.205388585	"3"	8482.772331692	8477.260673129	1.5	0.1
0.01	1	0.0682040620004045	1	97	178.36938995	NA	1	0	1.51	1	169.434595885	169.502799947	"3"	8482.772331692	8477.260673129	1.5	0.1
0.01	1	0.0788086299999122	1	97	178.36938995	NA	1	0	1.51	1	169.73510234	169.81391097	"3"	8482.772331692	8477.260673129	1.5	0.1
0.01	1	0.0821884370006956	1	97	178.36938995	NA	1	0	1.51	1	170.035626528	170.117814965	"3"	8482.772331692	8477.260673129	1.5	0.1
0.01	1	0.253745213999537	1	97	178.36938995	NA	1	0	1.51	1	170.352812078	170.606557292	"3"	8482.772331692	8477.260673129	1.5	0.1
0.01	1	0.0731626239994512	1	97	178.36938995	NA	1	0	1.51	1	170.836984315	170.910146939	"3"	8482.772331692	8477.260673129	1.5	0.1
0.01	1	0.0451586420003878	1	97	178.36938995	NA	1	0	1.51	1	171.137501945	171.182660587	"3"	8482.772331692	8477.260673129	1.5	0.1
0.01	1	0.0819447460007723	1	97	178.36938995	NA	1	0	1.51	1	171.404525763	171.486470509	"3"	8482.772331692	8477.260673129	1.5	0.1
0.01	1	0.148491095000281	1	97	178.36938995	NA	1	0	1.51	1	171.721760558	171.870251653	"3"	8482.772331692	8477.260673129	1.5	0.1
0.01	1	0.202982643999349	1	97	178.36938995	NA	1	0	1.51	1	172.10587301	172.308855654	"3"	8482.772331692	8477.260673129	1.5	0.1
0.01	1	0.225055445999715	1	97	178.36938995	NA	1	0	1.51	1	172.539936616	172.764992062	"3"	8482.772331692	8477.260673129	1.5	0.1
0.01	1	0.2061129169997	1	97	178.36938995	NA	1	0	1.51	1	172.990710523	173.19682344	"3"	8482.772331692	8477.260673129	1.5	0.1
0.01	1	0.260763509999379	1	97	178.36938995	NA	1	0	1.51	1	173.424622708	173.685386218	"3"	8482.772331692	8477.260673129	1.5	0.1
0.01	1	0.0574041600002602	1	97	178.36938995	NA	1	0	1.51	1	173.90881833	173.96622249	"3"	8482.772331692	8477.260673129	1.5	0.1
0.01	1	0.0522797659996286	1	97	178.36938995	NA	1	0	1.51	1	174.19258736	174.244867126	"3"	8482.772331692	8477.260673129	1.5	0.1
0.01	1	0.00460673999987193	1	97	178.36938995	NA	1	0	1.51	1	174.476526718	174.481133458	"3"	8482.772331692	8477.260673129	1.5	0.1
0.01	1	0.00259977799942135	1	97	178.36938995	NA	1	0	1.51	1	174.710064103	174.712663881	"3"	8482.772331692	8477.260673129	1.5	0.1
0.01	1	0.00358124400008819	1	97	178.36938995	NA	1	0	1.51	1	174.943933683	174.947514927	"3"	8482.772331692	8477.260673129	1.5	0.1
0.01	1	0.00202881099994556	1	97	178.36938995	NA	1	0	1.51	1	175.17762469	175.179653501	"3"	8482.772331692	8477.260673129	1.5	0.1
0.01	1	0.00385202500001469	1	97	178.36938995	NA	1	0	1.51	1	175.411366008	175.415218033	"3"	8482.772331692	8477.260673129	1.5	0.1
0.01	1	0.0038500689997818	1	97	178.36938995	NA	1	0	1.51	1	175.64507952	175.648929589	"3"	8482.772331692	8477.260673129	1.5	0.1
0.01	1	0.0871344690003752	1	97	178.36938995	NA	1	0	1.51	1	175.878791452	175.965925921	"3"	8482.772331692	8477.260673129	1.5	0.1
0.01	1	0.0339683820002392	1	97	178.36938995	NA	1	0	1.51	1	176.195984063	176.229952445	"3"	8482.772331692	8477.260673129	1.5	0.1
0.01	1	0.0024365149993173	1	97	178.36938995	NA	1	0	1.51	1	176.463154625	176.46559114	"3"	8482.772331692	8477.260673129	1.5	0.1
0.01	1	0.00216627499958122	1	97	178.36938995	NA	1	0	1.51	1	176.696886955	176.69905323	"3"	8482.772331692	8477.260673129	1.5	0.1
0.01	1	0.019350040000063	1	97	178.36938995	NA	1	0	1.51	1	176.930538788	176.949888828	"3"	8482.772331692	8477.260673129	1.5	0.1
0.01	1	0.120154129999719	1	97	178.36938995	NA	1	0	1.51	1	177.181074698	177.301228828	"3"	8482.772331692	8477.260673129	1.5	0.1
0.01	1	0.34568529399985	1	97	178.36938995	NA	1	0	1.51	1	177.53160378	177.877289074	"3"	8482.772331692	8477.260673129	1.5	0.1
0.01	1	0.138483501999872	1	97	178.36938995	NA	1	0	1.51	1	178.115818413	178.254301915	"3"	8482.772331692	8477.260673129	1.5	0.1
0.01	1	0.115283445999921	1	51	193.896357648	NA	1	0	1.51	1	180.403088031	180.518371477	"4"	8482.772331692	8477.260673129	1.5	0.1
0.01	1	0.00457751500016457	1	51	193.896357648	NA	1	0	1.51	1	180.753629483	180.758206998	"4"	8482.772331692	8477.260673129	1.5	0.1
0.01	1	0.0983435319994896	1	51	193.896357648	NA	1	0	1.51	1	180.987379023	181.085722555	"4"	8482.772331692	8477.260673129	1.5	0.1
0.01	1	0.00211749000027339	1	51	193.896357648	NA	1	0	1.51	1	181.321314371	181.323431861	"4"	8482.772331692	8477.260673129	1.5	0.1
0.01	1	0.11521884800004	1	51	193.896357648	NA	1	0	1.51	1	181.555035363	181.670254211	"4"	8482.772331692	8477.260673129	1.5	0.1
0.01	1	0.00205381999967358	1	51	193.896357648	NA	1	0	1.51	1	181.905559588	181.907613408	"4"	8482.772331692	8477.260673129	1.5	0.1
0.01	1	0.129959664000125	1	51	193.896357648	NA	1	0	1.51	1	182.139275738	182.269235402	"4"	8482.772331692	8477.260673129	1.5	0.1
0.01	1	0.00243961100022716	1	51	193.896357648	NA	1	0	1.51	1	182.506640181	182.509079792	"4"	8482.772331692	8477.260673129	1.5	0.1
0.01	1	0.00206988699937938	1	51	193.896357648	NA	1	0	1.51	1	182.740322673	182.74239256	"4"	8482.772331692	8477.260673129	1.5	0.1
0.01	1	0.00383126300039294	1	51	193.896357648	NA	1	0	1.51	1	182.97410418	182.977935443	"4"	8482.772331692	8477.260673129	1.5	0.1
0.01	1	0.00397602300017752	1	51	193.896357648	NA	1	0	1.51	1	183.2078	183.211776023	"4"	8482.772331692	8477.260673129	1.5	0.1
0.01	1	0.00454414500018174	1	51	193.896357648	NA	1	0	1.51	1	183.441610358	183.446154503	"4"	8482.772331692	8477.260673129	1.5	0.1
0.01	1	0.00389861999974528	1	51	193.896357648	NA	1	0	1.51	1	183.675255735	183.679154355	"4"	8482.772331692	8477.260673129	1.5	0.1
0.01	1	0.104928878000464	1	51	193.896357648	NA	1	0	1.51	1	183.908882465	184.013811343	"4"	8482.772331692	8477.260673129	1.5	0.1
0.01	1	0.00201850699977513	1	51	193.896357648	NA	1	0	1.51	1	184.242859833	184.24487834	"4"	8482.772331692	8477.260673129	1.5	0.1
0.01	1	0.00249731400072051	1	51	193.896357648	NA	1	0	1.51	1	184.476527057	184.479024371	"4"	8482.772331692	8477.260673129	1.5	0.1
0.01	1	0.0472313340005712	1	51	193.896357648	NA	1	0	1.51	1	184.710277093	184.757508427	"4"	8482.772331692	8477.260673129	1.5	0.1
0.01	1	0.00304741199943237	1	51	193.896357648	NA	1	0	1.51	1	184.994033267	184.997080679	"4"	8482.772331692	8477.260673129	1.5	0.1
0.01	1	0.00234056400040572	1	51	193.896357648	NA	1	0	1.51	1	185.227827299	185.230167863	"4"	8482.772331692	8477.260673129	1.5	0.1
0.01	1	0.00257742299982056	1	51	193.896357648	NA	1	0	1.51	1	185.461577999	185.464155422	"4"	8482.772331692	8477.260673129	1.5	0.1
0.01	1	0.0020340920000308	1	51	193.896357648	NA	1	0	1.51	1	185.695297851	185.697331943	"4"	8482.772331692	8477.260673129	1.5	0.1
0.01	1	0.00204770300024393	1	51	193.896357648	NA	1	0	1.51	1	185.92905687	185.931104573	"4"	8482.772331692	8477.260673129	1.5	0.1
0.01	1	0.00221907500053931	1	51	193.896357648	NA	1	0	1.51	1	186.162736535	186.16495561	"4"	8482.772331692	8477.260673129	1.5	0.1
0.01	1	0.00205357300001197	1	51	193.896357648	NA	1	0	1.51	1	186.396543149	186.398596722	"4"	8482.772331692	8477.260673129	1.5	0.1
0.01	1	0.00199794700074563	1	51	193.896357648	NA	1	0	1.51	1	186.630218619	186.632216566	"4"	8482.772331692	8477.260673129	1.5	0.1
0.01	1	0.00395970400040824	1	51	193.896357648	NA	1	0	1.51	1	186.863951785	186.867911489	"4"	8482.772331692	8477.260673129	1.5	0.1
0.01	1	0.00379302300007112	1	51	193.896357648	NA	1	0	1.51	1	187.09765263	187.101445653	"4"	8482.772331692	8477.260673129	1.5	0.1
0.01	1	0.138874934999876	1	51	193.896357648	NA	1	0	1.51	1	187.331403528	187.470278463	"4"	8482.772331692	8477.260673129	1.5	0.1
0.01	1	0.00322312400021474	1	51	193.896357648	NA	1	0	1.51	1	187.698584029	187.701807153	"4"	8482.772331692	8477.260673129	1.5	0.1
0.01	1	0.0171879179997632	1	51	193.896357648	NA	1	0	1.51	1	187.932327143	187.949515061	"4"	8482.772331692	8477.260673129	1.5	0.1
0.01	1	0.00349871500020527	1	51	193.896357648	NA	1	0	1.51	1	188.182739758	188.186238473	"4"	8482.772331692	8477.260673129	1.5	0.1
0.01	1	0.00206900699959078	1	51	193.896357648	NA	1	0	1.51	1	188.416635153	188.41870416	"4"	8482.772331692	8477.260673129	1.5	0.1
0.01	1	0.00209524999991118	1	51	193.896357648	NA	1	0	1.51	1	188.650239711	188.652334961	"4"	8482.772331692	8477.260673129	1.5	0.1
0.01	1	0.00456509000014194	1	51	193.896357648	NA	1	0	1.51	1	188.884048063	188.888613153	"4"	8482.772331692	8477.260673129	1.5	0.1
0.01	1	0.112186905000272	1	51	193.896357648	NA	1	0	1.51	1	189.117735795	189.2299227	"4"	8482.772331692	8477.260673129	1.5	0.1
0.01	1	0.00200013599987869	1	51	193.896357648	NA	1	0	1.51	1	189.451615532	189.453615668	"4"	8482.772331692	8477.260673129	1.5	0.1
0.01	1	0.00390679700012697	1	51	193.896357648	NA	1	0	1.51	1	189.685344098	189.689250895	"4"	8482.772331692	8477.260673129	1.5	0.1
0.01	1	0.0630586799998127	1	51	193.896357648	NA	1	0	1.51	1	189.919182978	189.982241658	"4"	8482.772331692	8477.260673129	1.5	0.1
0.01	1	0.00199177900049108	1	51	193.896357648	NA	1	0	1.51	1	190.219603467	190.221595246	"4"	8482.772331692	8477.260673129	1.5	0.1
0.01	1	0.137304115000006	1	51	193.896357648	NA	1	0	1.51	1	190.453300541	190.590604656	"4"	8482.772331692	8477.260673129	1.5	0.1
0.01	1	0.00267615699976886	1	51	193.896357648	NA	1	0	1.51	1	190.820557703	190.82323386	"4"	8482.772331692	8477.260673129	1.5	0.1
0.01	1	0.00804117300049256	1	51	193.896357648	NA	1	0	1.51	1	191.05432605	191.062367223	"4"	8482.772331692	8477.260673129	1.5	0.1
0.01	1	0.342128240999955	1	51	193.896357648	NA	1	0	1.51	1	191.287960628	191.630088869	"4"	8482.772331692	8477.260673129	1.5	0.1
0.01	1	0.10232484900007	1	51	193.896357648	NA	1	0	1.51	1	191.855684349	191.958009198	"4"	8482.772331692	8477.260673129	1.5	0.1
0.01	1	0.0251192929999888	1	51	193.896357648	NA	1	0	1.51	1	192.18958388	192.214703173	"4"	8482.772331692	8477.260673129	1.5	0.1
0.01	1	0.0385749229999419	1	51	193.896357648	NA	1	0	1.51	1	192.440032138	192.478607061	"4"	8482.772331692	8477.260673129	1.5	0.1
0.01	1	0.0502976549996674	1	51	193.896357648	NA	1	0	1.51	1	192.707068333	192.757365988	"4"	8482.772331692	8477.260673129	1.5	0.1
0.01	1	0.0393557269999292	1	51	193.896357648	NA	1	0	1.51	1	192.990925458	193.030281185	"4"	8482.772331692	8477.260673129	1.5	0.1
0.01	1	0.0442281969999385	1	51	193.896357648	NA	1	0	1.51	1	193.258081673	193.30230987	"4"	8482.772331692	8477.260673129	1.5	0.1
0.01	1	0.024650553000356	1	51	193.896357648	NA	1	0	1.51	1	193.525088758	193.549739311	"4"	8482.772331692	8477.260673129	1.5	0.1
0.01	1	0.00690561500050535	1	51	193.896357648	NA	1	0	1.51	1	193.77560141	193.782507025	"4"	8482.772331692	8477.260673129	1.5	0.1
0.01	1	0.00391735799985327	1	116	NA	214.718482161	0	0.48	1.99	1	195.945897033	195.949814391	"5"	8482.772331692	8477.260673129	1.5	0.1
0.01	1	0.0815707430001567	1	116	NA	214.718482161	0	0.48	1.99	1	196.179615118	196.261185861	"5"	8482.772331692	8477.260673129	1.5	0.1
0.01	1	0.00202800100032619	1	116	NA	214.718482161	0	0.48	1.99	1	196.496781698	196.498809699	"5"	8482.772331692	8477.260673129	1.5	0.1
0.01	1	0.122931685999902	1	116	NA	214.718482161	0	0.48	1.99	1	196.730496225	196.853427911	"5"	8482.772331692	8477.260673129	1.5	0.1
0.01	1	0.00318710999999894	1	116	NA	214.718482161	0	0.48	1.99	1	197.081085853	197.084272963	"5"	8482.772331692	8477.260673129	1.5	0.1
0.01	1	0.002192926999669	1	116	NA	214.718482161	0	0.48	1.99	1	197.314859598	197.317052525	"5"	8482.772331692	8477.260673129	1.5	0.1
0.01	1	0.113448905000041	1	116	NA	214.718482161	0	0.48	1.99	1	197.54857846	197.662027365	"5"	8482.772331692	8477.260673129	1.5	0.1
0.01	1	0.00233398700038379	1	116	NA	214.718482161	0	0.48	1.99	1	197.899261103	197.90159509	"5"	8482.772331692	8477.260673129	1.5	0.1
0.01	1	0.00376253400008864	1	116	NA	214.718482161	0	0.48	1.99	1	198.132907265	198.136669799	"5"	8482.772331692	8477.260673129	1.5	0.1
0.01	1	0.0865949299995918	1	116	NA	214.718482161	0	0.48	1.99	1	198.366652818	198.453247748	"5"	8482.772331692	8477.260673129	1.5	0.1
0.01	1	0.00256783999975596	1	116	NA	214.718482161	0	0.48	1.99	1	198.683898543	198.686466383	"5"	8482.772331692	8477.260673129	1.5	0.1
0.01	1	0.0020772380003109	1	116	NA	214.718482161	0	0.48	1.99	1	198.917666111	198.919743349	"5"	8482.772331692	8477.260673129	1.5	0.1
0.01	1	0.00257665899971471	1	116	NA	214.718482161	0	0.48	1.99	1	199.151227687	199.153804346	"5"	8482.772331692	8477.260673129	1.5	0.1
0.01	1	0.00200942900028167	1	116	NA	214.718482161	0	0.48	1.99	1	199.385024378	199.387033807	"5"	8482.772331692	8477.260673129	1.5	0.1
0.01	1	0.00398950900034833	1	116	NA	214.718482161	0	0.48	1.99	1	199.61869608	199.622685589	"5"	8482.772331692	8477.260673129	1.5	0.1
0.01	1	0.193086139000116	1	116	NA	214.718482161	0	0.48	1.99	1	199.852566468	200.045652607	"5"	8482.772331692	8477.260673129	1.5	0.1
0.01	1	0.52790584000013	1	116	NA	214.718482161	0	0.48	1.99	1	200.269876443	200.797782283	"5"	8482.772331692	8477.260673129	1.5	0.1
0.01	1	0.399883685000532	1	116	NA	214.718482161	0	0.48	1.99	1	201.021167018	201.421050703	"5"	8482.772331692	8477.260673129	1.5	0.1
0.01	1	0.317847203000383	1	116	NA	214.718482161	0	0.48	1.99	1	201.655526253	201.973373456	"5"	8482.772331692	8477.260673129	1.5	0.1
0.01	1	0.263816243999827	1	116	NA	214.718482161	0	0.48	1.99	1	202.206450273	202.470266517	"5"	8482.772331692	8477.260673129	1.5	0.1
0.01	1	0.201763368000684	1	116	NA	214.718482161	0	0.48	1.99	1	202.707249638	202.909013006	"5"	8482.772331692	8477.260673129	1.5	0.1
0.01	1	0.224686805000601	1	116	NA	214.718482161	0	0.48	1.99	1	203.141314838	203.366001643	"5"	8482.772331692	8477.260673129	1.5	0.1
0.01	1	0.15823042700049	1	116	NA	214.718482161	0	0.48	1.99	1	203.59212812	203.750358547	"5"	8482.772331692	8477.260673129	1.5	0.1
0.01	1	0.133649856999909	1	116	NA	214.718482161	0	0.48	1.99	1	203.976082565	204.109732422	"5"	8482.772331692	8477.260673129	1.5	0.1
0.01	1	0.12671006400069	1	116	NA	214.718482161	0	0.48	1.99	1	204.34328115	204.469991214	"5"	8482.772331692	8477.260673129	1.5	0.1
0.01	1	0.14278366400049	1	116	NA	214.718482161	0	0.48	1.99	1	204.693957068	204.836740732	"5"	8482.772331692	8477.260673129	1.5	0.1
0.01	1	0.113484973000595	1	116	NA	214.718482161	0	0.48	1.99	1	205.061197728	205.174682701	"5"	8482.772331692	8477.260673129	1.5	0.1
0.01	1	0.0908527139999933	1	116	NA	214.718482161	0	0.48	1.99	1	205.411780783	205.502633497	"5"	8482.772331692	8477.260673129	1.5	0.1
0.01	1	0.125544929000171	1	116	NA	214.718482161	0	0.48	1.99	1	205.72901491	205.854559839	"5"	8482.772331692	8477.260673129	1.5	0.1
0.01	1	0.358960990000014	1	116	NA	214.718482161	0	0.48	1.99	1	206.079611883	206.438572873	"5"	8482.772331692	8477.260673129	1.5	0.1
0.01	1	0.228943932999755	1	116	NA	214.718482161	0	0.48	1.99	1	206.663937362	206.892881295	"5"	8482.772331692	8477.260673129	1.5	0.1
0.01	1	0.187111324000398	1	116	NA	214.718482161	0	0.48	1.99	1	207.114592987	207.301704311	"5"	8482.772331692	8477.260673129	1.5	0.1
0.01	1	0.177646217999609	1	116	NA	214.718482161	0	0.48	1.99	1	207.531938553	207.709584771	"5"	8482.772331692	8477.260673129	1.5	0.1
0.01	1	0.224080351999874	1	116	NA	214.718482161	0	0.48	1.99	1	207.932674613	208.156754965	"5"	8482.772331692	8477.260673129	1.5	0.1
0.01	1	0.199406109999472	1	116	NA	214.718482161	0	0.48	1.99	1	208.383516668	208.582922778	"5"	8482.772331692	8477.260673129	1.5	0.1
0.01	1	0.155778049999753	1	116	NA	214.718482161	0	0.48	1.99	1	208.817664178	208.973442228	"5"	8482.772331692	8477.260673129	1.5	0.1
0.01	1	0.188322496999717	1	116	NA	214.718482161	0	0.48	1.99	1	209.201553248	209.389875745	"5"	8482.772331692	8477.260673129	1.5	0.1
0.01	1	0.315023641999687	1	116	NA	214.718482161	0	0.48	1.99	1	209.618814903	209.933838545	"5"	8482.772331692	8477.260673129	1.5	0.1
0.01	1	0.259862989999419	1	116	NA	214.718482161	0	0.48	1.99	1	210.169846108	210.429709098	"5"	8482.772331692	8477.260673129	1.5	0.1
0.01	1	0.192265528999997	1	116	NA	214.718482161	0	0.48	1.99	1	210.653947628	210.846213157	"5"	8482.772331692	8477.260673129	1.5	0.1
0.01	1	0.157439865000015	1	116	NA	214.718482161	0	0.48	1.99	1	211.071291195	211.22873106	"5"	8482.772331692	8477.260673129	1.5	0.1
0.01	1	0.214503156000319	1	116	NA	214.718482161	0	0.48	1.99	1	211.455273985	211.669777141	"5"	8482.772331692	8477.260673129	1.5	0.1
0.01	1	0.194969148999917	1	116	NA	214.718482161	0	0.48	1.99	1	211.906100939	212.101070088	"5"	8482.772331692	8477.260673129	1.5	0.1
0.01	1	0.234389317000023	1	116	NA	214.718482161	0	0.48	1.99	1	212.323370145	212.557759462	"5"	8482.772331692	8477.260673129	1.5	0.1
0.01	1	0.198401693999585	1	116	NA	214.718482161	0	0.48	1.99	1	212.790967158	212.989368852	"5"	8482.772331692	8477.260673129	1.5	0.1
0.01	1	0.085101697999562	1	116	NA	214.718482161	0	0.48	1.99	1	213.224946813	213.310048511	"5"	8482.772331692	8477.260673129	1.5	0.1
0.01	1	0.135494051000023	1	116	NA	214.718482161	0	0.48	1.99	1	213.54215095	213.677645001	"5"	8482.772331692	8477.260673129	1.5	0.1
0.01	1	0.0573793350004053	1	116	NA	214.718482161	0	0.48	1.99	1	213.909447773	213.966827108	"5"	8482.772331692	8477.260673129	1.5	0.1
0.01	1	0.523678743999881	2	116	NA	214.718482161	0	0.48	1.99	1	214.193274952	214.716953696	"5"	8482.772331692	8477.260673129	1.5	0.1
0.01	1	0.809688510999877	1	118	NA	242.97486464	0	0.51	2.5	1	216.764221338	217.573909849	"6"	8482.772331692	8477.260673129	1.5	0.1
0.01	1	0.294253807999667	1	118	NA	242.97486464	0	0.51	2.5	1	217.799397703	218.093651511	"6"	8482.772331692	8477.260673129	1.5	0.1
0.01	1	0.144267173000117	1	118	NA	242.97486464	0	0.51	2.5	1	218.333489748	218.477756921	"6"	8482.772331692	8477.260673129	1.5	0.1
0.01	1	0.224929809999594	1	118	NA	242.97486464	0	0.51	2.5	1	218.700833408	218.925763218	"6"	8482.772331692	8477.260673129	1.5	0.1
0.01	1	0.151112569999896	1	118	NA	242.97486464	0	0.51	2.5	1	219.151564922	219.302677492	"6"	8482.772331692	8477.260673129	1.5	0.1
0.01	1	0.1750059219994	1	118	NA	242.97486464	0	0.51	2.5	1	219.535590823	219.710596745	"6"	8482.772331692	8477.260673129	1.5	0.1
0.01	1	0.189754142999845	1	118	NA	242.97486464	0	0.51	2.5	1	219.936226158	220.125980301	"6"	8482.772331692	8477.260673129	1.5	0.1
0.01	1	0.195464801999151	1	118	NA	242.97486464	0	0.51	2.5	1	220.353600985	220.549065787	"6"	8482.772331692	8477.260673129	1.5	0.1
0.01	1	0.27479994299938	1	118	NA	242.97486464	0	0.51	2.5	1	220.770951825	221.045751768	"6"	8482.772331692	8477.260673129	1.5	0.1
0.01	1	0.246400477999487	1	118	NA	242.97486464	0	0.51	2.5	1	221.271939473	221.518339951	"6"	8482.772331692	8477.260673129	1.5	0.1
0.01	1	0.178686683999331	1	118	NA	242.97486464	0	0.51	2.5	1	221.756071603	221.934758287	"6"	8482.772331692	8477.260673129	1.5	0.1
0.01	1	0.224713340000562	1	118	NA	242.97486464	0	0.51	2.5	1	222.156635963	222.381349303	"6"	8482.772331692	8477.260673129	1.5	0.1
0.01	1	0.158145915999739	1	118	NA	242.97486464	0	0.51	2.5	1	222.607406893	222.765552809	"6"	8482.772331692	8477.260673129	1.5	0.1
0.01	1	0.174272097000539	1	118	NA	242.97486464	0	0.51	2.5	1	222.991369513	223.16564161	"6"	8482.772331692	8477.260673129	1.5	0.1
0.01	1	0.164988690999962	1	118	NA	242.97486464	0	0.51	2.5	1	223.392010778	223.556999469	"6"	8482.772331692	8477.260673129	1.5	0.1
0.01	1	0.155954682999436	1	118	NA	242.97486464	0	0.51	2.5	1	223.792746928	223.948701611	"6"	8482.772331692	8477.260673129	1.5	0.1
0.01	1	0.172166528999696	1	118	NA	242.97486464	0	0.51	2.5	1	224.176737973	224.348904502	"6"	8482.772331692	8477.260673129	1.5	0.1
0.01	1	0.17240279500038	1	118	NA	242.97486464	0	0.51	2.5	1	224.577379955	224.74978275	"6"	8482.772331692	8477.260673129	1.5	0.1
0.01	1	0.147353383000336	1	118	NA	242.97486464	0	0.51	2.5	1	224.97795446	225.125307843	"6"	8482.772331692	8477.260673129	1.5	0.1
0.01	1	0.155838343999676	1	118	NA	242.97486464	0	0.51	2.5	1	225.362119763	225.517958107	"6"	8482.772331692	8477.260673129	1.5	0.1
0.01	1	0.204679763000058	1	118	NA	242.97486464	0	0.51	2.5	1	225.746033098	225.950712861	"6"	8482.772331692	8477.260673129	1.5	0.1
0.01	1	0.201779017999797	1	118	NA	242.97486464	0	0.51	2.5	1	226.18003147	226.381810488	"6"	8482.772331692	8477.260673129	1.5	0.1
0.01	1	0.302973011000176	1	118	NA	242.97486464	0	0.51	2.5	1	226.6141587	226.917131711	"6"	8482.772331692	8477.260673129	1.5	0.1
0.01	1	0.192936618000203	1	118	NA	242.97486464	0	0.51	2.5	1	227.148395503	227.341332121	"6"	8482.772331692	8477.260673129	1.5	0.1
0.01	1	0.288341583000147	1	118	NA	242.97486464	0	0.51	2.5	1	227.565691103	227.854032686	"6"	8482.772331692	8477.260673129	1.5	0.1
0.01	1	0.25883489700027	1	118	NA	242.97486464	0	0.51	2.5	1	228.083260863	228.34209576	"6"	8482.772331692	8477.260673129	1.5	0.1
0.01	1	0.207237403999898	1	118	NA	242.97486464	0	0.51	2.5	1	228.567490165	228.774727569	"6"	8482.772331692	8477.260673129	1.5	0.1
0.01	1	0.181011703999502	1	118	NA	242.97486464	0	0.51	2.5	1	229.001462868	229.182474572	"6"	8482.772331692	8477.260673129	1.5	0.1
0.01	1	0.314009270000497	1	118	NA	242.97486464	0	0.51	2.5	1	229.418852938	229.732862208	"6"	8482.772331692	8477.260673129	1.5	0.1
0.01	1	0.308662513999479	1	118	NA	242.97486464	0	0.51	2.5	1	229.969872298	230.278534812	"6"	8482.772331692	8477.260673129	1.5	0.1
0.01	1	0.278298449999966	1	118	NA	242.97486464	0	0.51	2.5	1	230.50402855	230.782327	"6"	8482.772331692	8477.260673129	1.5	0.1
0.01	1	0.248175224000079	1	118	NA	242.97486464	0	0.51	2.5	1	231.004904148	231.253079372	"6"	8482.772331692	8477.260673129	1.5	0.1
0.01	1	0.309112011999787	1	118	NA	242.97486464	0	0.51	2.5	1	231.48903062	231.798142632	"6"	8482.772331692	8477.260673129	1.5	0.1
0.01	1	0.222998731000189	1	118	NA	242.97486464	0	0.51	2.5	1	232.023266648	232.246265379	"6"	8482.772331692	8477.260673129	1.5	0.1
0.01	1	0.291914294999515	1	118	NA	242.97486464	0	0.51	2.5	1	232.474054758	232.765969053	"6"	8482.772331692	8477.260673129	1.5	0.1
0.01	1	0.294341251999867	1	118	NA	242.97486464	0	0.51	2.5	1	232.991554883	233.285896135	"6"	8482.772331692	8477.260673129	1.5	0.1
0.01	1	0.344503649000217	1	118	NA	242.97486464	0	0.51	2.5	1	233.525774998	233.870278647	"6"	8482.772331692	8477.260673129	1.5	0.1
0.01	1	0.335782938000193	1	118	NA	242.97486464	0	0.51	2.5	1	234.093430095	234.429213033	"6"	8482.772331692	8477.260673129	1.5	0.1
0.01	1	0.321244368000407	1	118	NA	242.97486464	0	0.51	2.5	1	234.66098834	234.982232708	"6"	8482.772331692	8477.260673129	1.5	0.1
0.01	1	1.09835024899985	1	118	NA	242.97486464	0	0.51	2.5	1	235.21199746	236.310347709	"6"	8482.772331692	8477.260673129	1.5	0.1
0.01	1	0.322986038000636	1	118	NA	242.97486464	0	0.51	2.5	1	236.547561365	236.870547403	"6"	8482.772331692	8477.260673129	1.5	0.1
0.01	1	0.306861351000407	1	118	NA	242.97486464	0	0.51	2.5	1	237.09842743	237.405288781	"6"	8482.772331692	8477.260673129	1.5	0.1
0.01	1	0.38079639300031	1	118	NA	242.97486464	0	0.51	2.5	1	237.632625018	238.013421411	"6"	8482.772331692	8477.260673129	1.5	0.1
0.01	1	0.371165547000601	1	118	NA	242.97486464	0	0.51	2.5	1	238.250473128	238.621638675	"6"	8482.772331692	8477.260673129	1.5	0.1
0.01	1	0.298315166000066	1	118	NA	242.97486464	0	0.51	2.5	1	238.8513628	239.149677966	"6"	8482.772331692	8477.260673129	1.5	0.1
0.01	1	0.267583135000677	1	118	NA	242.97486464	0	0.51	2.5	1	239.385628683	239.653211818	"6"	8482.772331692	8477.260673129	1.5	0.1
0.01	1	0.271606983999845	1	118	NA	242.97486464	0	0.51	2.5	1	239.886494613	240.158101597	"6"	8482.772331692	8477.260673129	1.5	0.1
0.01	1	0.321695027000715	1	118	NA	242.97486464	0	0.51	2.5	1	240.387341821	240.709036848	"6"	8482.772331692	8477.260673129	1.5	0.1
0.01	1	0.308202416999848	1	118	NA	242.97486464	0	0.51	2.5	1	240.938228399	241.246430816	"6"	8482.772331692	8477.260673129	1.5	0.1
0.01	1	0.348445196999819	1	118	NA	242.97486464	0	0.51	2.5	1	241.47249406	241.820939257	"6"	8482.772331692	8477.260673129	1.5	0.1
0.01	1	0.317454967000231	1	118	NA	242.97486464	0	0.51	2.5	1	242.056837423	242.37429239	"6"	8482.772331692	8477.260673129	1.5	0.1
0.01	1	0.365646903999732	2	118	NA	242.97486464	0	0.51	2.5	1	242.607663245	242.973310149	"6"	8482.772331692	8477.260673129	1.5	0.1
0.01	1	0.0024074089997157	1	87	NA	283.448245201	0	0.62	3.12	1	245.011847581	245.01425499	"7"	8482.772331692	8477.260673129	1.5	0.1
0.01	1	0.328339396999581	1	87	NA	283.448245201	0	0.62	3.12	1	245.245422938	245.573762335	"7"	8482.772331692	8477.260673129	1.5	0.1
0.01	1	0.337476577999951	1	87	NA	283.448245201	0	0.62	3.12	1	245.813187758	246.150664336	"7"	8482.772331692	8477.260673129	1.5	0.1
0.01	1	0.161611371000618	1	87	NA	283.448245201	0	0.62	3.12	1	246.380777308	246.542388679	"7"	8482.772331692	8477.260673129	1.5	0.1
0.01	1	0.201355525000508	1	87	NA	283.448245201	0	0.62	3.12	1	246.764760329	246.966115854	"7"	8482.772331692	8477.260673129	1.5	0.1
0.01	1	0.247065376999672	1	87	NA	283.448245201	0	0.62	3.12	1	247.198832743	247.44589812	"7"	8482.772331692	8477.260673129	1.5	0.1
0.01	1	0.227513711999563	1	87	NA	283.448245201	0	0.62	3.12	1	247.682954013	247.910467725	"7"	8482.772331692	8477.260673129	1.5	0.1
0.01	1	0.224175440999716	1	87	NA	283.448245201	0	0.62	3.12	1	248.13360738	248.357782821	"7"	8482.772331692	8477.260673129	1.5	0.1
0.01	1	0.236643987000207	1	87	NA	283.448245201	0	0.62	3.12	1	248.584429908	248.821073895	"7"	8482.772331692	8477.260673129	1.5	0.1
0.01	1	0.233121780000147	1	87	NA	283.448245201	0	0.62	3.12	1	249.05188316	249.28500494	"7"	8482.772331692	8477.260673129	1.5	0.1
0.01	1	0.29554137499963	1	87	NA	283.448245201	0	0.62	3.12	1	249.51939778	249.814939155	"7"	8482.772331692	8477.260673129	1.5	0.1
0.01	1	0.224295891999645	1	87	NA	283.448245201	0	0.62	3.12	1	250.036886685	250.261182577	"7"	8482.772331692	8477.260673129	1.5	0.1
0.01	1	0.206568278999839	1	87	NA	283.448245201	0	0.62	3.12	1	250.487588168	250.694156447	"7"	8482.772331692	8477.260673129	1.5	0.1
0.01	1	0.244471380000505	1	87	NA	283.448245201	0	0.62	3.12	1	250.921800583	251.166271963	"7"	8482.772331692	8477.260673129	1.5	0.1
0.01	1	0.255871376999494	1	87	NA	283.448245201	0	0.62	3.12	1	251.389170413	251.64504179	"7"	8482.772331692	8477.260673129	1.5	0.1
0.01	1	0.308009559999846	1	87	NA	283.448245201	0	0.62	3.12	1	251.873308288	252.181317848	"7"	8482.772331692	8477.260673129	1.5	0.1
0.01	1	0.20568768800058	1	87	NA	283.448245201	0	0.62	3.12	1	252.407489273	252.613176961	"7"	8482.772331692	8477.260673129	1.5	0.1
0.01	1	0.340552468000169	1	87	NA	283.448245201	0	0.62	3.12	1	252.841679218	253.182231686	"7"	8482.772331692	8477.260673129	1.5	0.1
0.01	1	0.364465972999824	1	87	NA	283.448245201	0	0.62	3.12	1	253.409251668	253.773717641	"7"	8482.772331692	8477.260673129	1.5	0.1
0.01	1	0.307492273000207	1	87	NA	283.448245201	0	0.62	3.12	1	254.010250438	254.317742711	"7"	8482.772331692	8477.260673129	1.5	0.1
0.01	1	0.365692525999293	1	87	NA	283.448245201	0	0.62	3.12	1	254.544396033	254.910088559	"7"	8482.772331692	8477.260673129	1.5	0.1
0.01	1	0.339581754000392	1	87	NA	283.448245201	0	0.62	3.12	1	255.145418345	255.485000099	"7"	8482.772331692	8477.260673129	1.5	0.1
0.01	1	0.356501743000081	1	87	NA	283.448245201	0	0.62	3.12	1	255.713054838	256.069556581	"7"	8482.772331692	8477.260673129	1.5	0.1
0.01	1	0.332299865000095	1	87	NA	283.448245201	0	0.62	3.12	1	256.297465685	256.62976555	"7"	8482.772331692	8477.260673129	1.5	0.1
0.01	1	0.357281280999814	1	87	NA	283.448245201	0	0.62	3.12	1	256.864992209	257.22227349	"7"	8482.772331692	8477.260673129	1.5	0.1
0.01	1	0.387953409999682	1	87	NA	283.448245201	0	0.62	3.12	1	257.449373663	257.837327073	"7"	8482.772331692	8477.260673129	1.5	0.1
0.01	1	0.378708270000061	1	87	NA	283.448245201	0	0.62	3.12	1	258.066989881	258.445698151	"7"	8482.772331692	8477.260673129	1.5	0.1
0.01	1	0.312756393999734	1	87	NA	283.448245201	0	0.62	3.12	1	258.668119995	258.980876389	"7"	8482.772331692	8477.260673129	1.5	0.1
0.01	1	0.282579628999883	1	87	NA	283.448245201	0	0.62	3.12	1	259.218996218	259.501575847	"7"	8482.772331692	8477.260673129	1.5	0.1
0.01	1	0.293784106000203	1	87	NA	283.448245201	0	0.62	3.12	1	259.736638958	260.030423064	"7"	8482.772331692	8477.260673129	1.5	0.1
0.01	1	0.279027422999206	1	87	NA	283.448245201	0	0.62	3.12	1	260.253988905	260.533016328	"7"	8482.772331692	8477.260673129	1.5	0.1
0.01	1	0.346716779999952	1	87	NA	283.448245201	0	0.62	3.12	1	260.754988808	261.101705588	"7"	8482.772331692	8477.260673129	1.5	0.1
0.01	1	0.259532353000395	1	87	NA	283.448245201	0	0.62	3.12	1	261.339169068	261.598701421	"7"	8482.772331692	8477.260673129	1.5	0.1
0.01	1	0.326990723000563	1	87	NA	283.448245201	0	0.62	3.12	1	261.823445063	262.150435786	"7"	8482.772331692	8477.260673129	1.5	0.1
0.01	1	0.382828339000298	1	87	NA	283.448245201	0	0.62	3.12	1	262.374241373	262.757069712	"7"	8482.772331692	8477.260673129	1.5	0.1
0.01	1	0.318453478000265	1	87	NA	283.448245201	0	0.62	3.12	1	262.992081873	263.310535351	"7"	8482.772331692	8477.260673129	1.5	0.1
0.01	1	0.389960700999836	1	87	NA	283.448245201	0	0.62	3.12	1	263.54291085	263.932871551	"7"	8482.772331692	8477.260673129	1.5	0.1
0.01	1	0.388470965000124	1	87	NA	283.448245201	0	0.62	3.12	1	264.160740063	264.549211028	"7"	8482.772331692	8477.260673129	1.5	0.1
0.01	1	0.324343137000142	1	87	NA	283.448245201	0	0.62	3.12	1	264.778431388	265.102774525	"7"	8482.772331692	8477.260673129	1.5	0.1
0.01	1	0.339635274000102	1	87	NA	283.448245201	0	0.62	3.12	1	265.329294313	265.668929587	"7"	8482.772331692	8477.260673129	1.5	0.1
0.01	1	0.365086942000744	1	87	NA	283.448245201	0	0.62	3.12	1	265.896973663	266.262060605	"7"	8482.772331692	8477.260673129	1.5	0.1
0.01	1	0.354886826999973	1	87	NA	283.448245201	0	0.62	3.12	1	266.497980018	266.852866845	"7"	8482.772331692	8477.260673129	1.5	0.1
0.01	1	1.21995726500063	1	87	NA	283.448245201	0	0.62	3.12	1	267.082261928	268.302219193	"7"	8482.772331692	8477.260673129	1.5	0.1
0.01	1	0.255486695999934	1	87	NA	283.448245201	0	0.62	3.12	1	268.534594263	268.790080959	"7"	8482.772331692	8477.260673129	1.5	0.1
0.01	1	0.267579131000275	1	87	NA	283.448245201	0	0.62	3.12	1	269.018794875	269.286374006	"7"	8482.772331692	8477.260673129	1.5	0.1
0.01	1	0.301929790000031	1	87	NA	283.448245201	0	0.62	3.12	1	269.519671248	269.821601038	"7"	8482.772331692	8477.260673129	1.5	0.1
0.01	1	0.303259170000274	1	87	NA	283.448245201	0	0.62	3.12	1	270.054001978	270.357261148	"7"	8482.772331692	8477.260673129	1.5	0.1
0.01	1	0.289304021000135	1	87	NA	283.448245201	0	0.62	3.12	1	270.58808399	270.877388011	"7"	8482.772331692	8477.260673129	1.5	0.1
0.01	1	0.291371524999704	1	87	NA	283.448245201	0	0.62	3.12	1	271.105722403	271.397093928	"7"	8482.772331692	8477.260673129	1.5	0.1
0.01	1	0.310523993000061	1	87	NA	283.448245201	0	0.62	3.12	1	271.623242848	271.933766841	"7"	8482.772331692	8477.260673129	1.5	0.1
0.01	1	0.399725790000048	1	87	NA	283.448245201	0	0.62	3.12	1	272.157479923	272.557205713	"7"	8482.772331692	8477.260673129	1.5	0.1
0.01	1	0.677243677000661	1	87	NA	283.448245201	0	0.62	3.12	1	272.791843888	273.469087565	"7"	8482.772331692	8477.260673129	1.5	0.1
0.01	1	2.49736759299958	1	87	NA	283.448245201	0	0.62	3.12	1	273.693409685	276.190777278	"7"	8482.772331692	8477.260673129	1.5	0.1
0.01	1	0.319426521000423	1	87	NA	283.448245201	0	0.62	3.12	1	276.41470299	276.734129511	"7"	8482.772331692	8477.260673129	1.5	0.1
0.01	1	0.320954499999971	1	87	NA	283.448245201	0	0.62	3.12	1	276.96562517	277.28657967	"7"	8482.772331692	8477.260673129	1.5	0.1
0.01	1	0.384977723000702	1	87	NA	283.448245201	0	0.62	3.12	1	277.516544863	277.901522586	"7"	8482.772331692	8477.260673129	1.5	0.1
0.01	1	0.376355200000035	1	87	NA	283.448245201	0	0.62	3.12	1	278.134279068	278.510634268	"7"	8482.772331692	8477.260673129	1.5	0.1
0.01	1	1.55004118200031	1	87	NA	283.448245201	0	0.62	3.12	1	278.735199068	280.28524025	"7"	8482.772331692	8477.260673129	1.5	0.1
0.01	1	0.324613179000153	1	87	NA	283.448245201	0	0.62	3.12	1	280.521484485	280.846097664	"7"	8482.772331692	8477.260673129	1.5	0.1
0.01	1	0.485530183000265	1	87	NA	283.448245201	0	0.62	3.12	1	281.072458008	281.557988191	"7"	8482.772331692	8477.260673129	1.5	0.1
0.01	1	0.582733180999639	1	87	NA	283.448245201	0	0.62	3.12	1	281.790301308	282.373034489	"7"	8482.772331692	8477.260673129	1.5	0.1
0.01	1	0.268826900000022	1	87	NA	283.448245201	0	0.62	3.12	1	282.608381133	282.877208033	"7"	8482.772331692	8477.260673129	1.5	0.1
0.01	1	0.33737539699996	2	87	NA	283.448245201	0	0.62	3.12	1	283.10926772	283.446643117	"7"	8482.772331692	8477.260673129	1.5	0.1
0.01	1	0.533996871999989	1	6	287.93706932	NA	1	0	3.12	1	285.496540685	286.030537557	"8"	8482.772331692	8477.260673129	1.5	0.1
0.01	1	0.157482696999978	1	6	287.93706932	NA	1	0	3.12	1	286.264525883	286.42200858	"8"	8482.772331692	8477.260673129	1.5	0.1
0.01	1	0.172835950000263	1	6	287.93706932	NA	1	0	3.12	1	286.648449898	286.821285848	"8"	8482.772331692	8477.260673129	1.5	0.1
0.01	1	0.116460227999596	1	6	287.93706932	NA	1	0	3.12	1	287.049218803	287.165679031	"8"	8482.772331692	8477.260673129	1.5	0.1
0.01	1	0.0860809710002286	1	6	287.93706932	NA	1	0	3.12	1	287.39972484	287.485805811	"8"	8482.772331692	8477.260673129	1.5	0.1
0.01	1	0.112842075999652	1	6	287.93706932	NA	1	0	3.12	1	287.71687639	287.829718466	"8"	8482.772331692	8477.260673129	1.5	0.1
0.01	1	0.31505019100041	1	106	NA	322.857545527	0	0.52	3.64	1	289.98747156	290.302521751	"9"	8482.772331692	8477.260673129	1.5	0.1
0.01	1	0.154622218000441	1	106	NA	322.857545527	0	0.52	3.64	1	290.538365398	290.692987616	"9"	8482.772331692	8477.260673129	1.5	0.1
0.01	1	0.139259047999985	1	106	NA	322.857545527	0	0.52	3.64	1	290.922343346	291.061602394	"9"	8482.772331692	8477.260673129	1.5	0.1
0.01	1	0.124457040000379	1	106	NA	322.857545527	0	0.52	3.64	1	291.289568761	291.414025801	"9"	8482.772331692	8477.260673129	1.5	0.1
0.01	1	0.125298670999655	1	106	NA	322.857545527	0	0.52	3.64	1	291.640185463	291.765484134	"9"	8482.772331692	8477.260673129	1.5	0.1
0.01	1	0.135676687999876	1	106	NA	322.857545527	0	0.52	3.64	1	291.990789383	292.126466071	"9"	8482.772331692	8477.260673129	1.5	0.1
0.01	1	0.158643402000052	1	106	NA	322.857545527	0	0.52	3.64	1	292.35808575	292.516729152	"9"	8482.772331692	8477.260673129	1.5	0.1
0.01	1	0.248124994000136	1	106	NA	322.857545527	0	0.52	3.64	1	292.742145503	292.990270497	"9"	8482.772331692	8477.260673129	1.5	0.1
0.01	1	0.148131465999541	1	106	NA	322.857545527	0	0.52	3.64	1	293.22621768	293.374349146	"9"	8482.772331692	8477.260673129	1.5	0.1
0.01	1	0.171527407999747	1	106	NA	322.857545527	0	0.52	3.64	1	293.610164833	293.781692241	"9"	8482.772331692	8477.260673129	1.5	0.1
0.01	1	0.275016458000209	1	106	NA	322.857545527	0	0.52	3.64	1	294.01085342	294.285869878	"9"	8482.772331692	8477.260673129	1.5	0.1
0.01	1	0.181675484000152	1	106	NA	322.857545527	0	0.52	3.64	1	294.511753463	294.693428947	"9"	8482.772331692	8477.260673129	1.5	0.1
0.01	1	0.229524733999824	1	106	NA	322.857545527	0	0.52	3.64	1	294.92912563	295.158650364	"9"	8482.772331692	8477.260673129	1.5	0.1
0.01	1	0.282150408999769	1	106	NA	322.857545527	0	0.52	3.64	1	295.396491126	295.678641535	"9"	8482.772331692	8477.260673129	1.5	0.1
0.01	1	0.227494485000534	1	106	NA	322.857545527	0	0.52	3.64	1	295.914163113	296.141657598	"9"	8482.772331692	8477.260673129	1.5	0.1
0.01	1	0.273596234000252	1	106	NA	322.857545527	0	0.52	3.64	1	296.3648618	296.638458034	"9"	8482.772331692	8477.260673129	1.5	0.1
0.01	1	0.260561834999862	1	106	NA	322.857545527	0	0.52	3.64	1	296.86576607	297.126327905	"9"	8482.772331692	8477.260673129	1.5	0.1
0.01	1	0.286910178999278	1	106	NA	322.857545527	0	0.52	3.64	1	297.366625569	297.653535748	"9"	8482.772331692	8477.260673129	1.5	0.1
0.01	1	0.385071779999635	1	106	NA	322.857545527	0	0.52	3.64	1	297.884118678	298.269190458	"9"	8482.772331692	8477.260673129	1.5	0.1
0.01	1	0.416011626	1	106	NA	322.857545527	0	0.52	3.64	1	298.50184822	298.917859846	"9"	8482.772331692	8477.260673129	1.5	0.1
0.01	1	0.389850184999887	1	106	NA	322.857545527	0	0.52	3.64	1	299.152806423	299.542656608	"9"	8482.772331692	8477.260673129	1.5	0.1
0.01	1	0.347842849000699	1	106	NA	322.857545527	0	0.52	3.64	1	299.770568413	300.118411262	"9"	8482.772331692	8477.260673129	1.5	0.1
0.01	1	0.323637984000015	1	106	NA	322.857545527	0	0.52	3.64	1	300.354867803	300.678505787	"9"	8482.772331692	8477.260673129	1.5	0.1
0.01	1	0.379150589999881	1	106	NA	322.857545527	0	0.52	3.64	1	300.905848648	301.284999238	"9"	8482.772331692	8477.260673129	1.5	0.1
0.01	1	0.435777477000556	1	106	NA	322.857545527	0	0.52	3.64	1	301.506790463	301.94256794	"9"	8482.772331692	8477.260673129	1.5	0.1
0.01	1	0.487624148999203	1	106	NA	322.857545527	0	0.52	3.64	1	302.174630258	302.662254407	"9"	8482.772331692	8477.260673129	1.5	0.1
0.01	1	0.314088318000358	1	106	NA	322.857545527	0	0.52	3.64	1	302.892550373	303.206638691	"9"	8482.772331692	8477.260673129	1.5	0.1
0.01	1	0.330842481999753	1	106	NA	322.857545527	0	0.52	3.64	1	303.443448328	303.77429081	"9"	8482.772331692	8477.260673129	1.5	0.1
0.01	1	0.298716600999796	1	106	NA	322.857545527	0	0.52	3.64	1	304.010948965	304.309665566	"9"	8482.772331692	8477.260673129	1.5	0.1
0.01	1	0.299681893000525	1	106	NA	322.857545527	0	0.52	3.64	1	304.545326668	304.845008561	"9"	8482.772331692	8477.260673129	1.5	0.1
0.01	1	0.334131743999933	1	106	NA	322.857545527	0	0.52	3.64	1	305.079594578	305.413726322	"9"	8482.772331692	8477.260673129	1.5	0.1
0.01	1	0.326116158000332	1	106	NA	322.857545527	0	0.52	3.64	1	305.64708986	305.973206018	"9"	8482.772331692	8477.260673129	1.5	0.1
0.01	1	0.351356930000293	1	106	NA	322.857545527	0	0.52	3.64	1	306.198084373	306.549441303	"9"	8482.772331692	8477.260673129	1.5	0.1
0.01	1	0.336585655000817	1	106	NA	322.857545527	0	0.52	3.64	1	306.782337305	307.11892296	"9"	8482.772331692	8477.260673129	1.5	0.1
0.01	1	0.319638842000131	1	106	NA	322.857545527	0	0.52	3.64	1	307.350026358	307.6696652	"9"	8482.772331692	8477.260673129	1.5	0.1
0.01	1	0.271909062999839	1	106	NA	322.857545527	0	0.52	3.64	1	307.900904963	308.172814026	"9"	8482.772331692	8477.260673129	1.5	0.1
0.01	1	0.355408354000247	1	106	NA	322.857545527	0	0.52	3.64	1	308.401749748	308.757158102	"9"	8482.772331692	8477.260673129	1.5	0.1
0.01	1	0.290869428000406	1	106	NA	322.857545527	0	0.52	3.64	1	308.986067369	309.276936797	"9"	8482.772331692	8477.260673129	1.5	0.1
0.01	1	0.318262065999988	1	106	NA	322.857545527	0	0.52	3.64	1	309.503617915	309.821879981	"9"	8482.772331692	8477.260673129	1.5	0.1
0.01	1	1.16665052799999	1	106	NA	322.857545527	0	0.52	3.64	1	310.05456375	311.221214278	"9"	8482.772331692	8477.260673129	1.5	0.1
0.01	1	3.89435811200019	1	106	NA	322.857545527	0	0.52	3.64	1	311.456957958	315.35131607	"9"	8482.772331692	8477.260673129	1.5	0.1
0.01	1	0.147606678000557	1	106	NA	322.857545527	0	0.52	3.64	1	315.58059463	315.728201308	"9"	8482.772331692	8477.260673129	1.5	0.1
0.01	1	0.347100900000441	1	106	NA	322.857545527	0	0.52	3.64	1	315.964546945	316.311647845	"9"	8482.772331692	8477.260673129	1.5	0.1
0.01	1	0.267446673999984	1	106	NA	322.857545527	0	0.52	3.64	1	316.548824345	316.816271019	"9"	8482.772331692	8477.260673129	1.5	0.1
0.01	1	0.325296928000171	1	106	NA	322.857545527	0	0.52	3.64	1	317.049657285	317.374954213	"9"	8482.772331692	8477.260673129	1.5	0.1
0.01	1	0.247584980000283	1	106	NA	322.857545527	0	0.52	3.64	1	317.600645453	317.848230433	"9"	8482.772331692	8477.260673129	1.5	0.1
0.01	1	0.21889276300044	1	106	NA	322.857545527	0	0.52	3.64	1	318.08481332	318.303706083	"9"	8482.772331692	8477.260673129	1.5	0.1
0.01	1	0.200179910999395	1	106	NA	322.857545527	0	0.52	3.64	1	318.535595303	318.735775214	"9"	8482.772331692	8477.260673129	1.5	0.1
0.01	1	0.326373204999982	1	106	NA	322.857545527	0	0.52	3.64	1	318.969611678	319.295984883	"9"	8482.772331692	8477.260673129	1.5	0.1
0.01	1	1.0879612789995	1	106	NA	322.857545527	0	0.52	3.64	1	319.520520033	320.608481312	"9"	8482.772331692	8477.260673129	1.5	0.1
0.01	1	0.47955974999968	1	106	NA	322.857545527	0	0.52	3.64	1	320.839318465	321.318878215	"9"	8482.772331692	8477.260673129	1.5	0.1
0.01	1	0.79511401200034	1	106	NA	322.857545527	0	0.52	3.64	1	321.540540256	322.335654268	"9"	8482.772331692	8477.260673129	1.5	0.1
0.01	1	0.297141462000582	2	106	NA	322.857545527	0	0.52	3.64	1	322.558871468	322.85601293	"9"	8482.772331692	8477.260673129	1.5	0.1
0.01	1	0.52763641599995	1	21	334.09796262	NA	1	0	3.64	1	324.912856653	325.440493069	"10"	8482.772331692	8477.260673129	1.5	0.1
0.01	1	0.183753633000379	1	21	334.09796262	NA	1	0	3.64	1	325.66412529	325.847878923	"10"	8482.772331692	8477.260673129	1.5	0.1
0.01	1	0.190730430999793	1	21	334.09796262	NA	1	0	3.64	1	326.081522632	326.272253063	"10"	8482.772331692	8477.260673129	1.5	0.1
0.01	1	0.228320432000146	1	21	334.09796262	NA	1	0	3.64	1	326.498857628	326.72717806	"10"	8482.772331692	8477.260673129	1.5	0.1
0.01	1	0.217370919999667	1	21	334.09796262	NA	1	0	3.64	1	326.949568348	327.166939268	"10"	8482.772331692	8477.260673129	1.5	0.1
0.01	1	0.240171360000204	1	21	334.09796262	NA	1	0	3.64	1	327.400474028	327.640645388	"10"	8482.772331692	8477.260673129	1.5	0.1
0.01	1	0.227712101999714	1	21	334.09796262	NA	1	0	3.64	1	327.867934363	328.095646465	"10"	8482.772331692	8477.260673129	1.5	0.1
0.01	1	0.176140308000868	1	21	334.09796262	NA	1	0	3.64	1	328.31862391	328.494764218	"10"	8482.772331692	8477.260673129	1.5	0.1
0.01	1	0.183355355000458	1	21	334.09796262	NA	1	0	3.64	1	328.719343598	328.902698953	"10"	8482.772331692	8477.260673129	1.5	0.1
0.01	1	0.126729933000206	1	21	334.09796262	NA	1	0	3.64	1	329.13668929	329.263419223	"10"	8482.772331692	8477.260673129	1.5	0.1
0.01	1	0.201292935000311	1	21	334.09796262	NA	1	0	3.64	1	329.487204518	329.688497453	"10"	8482.772331692	8477.260673129	1.5	0.1
0.01	1	0.181751232999886	1	21	334.09796262	NA	1	0	3.64	1	329.921274858	330.103026091	"10"	8482.772331692	8477.260673129	1.5	0.1
0.01	1	0.180746189999809	1	21	334.09796262	NA	1	0	3.64	1	330.338642068	330.519388258	"10"	8482.772331692	8477.260673129	1.5	0.1
0.01	1	0.164113601000281	1	21	334.09796262	NA	1	0	3.64	1	330.75606452	330.920178121	"10"	8482.772331692	8477.260673129	1.5	0.1
0.01	1	0.155711264999809	1	21	334.09796262	NA	1	0	3.64	1	331.156761023	331.312472288	"10"	8482.772331692	8477.260673129	1.5	0.1
0.01	1	0.210759775000042	1	21	334.09796262	NA	1	0	3.64	1	331.540673173	331.751432948	"10"	8482.772331692	8477.260673129	1.5	0.1
0.01	1	0.233563435000178	1	21	334.09796262	NA	1	0	3.64	1	331.974825568	332.208389003	"10"	8482.772331692	8477.260673129	1.5	0.1
0.01	1	0.21395254700019	1	21	334.09796262	NA	1	0	3.64	1	332.442395833	332.65634838	"10"	8482.772331692	8477.260673129	1.5	0.1
0.01	1	0.218615264000618	1	21	334.09796262	NA	1	0	3.64	1	332.892954933	333.111570197	"10"	8482.772331692	8477.260673129	1.5	0.1
0.01	1	0.223727809000593	1	21	334.09796262	NA	1	0	3.64	1	333.343797078	333.567524887	"10"	8482.772331692	8477.260673129	1.5	0.1
0.01	1	0.196618943999965	1	21	334.09796262	NA	1	0	3.64	1	333.794518985	333.991137929	"10"	8482.772331692	8477.260673129	1.5	0.1
0.01	1	0.37081334999948	1	19	343.931793588	NA	1	0	3.64	1	336.148476491	336.519289841	"11"	8482.772331692	8477.260673129	1.5	0.1
0.01	1	0.130407005000052	1	19	343.931793588	NA	1	0	3.64	1	336.749505543	336.879912548	"11"	8482.772331692	8477.260673129	1.5	0.1
0.01	1	0.114803755000139	1	19	343.931793588	NA	1	0	3.64	1	337.116753083	337.231556838	"11"	8482.772331692	8477.260673129	1.5	0.1
0.01	1	0.140290542000002	1	19	343.931793588	NA	1	0	3.64	1	337.467371258	337.6076618	"11"	8482.772331692	8477.260673129	1.5	0.1
0.01	1	0.180966750000152	1	19	343.931793588	NA	1	0	3.64	1	337.834609169	338.015575919	"11"	8482.772331692	8477.260673129	1.5	0.1
0.01	1	0.171347030000106	1	19	343.931793588	NA	1	0	3.64	1	338.252004848	338.423351878	"11"	8482.772331692	8477.260673129	1.5	0.1
0.01	1	0.171431209999355	1	19	343.931793588	NA	1	0	3.64	1	338.652717511	338.824148721	"11"	8482.772331692	8477.260673129	1.5	0.1
0.01	1	0.147014203000253	1	19	343.931793588	NA	1	0	3.64	1	339.053286548	339.200300751	"11"	8482.772331692	8477.260673129	1.5	0.1
0.01	1	0.17846961899977	1	19	343.931793588	NA	1	0	3.64	1	339.43738554	339.615855159	"11"	8482.772331692	8477.260673129	1.5	0.1
0.01	1	0.153450712999984	1	19	343.931793588	NA	1	0	3.64	1	339.854770238	340.008220951	"11"	8482.772331692	8477.260673129	1.5	0.1
0.01	1	0.296413166000093	1	19	343.931793588	NA	1	0	3.64	1	340.238688283	340.535101449	"11"	8482.772331692	8477.260673129	1.5	0.1
0.01	1	0.163545839999642	1	19	343.931793588	NA	1	0	3.64	1	340.77288811	340.93643395	"11"	8482.772331692	8477.260673129	1.5	0.1
0.01	1	0.161484739999651	1	19	343.931793588	NA	1	0	3.64	1	341.173571698	341.335056438	"11"	8482.772331692	8477.260673129	1.5	0.1
0.01	1	0.186556405999909	1	19	343.931793588	NA	1	0	3.64	1	341.557540433	341.744096839	"11"	8482.772331692	8477.260673129	1.5	0.1
0.01	1	0.168295442999806	1	19	343.931793588	NA	1	0	3.64	1	341.97487203	342.143167473	"11"	8482.772331692	8477.260673129	1.5	0.1
0.01	1	0.183238292999704	1	19	343.931793588	NA	1	0	3.64	1	342.375628928	342.558867221	"11"	8482.772331692	8477.260673129	1.5	0.1
0.01	1	0.18991038599961	1	19	343.931793588	NA	1	0	3.64	1	342.793051228	342.982961614	"11"	8482.772331692	8477.260673129	1.5	0.1
0.01	1	0.181741761000012	1	19	343.931793588	NA	1	0	3.64	1	343.210395588	343.392137349	"11"	8482.772331692	8477.260673129	1.5	0.1
0.01	1	0.195759005000582	1	19	343.931793588	NA	1	0	3.64	1	343.627714593	343.823473598	"11"	8482.772331692	8477.260673129	1.5	0.1
0.01	1	0.0910664699995323	1	63	385.651348058	NA	1	0	3.64	1	345.965017219	346.056083689	"12"	8482.772331692	8477.260673129	1.5	0.1
0.01	1	0.124712902999818	1	63	385.651348058	NA	1	0	3.64	1	346.282106203	346.406819106	"12"	8482.772331692	8477.260673129	1.5	0.1
0.01	1	0.0637710669998341	1	63	385.651348058	NA	1	0	3.64	1	346.63270674	346.696477807	"12"	8482.772331692	8477.260673129	1.5	0.1
0.01	1	0.13753808599995	1	63	385.651348058	NA	1	0	3.64	1	346.933305403	347.070843489	"12"	8482.772331692	8477.260673129	1.5	0.1
0.01	1	0.259915797000758	1	63	385.651348058	NA	1	0	3.64	1	347.300558843	347.56047464	"12"	8482.772331692	8477.260673129	1.5	0.1
0.01	1	0.167562450000332	1	63	385.651348058	NA	1	0	3.64	1	347.784685218	347.952247668	"12"	8482.772331692	8477.260673129	1.5	0.1
0.01	1	0.158302755000477	1	63	385.651348058	NA	1	0	3.64	1	348.185360148	348.343662903	"12"	8482.772331692	8477.260673129	1.5	0.1
0.01	1	0.166282991000116	1	63	385.651348058	NA	1	0	3.64	1	348.56934549	348.735628481	"12"	8482.772331692	8477.260673129	1.5	0.1
0.01	1	0.198237249999693	1	63	385.651348058	NA	1	0	3.64	1	348.970058593	349.168295843	"12"	8482.772331692	8477.260673129	1.5	0.1
0.01	1	0.171399654999732	1	63	385.651348058	NA	1	0	3.64	1	349.404091048	349.575490703	"12"	8482.772331692	8477.260673129	1.5	0.1
0.01	1	0.16365817499991	1	63	385.651348058	NA	1	0	3.64	1	349.804669614	349.968327789	"12"	8482.772331692	8477.260673129	1.5	0.1
0.01	1	0.209976223000012	1	63	385.651348058	NA	1	0	3.64	1	350.205485138	350.415461361	"12"	8482.772331692	8477.260673129	1.5	0.1
0.01	1	0.280829796000035	1	63	385.651348058	NA	1	0	3.64	1	350.639474413	350.920304209	"12"	8482.772331692	8477.260673129	1.5	0.1
0.01	1	0.291018808999979	1	63	385.651348058	NA	1	0	3.64	1	351.157110582	351.448129391	"12"	8482.772331692	8477.260673129	1.5	0.1
0.01	1	0.372945418000199	1	63	385.651348058	NA	1	0	3.64	1	351.67477359	352.047719008	"12"	8482.772331692	8477.260673129	1.5	0.1
0.01	1	0.316493501999503	1	63	385.651348058	NA	1	0	3.64	1	352.275500515	352.591994017	"12"	8482.772331692	8477.260673129	1.5	0.1
0.01	1	0.277523955000106	1	63	385.651348058	NA	1	0	3.64	1	352.826540973	353.104064928	"12"	8482.772331692	8477.260673129	1.5	0.1
0.01	1	0.36885457399967	1	63	385.651348058	NA	1	0	3.64	1	353.327366968	353.696221542	"12"	8482.772331692	8477.260673129	1.5	0.1
0.01	1	0.382594300000164	1	63	385.651348058	NA	1	0	3.64	1	353.928419278	354.311013578	"12"	8482.772331692	8477.260673129	1.5	0.1
0.01	1	0.469721000999925	1	63	385.651348058	NA	1	0	3.64	1	354.54609543	355.015816431	"12"	8482.772331692	8477.260673129	1.5	0.1
0.01	1	0.521058532999632	1	63	385.651348058	NA	1	0	3.64	1	355.247288255	355.768346788	"12"	8482.772331692	8477.260673129	1.5	0.1
0.01	1	0.544404264999685	1	63	385.651348058	NA	1	0	3.64	1	355.998467483	356.542871748	"12"	8482.772331692	8477.260673129	1.5	0.1
0.01	1	0.639677709000352	1	63	385.651348058	NA	1	0	3.64	1	356.78323122	357.422908929	"12"	8482.772331692	8477.260673129	1.5	0.1
0.01	1	0.556019331999778	1	63	385.651348058	NA	1	0	3.64	1	357.651324123	358.207343455	"12"	8482.772331692	8477.260673129	1.5	0.1
0.01	1	0.660745807999774	1	63	385.651348058	NA	1	0	3.64	1	358.435977529	359.096723337	"12"	8482.772331692	8477.260673129	1.5	0.1
0.01	1	0.494987994000439	1	63	385.651348058	NA	1	0	3.64	1	359.320793313	359.815781307	"12"	8482.772331692	8477.260673129	1.5	0.1
0.01	1	0.439759791999677	1	63	385.651348058	NA	1	0	3.64	1	360.055410038	360.49516983	"12"	8482.772331692	8477.260673129	1.5	0.1
0.01	1	0.49224383300043	1	63	385.651348058	NA	1	0	3.64	1	360.723090318	361.215334151	"12"	8482.772331692	8477.260673129	1.5	0.1
0.01	1	0.390718820999609	1	63	385.651348058	NA	1	0	3.64	1	361.441029878	361.831748699	"12"	8482.772331692	8477.260673129	1.5	0.1
0.01	1	0.468284986999606	1	63	385.651348058	NA	1	0	3.64	1	362.058620193	362.52690518	"12"	8482.772331692	8477.260673129	1.5	0.1
0.01	1	0.34321807500055	1	63	385.651348058	NA	1	0	3.64	1	362.759887333	363.103105408	"12"	8482.772331692	8477.260673129	1.5	0.1
0.01	1	0.424891939999725	1	63	385.651348058	NA	1	0	3.64	1	363.327559888	363.752451828	"12"	8482.772331692	8477.260673129	1.5	0.1
0.01	1	0.428210934999697	1	63	385.651348058	NA	1	0	3.64	1	363.978663523	364.406874458	"12"	8482.772331692	8477.260673129	1.5	0.1
0.01	1	0.408774876999814	1	63	385.651348058	NA	1	0	3.64	1	364.64633088	365.055105757	"12"	8482.772331692	8477.260673129	1.5	0.1
0.01	1	0.422817688000578	1	63	385.651348058	NA	1	0	3.64	1	365.280920048	365.703737736	"12"	8482.772331692	8477.260673129	1.5	0.1
0.01	1	0.420792070000061	1	63	385.651348058	NA	1	0	3.64	1	365.931993393	366.352785463	"12"	8482.772331692	8477.260673129	1.5	0.1
0.01	1	0.407768480999948	1	63	385.651348058	NA	1	0	3.64	1	366.582945645	366.990714126	"12"	8482.772331692	8477.260673129	1.5	0.1
0.01	1	0.390575506999994	1	63	385.651348058	NA	1	0	3.64	1	367.217355445	367.607930952	"12"	8482.772331692	8477.260673129	1.5	0.1
0.01	1	0.349389569999403	1	63	385.651348058	NA	1	0	3.64	1	367.835108948	368.184498518	"12"	8482.772331692	8477.260673129	1.5	0.1
0.01	1	0.411881046999952	1	63	385.651348058	NA	1	0	3.64	1	368.419386135	368.831267182	"12"	8482.772331692	8477.260673129	1.5	0.1
0.01	1	0.329607269999542	1	63	385.651348058	NA	1	0	3.64	1	369.053863418	369.383470688	"12"	8482.772331692	8477.260673129	1.5	0.1
0.01	1	0.451783393000369	1	63	385.651348058	NA	1	0	3.64	1	369.60476777	370.056551163	"12"	8482.772331692	8477.260673129	1.5	0.1
0.01	1	0.830589588000294	1	63	385.651348058	NA	1	0	3.64	1	370.289288543	371.119878131	"12"	8482.772331692	8477.260673129	1.5	0.1
0.01	1	0.738142431000597	1	63	385.651348058	NA	1	0	3.64	1	371.357715388	372.095857819	"12"	8482.772331692	8477.260673129	1.5	0.1
0.01	1	2.09722173600039	1	63	385.651348058	NA	1	0	3.64	1	372.326031873	374.423253609	"12"	8482.772331692	8477.260673129	1.5	0.1
0.01	1	0.351550753999618	1	63	385.651348058	NA	1	0	3.64	1	374.663221843	375.014772597	"12"	8482.772331692	8477.260673129	1.5	0.1
0.01	1	0.351619748999838	1	63	385.651348058	NA	1	0	3.64	1	375.247662552	375.599282301	"12"	8482.772331692	8477.260673129	1.5	0.1
0.01	1	0.384781085000213	1	63	385.651348058	NA	1	0	3.64	1	375.831817153	376.216598238	"12"	8482.772331692	8477.260673129	1.5	0.1
0.01	1	0.309709279000344	1	63	385.651348058	NA	1	0	3.64	1	376.449629406	376.759338685	"12"	8482.772331692	8477.260673129	1.5	0.1
0.01	1	0.37485047500013	1	63	385.651348058	NA	1	0	3.64	1	376.983806043	377.358656518	"12"	8482.772331692	8477.260673129	1.5	0.1
0.01	1	0.302187841999512	1	63	385.651348058	NA	1	0	3.64	1	377.584826348	377.88701419	"12"	8482.772331692	8477.260673129	1.5	0.1
0.01	1	0.368959110000105	1	63	385.651348058	NA	1	0	3.64	1	378.1189863	378.48794541	"12"	8482.772331692	8477.260673129	1.5	0.1
0.01	1	0.448046325000178	1	63	385.651348058	NA	1	0	3.64	1	378.720158503	379.168204828	"12"	8482.772331692	8477.260673129	1.5	0.1
0.01	1	0.434320688999833	1	63	385.651348058	NA	1	0	3.64	1	379.404680673	379.839001362	"12"	8482.772331692	8477.260673129	1.5	0.1
0.01	1	0.560129520999908	1	63	385.651348058	NA	1	0	3.64	1	380.072381934	380.632511455	"12"	8482.772331692	8477.260673129	1.5	0.1
0.01	1	0.310455030000412	1	63	385.651348058	NA	1	0	3.64	1	380.856983105	381.167438135	"12"	8482.772331692	8477.260673129	1.5	0.1
0.01	1	0.42527427099958	1	63	385.651348058	NA	1	0	3.64	1	381.391263593	381.816537864	"12"	8482.772331692	8477.260673129	1.5	0.1
0.01	1	0.365135057999396	1	63	385.651348058	NA	1	0	3.64	1	382.042351443	382.407486501	"12"	8482.772331692	8477.260673129	1.5	0.1
0.01	1	0.357125014999838	1	63	385.651348058	NA	1	0	3.64	1	382.6433079	383.000432915	"12"	8482.772331692	8477.260673129	1.5	0.1
0.01	1	0.379439020000063	1	63	385.651348058	NA	1	0	3.64	1	383.227605373	383.607044393	"12"	8482.772331692	8477.260673129	1.5	0.1
0.01	1	0.410344804000488	1	63	385.651348058	NA	1	0	3.64	1	383.82862246	384.238967264	"12"	8482.772331692	8477.260673129	1.5	0.1
0.01	1	0.456009074000576	1	63	385.651348058	NA	1	0	3.64	1	384.463077869	384.919086943	"12"	8482.772331692	8477.260673129	1.5	0.1
0.01	1	0.387599619999492	1	63	385.651348058	NA	1	0	3.64	1	385.147654403	385.535254023	"12"	8482.772331692	8477.260673129	1.5	0.1
0.01	1	0.449345738000375	1	54	413.765096665	NA	1	0	3.64	1	387.701821863	388.151167601	"13"	8482.772331692	8477.260673129	1.5	0.1
0.01	1	0.116687622999962	1	54	413.765096665	NA	1	0	3.64	1	388.386393418	388.503081041	"13"	8482.772331692	8477.260673129	1.5	0.1
0.01	1	0.0383928250003009	1	54	413.765096665	NA	1	0	3.64	1	388.736935389	388.775328214	"13"	8482.772331692	8477.260673129	1.5	0.1
0.01	1	0.0838914599999043	1	54	413.765096665	NA	1	0	3.64	1	389.004127373	389.088018833	"13"	8482.772331692	8477.260673129	1.5	0.1
0.01	1	0.0698293310006193	1	54	413.765096665	NA	1	0	3.64	1	389.321286263	389.391115594	"13"	8482.772331692	8477.260673129	1.5	0.1
0.01	1	0.0658413499995731	1	54	413.765096665	NA	1	0	3.64	1	389.621740079	389.687581429	"13"	8482.772331692	8477.260673129	1.5	0.1
0.01	1	0.045552644000054	1	54	413.765096665	NA	1	0	3.64	1	389.922182378	389.967735022	"13"	8482.772331692	8477.260673129	1.5	0.1
0.01	1	0.0342896629999814	1	54	413.765096665	NA	1	0	3.64	1	390.206016872	390.240306535	"13"	8482.772331692	8477.260673129	1.5	0.1
0.01	1	0.0547510010001133	1	54	413.765096665	NA	1	0	3.64	1	390.473262353	390.528013354	"13"	8482.772331692	8477.260673129	1.5	0.1
0.01	1	0.0500597979998929	1	54	413.765096665	NA	1	0	3.64	1	390.757005478	390.807065276	"13"	8482.772331692	8477.260673129	1.5	0.1
0.01	1	0.0385772199997518	1	54	413.765096665	NA	1	0	3.64	1	391.040816458	391.079393678	"13"	8482.772331692	8477.260673129	1.5	0.1
0.01	1	0.0436739779997879	1	54	413.765096665	NA	1	0	3.64	1	391.307940573	391.351614551	"13"	8482.772331692	8477.260673129	1.5	0.1
0.01	1	0.0557003120002264	1	54	413.765096665	NA	1	0	3.64	1	391.591746798	391.64744711	"13"	8482.772331692	8477.260673129	1.5	0.1
0.01	1	0.0672547249996569	1	54	413.765096665	NA	1	0	3.64	1	391.875541393	391.942796118	"13"	8482.772331692	8477.260673129	1.5	0.1
0.01	1	0.0877564880001955	1	54	413.765096665	NA	1	0	3.64	1	392.176169202	392.26392569	"13"	8482.772331692	8477.260673129	1.5	0.1
0.01	1	0.130929135999395	1	54	413.765096665	NA	1	0	3.64	1	392.493239262	392.624168398	"13"	8482.772331692	8477.260673129	1.5	0.1
0.01	1	0.163798121000582	1	54	413.765096665	NA	1	0	3.64	1	392.860660818	393.024458939	"13"	8482.772331692	8477.260673129	1.5	0.1
0.01	1	0.241882047999752	1	54	413.765096665	NA	1	0	3.64	1	393.26121641	393.503098458	"13"	8482.772331692	8477.260673129	1.5	0.1
0.01	1	0.17447871999957	1	54	413.765096665	NA	1	0	3.64	1	393.728633433	393.903112153	"13"	8482.772331692	8477.260673129	1.5	0.1
0.01	1	0.247030134999477	1	54	413.765096665	NA	1	0	3.64	1	394.129330353	394.376360488	"13"	8482.772331692	8477.260673129	1.5	0.1
0.01	1	0.153550668999742	1	54	413.765096665	NA	1	0	3.64	1	394.613564883	394.767115552	"13"	8482.772331692	8477.260673129	1.5	0.1
0.01	1	0.226051906000066	1	54	413.765096665	NA	1	0	3.64	1	394.997454058	395.223505964	"13"	8482.772331692	8477.260673129	1.5	0.1
0.01	1	0.232207234999805	1	54	413.765096665	NA	1	0	3.64	1	395.448246473	395.680453708	"13"	8482.772331692	8477.260673129	1.5	0.1
0.01	1	0.324447752999731	1	54	413.765096665	NA	1	0	3.64	1	395.915720113	396.240167866	"13"	8482.772331692	8477.260673129	1.5	0.1
0.01	1	0.285780492999947	1	54	413.765096665	NA	1	0	3.64	1	396.466502405	396.752282898	"13"	8482.772331692	8477.260673129	1.5	0.1
0.01	1	0.256046250000509	1	54	413.765096665	NA	1	0	3.64	1	396.98414937	397.24019562	"13"	8482.772331692	8477.260673129	1.5	0.1
0.01	1	0.210968587000025	1	54	413.765096665	NA	1	0	3.64	1	397.468308188	397.679276775	"13"	8482.772331692	8477.260673129	1.5	0.1
0.01	1	0.169101818000854	1	54	413.765096665	NA	1	0	3.64	1	397.919109465	398.088211283	"13"	8482.772331692	8477.260673129	1.5	0.1
0.01	1	0.208012217000032	1	54	413.765096665	NA	1	0	3.64	1	398.319800733	398.52781295	"13"	8482.772331692	8477.260673129	1.5	0.1
0.01	1	0.292797434999557	1	54	413.765096665	NA	1	0	3.64	1	398.753896608	399.046694043	"13"	8482.772331692	8477.260673129	1.5	0.1
0.01	1	0.304254665000371	1	54	413.765096665	NA	1	0	3.64	1	399.271291018	399.575545683	"13"	8482.772331692	8477.260673129	1.5	0.1
0.01	1	0.282677909000085	1	54	413.765096665	NA	1	0	3.64	1	399.80555864	400.088236549	"13"	8482.772331692	8477.260673129	1.5	0.1
0.01	1	0.396343983999941	1	54	413.765096665	NA	1	0	3.64	1	400.323088593	400.719432577	"13"	8482.772331692	8477.260673129	1.5	0.1
0.01	1	0.323134690000188	1	54	413.765096665	NA	1	0	3.64	1	400.957517788	401.280652478	"13"	8482.772331692	8477.260673129	1.5	0.1
0.01	1	0.307389085999603	1	54	413.765096665	NA	1	0	3.64	1	401.508432143	401.815821229	"13"	8482.772331692	8477.260673129	1.5	0.1
0.01	1	0.300307774999965	1	54	413.765096665	NA	1	0	3.64	1	402.042673063	402.342980838	"13"	8482.772331692	8477.260673129	1.5	0.1
0.01	1	0.271040656999503	1	54	413.765096665	NA	1	0	3.64	1	402.57691845	402.847959107	"13"	8482.772331692	8477.260673129	1.5	0.1
0.01	1	0.322472203999496	1	54	413.765096665	NA	1	0	3.64	1	403.077798068	403.400270272	"13"	8482.772331692	8477.260673129	1.5	0.1
0.01	1	0.387531498999124	1	54	413.765096665	NA	1	0	3.64	1	403.62862146	404.016152959	"13"	8482.772331692	8477.260673129	1.5	0.1
0.01	1	0.306332197999836	1	54	413.765096665	NA	1	0	3.64	1	404.24639063	404.552722828	"13"	8482.772331692	8477.260673129	1.5	0.1
0.01	1	0.306703979999838	1	54	413.765096665	NA	1	0	3.64	1	404.78052727	405.08723125	"13"	8482.772331692	8477.260673129	1.5	0.1
0.01	1	0.387971841000763	1	54	413.765096665	NA	1	0	3.64	1	405.31493825	405.702910091	"13"	8482.772331692	8477.260673129	1.5	0.1
0.01	1	0.642236497999875	1	54	413.765096665	NA	1	0	3.64	1	405.932549533	406.574786031	"13"	8482.772331692	8477.260673129	1.5	0.1
0.01	1	0.334052588999839	1	54	413.765096665	NA	1	0	3.64	1	406.8006934	407.134745989	"13"	8482.772331692	8477.260673129	1.5	0.1
0.01	1	0.39232138800071	1	54	413.765096665	NA	1	0	3.64	1	407.36829522	407.760616608	"13"	8482.772331692	8477.260673129	1.5	0.1
0.01	1	0.366168104999815	1	54	413.765096665	NA	1	0	3.64	1	407.985982518	408.352150623	"13"	8482.772331692	8477.260673129	1.5	0.1
0.01	1	0.397097979999671	1	54	413.765096665	NA	1	0	3.64	1	408.586956443	408.984054423	"13"	8482.772331692	8477.260673129	1.5	0.1
0.01	1	0.337928173999899	1	54	413.765096665	NA	1	0	3.64	1	409.22138782	409.559315994	"13"	8482.772331692	8477.260673129	1.5	0.1
0.01	1	0.346541102000629	1	54	413.765096665	NA	1	0	3.64	1	409.788997778	410.13553888	"13"	8482.772331692	8477.260673129	1.5	0.1
0.01	1	0.47455160499976	1	54	413.765096665	NA	1	0	3.64	1	410.373251095	410.8478027	"13"	8482.772331692	8477.260673129	1.5	0.1
0.01	1	0.725397456999417	1	54	413.765096665	NA	1	0	3.64	1	411.074475653	411.79987311	"13"	8482.772331692	8477.260673129	1.5	0.1
0.01	1	0.365418465999937	1	54	413.765096665	NA	1	0	3.64	1	412.02611986	412.391538326	"13"	8482.772331692	8477.260673129	1.5	0.1
0.01	1	0.475639477000186	1	54	413.765096665	NA	1	0	3.64	1	412.6272026	413.102842077	"13"	8482.772331692	8477.260673129	1.5	0.1
0.01	1	0.328132315999937	1	54	413.765096665	NA	1	0	3.64	1	413.328246398	413.656378714	"13"	8482.772331692	8477.260673129	1.5	0.1
0.01	1	0.350958011999865	1	103	NA	436.92953984	0	0.49	4.13	1	415.815804543	416.166762555	"14"	8482.772331692	8477.260673129	1.5	0.1
0.01	1	0.0878240279998863	1	103	NA	436.92953984	0	0.49	4.13	1	416.400102765	416.487926793	"14"	8482.772331692	8477.260673129	1.5	0.1
0.01	1	0.0414703639999061	1	103	NA	436.92953984	0	0.49	4.13	1	416.717455133	416.758925497	"14"	8482.772331692	8477.260673129	1.5	0.1
0.01	1	0.0562791279999146	1	103	NA	436.92953984	0	0.49	4.13	1	416.984521943	417.040801071	"14"	8482.772331692	8477.260673129	1.5	0.1
0.01	1	0.00299573199936276	1	103	NA	436.92953984	0	0.49	4.13	1	417.268203397	417.271199129	"14"	8482.772331692	8477.260673129	1.5	0.1
0.01	1	0.00456895000024815	1	103	NA	436.92953984	0	0.49	4.13	1	417.502174963	417.506743913	"14"	8482.772331692	8477.260673129	1.5	0.1
0.01	1	0.152938793999965	1	103	NA	436.92953984	0	0.49	4.13	1	417.735706763	417.888645557	"14"	8482.772331692	8477.260673129	1.5	0.1
0.01	1	0.0245833999997558	1	103	NA	436.92953984	0	0.49	4.13	1	418.119618038	418.144201438	"14"	8482.772331692	8477.260673129	1.5	0.1
0.01	1	0.0765186690005066	1	103	NA	436.92953984	0	0.49	4.13	1	418.370131023	418.446649692	"14"	8482.772331692	8477.260673129	1.5	0.1
0.01	1	0.0579749770004128	1	103	NA	436.92953984	0	0.49	4.13	1	418.670558923	418.7285339	"14"	8482.772331692	8477.260673129	1.5	0.1
0.01	1	0.0214987429999383	1	103	NA	436.92953984	0	0.49	4.13	1	418.954380268	418.975879011	"14"	8482.772331692	8477.260673129	1.5	0.1
0.01	1	0.011548694999874	1	103	NA	436.92953984	0	0.49	4.13	1	419.204775028	419.216323723	"14"	8482.772331692	8477.260673129	1.5	0.1
0.01	1	0.0339770340005998	1	103	NA	436.92953984	0	0.49	4.13	1	419.438592183	419.472569217	"14"	8482.772331692	8477.260673129	1.5	0.1
0.01	1	0.0385777629999211	1	103	NA	436.92953984	0	0.49	4.13	1	419.70580142	419.744379183	"14"	8482.772331692	8477.260673129	1.5	0.1
0.01	1	0.026723053000751	1	103	NA	436.92953984	0	0.49	4.13	1	419.972807558	419.999530611	"14"	8482.772331692	8477.260673129	1.5	0.1
0.01	1	0.0411569859998053	1	103	NA	436.92953984	0	0.49	4.13	1	420.223186483	420.264343469	"14"	8482.772331692	8477.260673129	1.5	0.1
0.01	1	0.0540051269999822	1	103	NA	436.92953984	0	0.49	4.13	1	420.49035663	420.544361757	"14"	8482.772331692	8477.260673129	1.5	0.1
0.01	1	0.0815411300000051	1	103	NA	436.92953984	0	0.49	4.13	1	420.774146878	420.855688008	"14"	8482.772331692	8477.260673129	1.5	0.1
0.01	1	0.0612441299999773	1	103	NA	436.92953984	0	0.49	4.13	1	421.091431148	421.152675278	"14"	8482.772331692	8477.260673129	1.5	0.1
0.01	1	0.0323992789999465	1	103	NA	436.92953984	0	0.49	4.13	1	421.375247068	421.407646347	"14"	8482.772331692	8477.260673129	1.5	0.1
0.01	1	0.0453830870001184	1	103	NA	436.92953984	0	0.49	4.13	1	421.642248568	421.687631655	"14"	8482.772331692	8477.260673129	1.5	0.1
0.01	1	0.121528720000242	1	103	NA	436.92953984	0	0.49	4.13	1	421.909403512	422.030932232	"14"	8482.772331692	8477.260673129	1.5	0.1
0.01	1	0.124433154000144	1	103	NA	436.92953984	0	0.49	4.13	1	422.260032205	422.384465359	"14"	8482.772331692	8477.260673129	1.5	0.1
0.01	1	0.125188045999494	1	103	NA	436.92953984	0	0.49	4.13	1	422.610553925	422.735741971	"14"	8482.772331692	8477.260673129	1.5	0.1
0.01	1	0.102297577000172	1	103	NA	436.92953984	0	0.49	4.13	1	422.961185388	423.063482965	"14"	8482.772331692	8477.260673129	1.5	0.1
0.01	1	0.119571029999861	1	103	NA	436.92953984	0	0.49	4.13	1	423.295139858	423.414710888	"14"	8482.772331692	8477.260673129	1.5	0.1
0.01	1	0.114155743000083	1	103	NA	436.92953984	0	0.49	4.13	1	423.64570389	423.759859633	"14"	8482.772331692	8477.260673129	1.5	0.1
0.01	1	0.146890949999943	1	103	NA	436.92953984	0	0.49	4.13	1	423.996219093	424.143110043	"14"	8482.772331692	8477.260673129	1.5	0.1
0.01	1	0.475796997000543	1	103	NA	436.92953984	0	0.49	4.13	1	424.380295993	424.85609299	"14"	8482.772331692	8477.260673129	1.5	0.1
0.01	1	0.198585099000411	1	103	NA	436.92953984	0	0.49	4.13	1	425.08135713	425.279942229	"14"	8482.772331692	8477.260673129	1.5	0.1
0.01	1	0.235613026999999	1	103	NA	436.92953984	0	0.49	4.13	1	425.51562039	425.751233417	"14"	8482.772331692	8477.260673129	1.5	0.1
0.01	1	0.287858239999878	1	103	NA	436.92953984	0	0.49	4.13	1	425.982931068	426.270789308	"14"	8482.772331692	8477.260673129	1.5	0.1
0.01	1	0.362775173000045	1	103	NA	436.92953984	0	0.49	4.13	1	426.50054761	426.863322783	"14"	8482.772331692	8477.260673129	1.5	0.1
0.01	1	0.259102611000344	1	103	NA	436.92953984	0	0.49	4.13	1	427.101469783	427.360572394	"14"	8482.772331692	8477.260673129	1.5	0.1
0.01	1	0.2534350370006	1	103	NA	436.92953984	0	0.49	4.13	1	427.585603815	427.839038852	"14"	8482.772331692	8477.260673129	1.5	0.1
0.01	1	0.274532037999961	1	103	NA	436.92953984	0	0.49	4.13	1	428.069779333	428.344311371	"14"	8482.772331692	8477.260673129	1.5	0.1
0.01	1	0.404473692000465	1	103	NA	436.92953984	0	0.49	4.13	1	428.570604013	428.975077705	"14"	8482.772331692	8477.260673129	1.5	0.1
0.01	1	0.394933147000302	1	103	NA	436.92953984	0	0.49	4.13	1	429.205030388	429.599963535	"14"	8482.772331692	8477.260673129	1.5	0.1
0.01	1	0.465100188000179	1	103	NA	436.92953984	0	0.49	4.13	1	429.839421373	430.304521561	"14"	8482.772331692	8477.260673129	1.5	0.1
0.01	1	0.515848211000048	1	103	NA	436.92953984	0	0.49	4.13	1	430.5406018	431.056450011	"14"	8482.772331692	8477.260673129	1.5	0.1
0.01	1	0.420480814000257	1	103	NA	436.92953984	0	0.49	4.13	1	431.291872398	431.712353212	"14"	8482.772331692	8477.260673129	1.5	0.1
0.01	1	0.360171551999883	1	103	NA	436.92953984	0	0.49	4.13	1	431.942968489	432.303140041	"14"	8482.772331692	8477.260673129	1.5	0.1
0.01	1	0.337090846000137	1	103	NA	436.92953984	0	0.49	4.13	1	432.527251965	432.864342811	"14"	8482.772331692	8477.260673129	1.5	0.1
0.01	1	0.600381018000007	1	103	NA	436.92953984	0	0.49	4.13	1	433.094972525	433.695353543	"14"	8482.772331692	8477.260673129	1.5	0.1
0.01	1	0.254262765000021	1	103	NA	436.92953984	0	0.49	4.13	1	433.929699348	434.183962113	"14"	8482.772331692	8477.260673129	1.5	0.1
0.01	1	0.34656267399987	1	103	NA	436.92953984	0	0.49	4.13	1	434.413794043	434.760356717	"14"	8482.772331692	8477.260673129	1.5	0.1
0.01	1	0.273539288999928	1	103	NA	436.92953984	0	0.49	4.13	1	434.998076948	435.271616237	"14"	8482.772331692	8477.260673129	1.5	0.1
0.01	1	0.277292200000375	1	103	NA	436.92953984	0	0.49	4.13	1	435.498909843	435.776202043	"14"	8482.772331692	8477.260673129	1.5	0.1
0.01	1	0.326583465000112	1	103	NA	436.92953984	0	0.49	4.13	1	436.016426633	436.343010098	"14"	8482.772331692	8477.260673129	1.5	0.1
0.01	1	0.360595135999574	2	103	NA	436.92953984	0	0.49	4.13	1	436.567372753	436.927967889	"14"	8482.772331692	8477.260673129	1.5	0.1
0.01	1	0.484282553000412	1	120	NA	462.848878879	0	0.4	4.53	1	438.954725645	439.439008198	"15"	8482.772331692	8477.260673129	1.5	0.1
0.01	1	0.102463387000171	1	120	NA	462.848878879	0	0.4	4.53	1	439.672703073	439.77516646	"15"	8482.772331692	8477.260673129	1.5	0.1
0.01	1	0.0819433239994396	1	120	NA	462.848878879	0	0.4	4.53	1	440.006542463	440.088485787	"15"	8482.772331692	8477.260673129	1.5	0.1
0.01	1	0.156664027000261	1	120	NA	462.848878879	0	0.4	4.53	1	440.32371567	440.480379697	"15"	8482.772331692	8477.260673129	1.5	0.1
0.01	1	0.172485128000517	1	120	NA	462.848878879	0	0.4	4.53	1	440.707714243	440.880199371	"15"	8482.772331692	8477.260673129	1.5	0.1
0.01	1	0.163588739000261	1	120	NA	462.848878879	0	0.4	4.53	1	441.108391858	441.271980597	"15"	8482.772331692	8477.260673129	1.5	0.1
0.01	1	0.242591244999858	1	120	NA	462.848878879	0	0.4	4.53	1	441.508995105	441.75158635	"15"	8482.772331692	8477.260673129	1.5	0.1
0.01	1	0.247684795999703	1	120	NA	462.848878879	0	0.4	4.53	1	441.976482393	442.224167189	"15"	8482.772331692	8477.260673129	1.5	0.1
0.01	1	0.24337818999993	1	120	NA	462.848878879	0	0.4	4.53	1	442.460657373	442.704035563	"15"	8482.772331692	8477.260673129	1.5	0.1
0.01	1	0.183048255999893	1	120	NA	462.848878879	0	0.4	4.53	1	442.928080078	443.111128334	"15"	8482.772331692	8477.260673129	1.5	0.1
0.01	1	0.246641382000234	1	120	NA	462.848878879	0	0.4	4.53	1	443.345509605	443.592150987	"15"	8482.772331692	8477.260673129	1.5	0.1
0.01	1	0.145001404000141	1	120	NA	462.848878879	0	0.4	4.53	1	443.829708101	443.974709505	"15"	8482.772331692	8477.260673129	1.5	0.1
0.01	1	0.162864467999498	1	120	NA	462.848878879	0	0.4	4.53	1	444.196863273	444.359727741	"15"	8482.772331692	8477.260673129	1.5	0.1
0.01	1	0.146555360000093	1	120	NA	462.848878879	0	0.4	4.53	1	444.597538872	444.744094232	"15"	8482.772331692	8477.260673129	1.5	0.1
0.01	1	0.306488688999707	1	120	NA	462.848878879	0	0.4	4.53	1	444.981571563	445.288060252	"15"	8482.772331692	8477.260673129	1.5	0.1
0.01	1	0.276510319999943	1	120	NA	462.848878879	0	0.4	4.53	1	445.515919298	445.792429618	"15"	8482.772331692	8477.260673129	1.5	0.1
0.01	1	0.199199502999363	1	120	NA	462.848878879	0	0.4	4.53	1	446.016605628	446.215805131	"15"	8482.772331692	8477.260673129	1.5	0.1
0.01	1	0.228986368000733	1	120	NA	462.848878879	0	0.4	4.53	1	446.450682258	446.679668626	"15"	8482.772331692	8477.260673129	1.5	0.1
0.01	1	0.314122746000066	1	120	NA	462.848878879	0	0.4	4.53	1	446.901380443	447.215503189	"15"	8482.772331692	8477.260673129	1.5	0.1
0.01	1	0.30012091899971	1	120	NA	462.848878879	0	0.4	4.53	1	447.45247037	447.752591289	"15"	8482.772331692	8477.260673129	1.5	0.1
0.01	1	0.293512969999938	1	120	NA	462.848878879	0	0.4	4.53	1	447.986732508	448.280245478	"15"	8482.772331692	8477.260673129	1.5	0.1
0.01	1	0.295936651000375	1	120	NA	462.848878879	0	0.4	4.53	1	448.504200748	448.800137399	"15"	8482.772331692	8477.260673129	1.5	0.1
