"payoff.level"	"balloon"	"rt"	"resp"	"explode.trial"	"explode.time"	"finish.time"	"exploded"	"trial.total"	"cumulative.total"	"finished"	"trial.start"	"trial.end"	"trial.num"	"secs"	"start.time"	"iti"	"isi"
0.01	1	2.447749982	1	64	NA	21.3738062509997	0	0.09	0.09	1	0.0135982009996951	2.4613481829997	"1"	4367.419929937	4362.032363103	1.5	0.1
0.01	1	1.66600923899978	1	64	NA	21.3738062509997	0	0.09	0.09	1	2.83490545899986	4.50091469799963	"1"	4367.419929937	4362.032363103	1.5	0.1
0.01	1	1.48988170300026	1	64	NA	21.3738062509997	0	0.09	0.09	1	4.73823689599976	6.22811859900003	"1"	4367.419929937	4362.032363103	1.5	0.1
0.01	1	1.72172726100007	1	64	NA	21.3738062509997	0	0.09	0.09	1	6.45768349199989	8.17941075299996	"1"	4367.419929937	4362.032363103	1.5	0.1
0.01	1	1.83319411000002	1	64	NA	21.3738062509997	0	0.09	0.09	1	8.41110787199977	10.2443019819998	"1"	4367.419929937	4362.032363103	1.5	0.1
0.01	1	1.87666567900033	1	64	NA	21.3738062509997	0	0.09	0.09	1	10.4811883959997	12.357854075	"1"	4367.419929937	4362.032363103	1.5	0.1
0.01	1	1.79476774800014	1	64	NA	21.3738062509997	0	0.09	0.09	1	12.5846557269997	14.3794234749998	"1"	4367.419929937	4362.032363103	1.5	0.1
0.01	1	1.66435638100029	1	64	NA	21.3738062509997	0	0.09	0.09	1	14.6047983599997	16.269154741	"1"	4367.419929937	4362.032363103	1.5	0.1
0.01	1	2.48076927800003	1	64	NA	21.3738062509997	0	0.09	0.09	1	16.5079093259997	18.9886786039997	"1"	4367.419929937	4362.032363103	1.5	0.1
0.01	1	2.1597741139999	2	64	NA	21.3738062509997	0	0.09	0.09	1	19.212506327	21.3722804409999	"1"	4367.419929937	4362.032363103	1.5	0.1
0.01	1	2.36208904599971	1	102	NA	43.2389257979999	0	0.14	0.23	1	23.4195489379999	25.7816379839996	"2"	4367.419929937	4362.032363103	1.5	0.1
0.01	1	0.919571192000149	1	102	NA	43.2389257979999	0	0.14	0.23	1	26.0073506529998	26.9269218449999	"2"	4367.419929937	4362.032363103	1.5	0.1
0.01	1	0.863632295000116	1	102	NA	43.2389257979999	0	0.14	0.23	1	27.1592245659999	28.022856861	"2"	4367.419929937	4362.032363103	1.5	0.1
0.01	1	0.912865855000291	1	102	NA	43.2389257979999	0	0.14	0.23	1	28.2610831979996	29.1739490529999	"2"	4367.419929937	4362.032363103	1.5	0.1
0.01	1	0.92262162499992	1	102	NA	43.2389257979999	0	0.14	0.23	1	29.396302014	30.3189236389999	"2"	4367.419929937	4362.032363103	1.5	0.1
0.01	1	0.977281157000107	1	102	NA	43.2389257979999	0	0.14	0.23	1	30.5482688259999	31.525549983	"2"	4367.419929937	4362.032363103	1.5	0.1
0.01	1	0.791814137999609	1	102	NA	43.2389257979999	0	0.14	0.23	1	31.767043071	32.5588572089996	"2"	4367.419929937	4362.032363103	1.5	0.1
0.01	1	0.765037240000311	1	102	NA	43.2389257979999	0	0.14	0.23	1	32.7853477209997	33.550384961	"2"	4367.419929937	4362.032363103	1.5	0.1
0.01	1	0.739477197999804	1	102	NA	43.2389257979999	0	0.14	0.23	1	33.787050555	34.5265277529998	"2"	4367.419929937	4362.032363103	1.5	0.1
0.01	1	0.722718667000208	1	102	NA	43.2389257979999	0	0.14	0.23	1	34.7553475339996	35.4780662009998	"2"	4367.419929937	4362.032363103	1.5	0.1
0.01	1	1.45153641100023	1	102	NA	43.2389257979999	0	0.14	0.23	1	35.7069300639996	37.1584664749998	"2"	4367.419929937	4362.032363103	1.5	0.1
0.01	1	1.1800911549999	1	102	NA	43.2389257979999	0	0.14	0.23	1	37.3931622719997	38.5732534269996	"2"	4367.419929937	4362.032363103	1.5	0.1
0.01	1	1.67476015200009	1	102	NA	43.2389257979999	0	0.14	0.23	1	38.7955538429997	40.4703139949997	"2"	4367.419929937	4362.032363103	1.5	0.1
0.01	1	1.19564891699974	1	102	NA	43.2389257979999	0	0.14	0.23	1	40.6985812749999	41.8942301919997	"2"	4367.419929937	4362.032363103	1.5	0.1
0.01	1	1.11949099699996	2	102	NA	43.2389257979999	0	0.14	0.23	1	42.1177511669998	43.2372421639998	"2"	4367.419929937	4362.032363103	1.5	0.1
0.01	1	1.63580739399958	1	97	NA	76.0533141769997	0	0.3	0.53	1	45.289635823	46.9254432169996	"3"	4367.419929937	4362.032363103	1.5	0.1
0.01	1	0.932344372999978	1	97	NA	76.0533141769997	0	0.3	0.53	1	47.1594766879998	48.0918210609998	"3"	4367.419929937	4362.032363103	1.5	0.1
0.01	1	0.812861545000032	1	97	NA	76.0533141769997	0	0.3	0.53	1	48.3282027609998	49.1410643059999	"3"	4367.419929937	4362.032363103	1.5	0.1
0.01	1	0.850038858000062	1	97	NA	76.0533141769997	0	0.3	0.53	1	49.363269083	50.213307941	"3"	4367.419929937	4362.032363103	1.5	0.1
0.01	1	0.795723417000318	1	97	NA	76.0533141769997	0	0.3	0.53	1	50.4484273189996	51.2441507359999	"3"	4367.419929937	4362.032363103	1.5	0.1
0.01	1	0.649801006000416	1	97	NA	76.0533141769997	0	0.3	0.53	1	51.4667293559996	52.116530362	"3"	4367.419929937	4362.032363103	1.5	0.1
0.01	1	0.604451775000143	1	97	NA	76.0533141769997	0	0.3	0.53	1	52.3515099429997	52.9559617179998	"3"	4367.419929937	4362.032363103	1.5	0.1
0.01	1	0.498445419999825	1	97	NA	76.0533141769997	0	0.3	0.53	1	53.1864646029999	53.6849100229997	"3"	4367.419929937	4362.032363103	1.5	0.1
0.01	1	0.628084082999976	1	97	NA	76.0533141769997	0	0.3	0.53	1	53.9208661829998	54.5489502659998	"3"	4367.419929937	4362.032363103	1.5	0.1
0.01	1	0.608483626000179	1	97	NA	76.0533141769997	0	0.3	0.53	1	54.7722490369997	55.3807326629999	"3"	4367.419929937	4362.032363103	1.5	0.1
0.01	1	0.526263417000337	1	97	NA	76.0533141769997	0	0.3	0.53	1	55.6071606789997	56.133424096	"3"	4367.419929937	4362.032363103	1.5	0.1
0.01	1	0.549923486000353	1	97	NA	76.0533141769997	0	0.3	0.53	1	56.3582970559996	56.908220542	"3"	4367.419929937	4362.032363103	1.5	0.1
0.01	1	0.525215280999873	1	97	NA	76.0533141769997	0	0.3	0.53	1	57.1430115029998	57.6682267839997	"3"	4367.419929937	4362.032363103	1.5	0.1
0.01	1	0.605400961000214	1	97	NA	76.0533141769997	0	0.3	0.53	1	57.8943416889997	58.4997426499999	"3"	4367.419929937	4362.032363103	1.5	0.1
0.01	1	0.812190392000048	1	97	NA	76.0533141769997	0	0.3	0.53	1	58.7289355059997	59.5411258979998	"3"	4367.419929937	4362.032363103	1.5	0.1
0.01	1	0.753284316999725	1	97	NA	76.0533141769997	0	0.3	0.53	1	59.764106133	60.5173904499998	"3"	4367.419929937	4362.032363103	1.5	0.1
0.01	1	0.863980230999914	1	97	NA	76.0533141769997	0	0.3	0.53	1	60.7490943779999	61.6130746089998	"3"	4367.419929937	4362.032363103	1.5	0.1
0.01	1	0.705011308999929	1	97	NA	76.0533141769997	0	0.3	0.53	1	61.8509172979998	62.5559286069997	"3"	4367.419929937	4362.032363103	1.5	0.1
0.01	1	0.858206419999988	1	97	NA	76.0533141769997	0	0.3	0.53	1	62.7858564459998	63.6440628659998	"3"	4367.419929937	4362.032363103	1.5	0.1
0.01	1	0.789564871000039	1	97	NA	76.0533141769997	0	0.3	0.53	1	63.8709490209999	64.6605138919999	"3"	4367.419929937	4362.032363103	1.5	0.1
0.01	1	0.91500916799987	1	97	NA	76.0533141769997	0	0.3	0.53	1	64.8894423669999	65.8044515349998	"3"	4367.419929937	4362.032363103	1.5	0.1
0.01	1	0.722896607000166	1	97	NA	76.0533141769997	0	0.3	0.53	1	66.0412810939997	66.7641777009999	"3"	4367.419929937	4362.032363103	1.5	0.1
0.01	1	0.708265105999999	1	97	NA	76.0533141769997	0	0.3	0.53	1	66.9929989289999	67.7012640349999	"3"	4367.419929937	4362.032363103	1.5	0.1
0.01	1	0.861754103000294	1	97	NA	76.0533141769997	0	0.3	0.53	1	67.9277054279996	68.7894595309999	"3"	4367.419929937	4362.032363103	1.5	0.1
0.01	1	0.727609992999987	1	97	NA	76.0533141769997	0	0.3	0.53	1	69.0297899789998	69.7573999719998	"3"	4367.419929937	4362.032363103	1.5	0.1
0.01	1	0.766520322999895	1	97	NA	76.0533141769997	0	0.3	0.53	1	69.9812980349998	70.7478183579997	"3"	4367.419929937	4362.032363103	1.5	0.1
0.01	1	0.773672281000017	1	97	NA	76.0533141769997	0	0.3	0.53	1	70.9829032389998	71.7565755199998	"3"	4367.419929937	4362.032363103	1.5	0.1
0.01	1	0.67539983800043	1	97	NA	76.0533141769997	0	0.3	0.53	1	71.9846928959996	72.660092734	"3"	4367.419929937	4362.032363103	1.5	0.1
0.01	1	0.814135836999867	1	97	NA	76.0533141769997	0	0.3	0.53	1	72.8860941919997	73.7002300289996	"3"	4367.419929937	4362.032363103	1.5	0.1
0.01	1	0.633667450999837	1	97	NA	76.0533141769997	0	0.3	0.53	1	73.9379575779999	74.5716250289997	"3"	4367.419929937	4362.032363103	1.5	0.1
0.01	1	1.24570108499984	2	97	NA	76.0533141769997	0	0.3	0.53	1	74.8060595699999	76.0517606549997	"3"	4367.419929937	4362.032363103	1.5	0.1
0.01	1	1.23744578299966	1	51	NA	108.118260856	0	0.4	0.93	1	78.111580407	79.3490261899997	"4"	4367.419929937	4362.032363103	1.5	0.1
0.01	1	0.326898889999939	1	51	NA	108.118260856	0	0.4	0.93	1	79.5807930229998	79.9076919129998	"4"	4367.419929937	4362.032363103	1.5	0.1
0.01	1	0.305097662000207	1	51	NA	108.118260856	0	0.4	0.93	1	80.1316893479998	80.43678701	"4"	4367.419929937	4362.032363103	1.5	0.1
0.01	1	0.250881225000285	1	51	NA	108.118260856	0	0.4	0.93	1	80.6659043229997	80.916785548	"4"	4367.419929937	4362.032363103	1.5	0.1
0.01	1	0.343406693999896	1	51	NA	108.118260856	0	0.4	0.93	1	81.1500934749997	81.4935001689996	"4"	4367.419929937	4362.032363103	1.5	0.1
0.01	1	0.342686371999662	1	51	NA	108.118260856	0	0.4	0.93	1	81.717622657	82.0603090289997	"4"	4367.419929937	4362.032363103	1.5	0.1
0.01	1	0.254396883000027	1	51	NA	108.118260856	0	0.4	0.93	1	82.2852269519999	82.5396238349999	"4"	4367.419929937	4362.032363103	1.5	0.1
0.01	1	0.322622099	1	51	NA	108.118260856	0	0.4	0.93	1	82.7694646249997	83.0920867239997	"4"	4367.419929937	4362.032363103	1.5	0.1
0.01	1	0.29305254799965	1	51	NA	108.118260856	0	0.4	0.93	1	83.320301661	83.6133542089997	"4"	4367.419929937	4362.032363103	1.5	0.1
0.01	1	0.269712204999905	1	51	NA	108.118260856	0	0.4	0.93	1	83.8379120129998	84.1076242179997	"4"	4367.419929937	4362.032363103	1.5	0.1
0.01	1	0.34526856399998	1	51	NA	108.118260856	0	0.4	0.93	1	84.3387473289999	84.6840158929999	"4"	4367.419929937	4362.032363103	1.5	0.1
0.01	1	0.330285294000078	1	51	NA	108.118260856	0	0.4	0.93	1	84.9063640119998	85.2366493059999	"4"	4367.419929937	4362.032363103	1.5	0.1
0.01	1	0.322223265000048	1	51	NA	108.118260856	0	0.4	0.93	1	85.4739774639997	85.7962007289998	"4"	4367.419929937	4362.032363103	1.5	0.1
0.01	1	0.260085297999922	1	51	NA	108.118260856	0	0.4	0.93	1	86.0249765949998	86.2850618929997	"4"	4367.419929937	4362.032363103	1.5	0.1
0.01	1	0.326772259999871	1	51	NA	108.118260856	0	0.4	0.93	1	86.5091247659998	86.8358970259997	"4"	4367.419929937	4362.032363103	1.5	0.1
0.01	1	0.311628487000235	1	51	NA	108.118260856	0	0.4	0.93	1	87.0766302109996	87.3882586979998	"4"	4367.419929937	4362.032363103	1.5	0.1
0.01	1	0.298587011000109	1	51	NA	108.118260856	0	0.4	0.93	1	87.6109317749997	87.9095187859998	"4"	4367.419929937	4362.032363103	1.5	0.1
0.01	1	0.324022100000093	1	51	NA	108.118260856	0	0.4	0.93	1	88.1452107379996	88.4692328379997	"4"	4367.419929937	4362.032363103	1.5	0.1
0.01	1	0.435742235999896	1	51	NA	108.118260856	0	0.4	0.93	1	88.696195855	89.1319380909999	"4"	4367.419929937	4362.032363103	1.5	0.1
0.01	1	0.704951452999921	1	51	NA	108.118260856	0	0.4	0.93	1	89.3637891859998	90.0687406389998	"4"	4367.419929937	4362.032363103	1.5	0.1
0.01	1	0.377077848999761	1	51	NA	108.118260856	0	0.4	0.93	1	90.29875399	90.6758318389998	"4"	4367.419929937	4362.032363103	1.5	0.1
0.01	1	0.359894537999935	1	51	NA	108.118260856	0	0.4	0.93	1	90.8997542709999	91.2596488089998	"4"	4367.419929937	4362.032363103	1.5	0.1
0.01	1	0.328226705000361	1	51	NA	108.118260856	0	0.4	0.93	1	91.4841915909997	91.812418296	"4"	4367.419929937	4362.032363103	1.5	0.1
0.01	1	0.34527618400034	1	51	NA	108.118260856	0	0.4	0.93	1	92.0350295989997	92.380305783	"4"	4367.419929937	4362.032363103	1.5	0.1
0.01	1	0.338113740999688	1	51	NA	108.118260856	0	0.4	0.93	1	92.602652908	92.9407666489997	"4"	4367.419929937	4362.032363103	1.5	0.1
0.01	1	0.28936349300011	1	51	NA	108.118260856	0	0.4	0.93	1	93.1702173029998	93.459580796	"4"	4367.419929937	4362.032363103	1.5	0.1
0.01	1	0.324069803000384	1	51	NA	108.118260856	0	0.4	0.93	1	93.6877458689996	94.011815672	"4"	4367.419929937	4362.032363103	1.5	0.1
0.01	1	0.334136716000103	1	51	NA	108.118260856	0	0.4	0.93	1	94.2386257499998	94.5727624659999	"4"	4367.419929937	4362.032363103	1.5	0.1
0.01	1	0.301764981999895	1	51	NA	108.118260856	0	0.4	0.93	1	94.8063729569999	95.1081379389998	"4"	4367.419929937	4362.032363103	1.5	0.1
0.01	1	0.46455518699986	1	51	NA	108.118260856	0	0.4	0.93	1	95.3405315189998	95.8050867059997	"4"	4367.419929937	4362.032363103	1.5	0.1
0.01	1	0.85793043700005	1	51	NA	108.118260856	0	0.4	0.93	1	96.0418423259998	96.8997727629999	"4"	4367.419929937	4362.032363103	1.5	0.1
0.01	1	0.55834115000016	1	51	NA	108.118260856	0	0.4	0.93	1	97.1270056429998	97.685346793	"4"	4367.419929937	4362.032363103	1.5	0.1
0.01	1	0.564533896000285	1	51	NA	108.118260856	0	0.4	0.93	1	97.9116884329997	98.4762223289999	"4"	4367.419929937	4362.032363103	1.5	0.1
0.01	1	0.571738269999969	1	51	NA	108.118260856	0	0.4	0.93	1	98.712918488	99.284656758	"4"	4367.419929937	4362.032363103	1.5	0.1
0.01	1	0.595042383999953	1	51	NA	108.118260856	0	0.4	0.93	1	99.5143170169999	100.109359401	"4"	4367.419929937	4362.032363103	1.5	0.1
0.01	1	0.576353994999863	1	51	NA	108.118260856	0	0.4	0.93	1	100.332277906	100.908631901	"4"	4367.419929937	4362.032363103	1.5	0.1
0.01	1	0.575341578000007	1	51	NA	108.118260856	0	0.4	0.93	1	101.13371322	101.709054798	"4"	4367.419929937	4362.032363103	1.5	0.1
0.01	1	0.621221818999857	1	51	NA	108.118260856	0	0.4	0.93	1	101.934980439	102.556202258	"4"	4367.419929937	4362.032363103	1.5	0.1
0.01	1	0.682708413	1	51	NA	108.118260856	0	0.4	0.93	1	102.786385039	103.469093452	"4"	4367.419929937	4362.032363103	1.5	0.1
0.01	1	1.84352967099994	1	51	NA	108.118260856	0	0.4	0.93	1	103.704705753	105.548235424	"4"	4367.419929937	4362.032363103	1.5	0.1
0.01	1	2.34188324699971	2	51	NA	108.118260856	0	0.4	0.93	1	105.774843698	108.116726945	"4"	4367.419929937	4362.032363103	1.5	0.1
0.01	1	0.966456668000319	1	116	NA	139.806652459	0	0.5	1.43	1	110.165520204	111.131976872	"5"	4367.419929937	4362.032363103	1.5	0.1
0.01	1	0.32611715100029	1	116	NA	139.806652459	0	0.5	1.43	1	111.367661481	111.693778632	"5"	4367.419929937	4362.032363103	1.5	0.1
0.01	1	0.253479419000087	1	116	NA	139.806652459	0	0.5	1.43	1	111.918495428	112.171974847	"5"	4367.419929937	4362.032363103	1.5	0.1
0.01	1	0.250029145000099	1	116	NA	139.806652459	0	0.5	1.43	1	112.402660981	112.652690126	"5"	4367.419929937	4362.032363103	1.5	0.1
0.01	1	0.277691808999862	1	116	NA	139.806652459	0	0.5	1.43	1	112.886839676	113.164531485	"5"	4367.419929937	4362.032363103	1.5	0.1
0.01	1	0.273216896000122	1	116	NA	139.806652459	0	0.5	1.43	1	113.387504345	113.660721241	"5"	4367.419929937	4362.032363103	1.5	0.1
0.01	1	0.218993345000399	1	116	NA	139.806652459	0	0.5	1.43	1	113.888445641	114.107438986	"5"	4367.419929937	4362.032363103	1.5	0.1
0.01	1	0.296287480000046	1	116	NA	139.806652459	0	0.5	1.43	1	114.339169476	114.635456956	"5"	4367.419929937	4362.032363103	1.5	0.1
0.01	1	0.242634481000096	1	116	NA	139.806652459	0	0.5	1.43	1	114.873469886	115.116104367	"5"	4367.419929937	4362.032363103	1.5	0.1
0.01	1	0.27939755899979	1	116	NA	139.806652459	0	0.5	1.43	1	115.340887389	115.620284948	"5"	4367.419929937	4362.032363103	1.5	0.1
0.01	1	0.250197801000013	1	116	NA	139.806652459	0	0.5	1.43	1	115.858395776	116.108593577	"5"	4367.419929937	4362.032363103	1.5	0.1
0.01	1	0.262530911999875	1	116	NA	139.806652459	0	0.5	1.43	1	116.342528291	116.605059203	"5"	4367.419929937	4362.032363103	1.5	0.1
0.01	1	0.306285738000042	1	116	NA	139.806652459	0	0.5	1.43	1	116.826656121	117.132941859	"5"	4367.419929937	4362.032363103	1.5	0.1
0.01	1	0.266702585000075	1	116	NA	139.806652459	0	0.5	1.43	1	117.360929101	117.627631686	"5"	4367.419929937	4362.032363103	1.5	0.1
0.01	1	0.110799603999567	1	116	NA	139.806652459	0	0.5	1.43	1	118.028720879	118.139520483	"5"	4367.419929937	4362.032363103	1.5	0.1
0.01	1	0.337323665999975	1	116	NA	139.806652459	0	0.5	1.43	1	118.362570268	118.699893934	"5"	4367.419929937	4362.032363103	1.5	0.1
0.01	1	0.314592485000048	1	116	NA	139.806652459	0	0.5	1.43	1	118.930239571	119.244832056	"5"	4367.419929937	4362.032363103	1.5	0.1
0.01	1	0.243233856999723	1	116	NA	139.806652459	0	0.5	1.43	1	119.481047406	119.724281263	"5"	4367.419929937	4362.032363103	1.5	0.1
0.01	1	0.271114004999617	1	116	NA	139.806652459	0	0.5	1.43	1	119.948586814	120.219700819	"5"	4367.419929937	4362.032363103	1.5	0.1
0.01	1	0.275382740000168	1	116	NA	139.806652459	0	0.5	1.43	1	120.449464983	120.724847723	"5"	4367.419929937	4362.032363103	1.5	0.1
0.01	1	0.302145736000057	1	116	NA	139.806652459	0	0.5	1.43	1	120.950374763	121.252520499	"5"	4367.419929937	4362.032363103	1.5	0.1
0.01	1	0.319863188999989	1	116	NA	139.806652459	0	0.5	1.43	1	121.484680343	121.804543532	"5"	4367.419929937	4362.032363103	1.5	0.1
0.01	1	0.289812370000163	1	116	NA	139.806652459	0	0.5	1.43	1	122.035576571	122.325388941	"5"	4367.419929937	4362.032363103	1.5	0.1
0.01	1	0.290598721999686	1	116	NA	139.806652459	0	0.5	1.43	1	122.553080791	122.843679513	"5"	4367.419929937	4362.032363103	1.5	0.1
0.01	1	0.285922281000239	1	116	NA	139.806652459	0	0.5	1.43	1	123.070547491	123.356469772	"5"	4367.419929937	4362.032363103	1.5	0.1
0.01	1	0.247793282999737	1	116	NA	139.806652459	0	0.5	1.43	1	123.588070161	123.835863444	"5"	4367.419929937	4362.032363103	1.5	0.1
0.01	1	0.28432912199969	1	116	NA	139.806652459	0	0.5	1.43	1	124.072320201	124.356649323	"5"	4367.419929937	4362.032363103	1.5	0.1
0.01	1	0.278551209999932	1	116	NA	139.806652459	0	0.5	1.43	1	124.589775848	124.868327058	"5"	4367.419929937	4362.032363103	1.5	0.1
0.01	1	0.282190363999689	1	116	NA	139.806652459	0	0.5	1.43	1	125.090501579	125.372691943	"5"	4367.419929937	4362.032363103	1.5	0.1
0.01	1	0.292880325000169	1	116	NA	139.806652459	0	0.5	1.43	1	125.608156788	125.901037113	"5"	4367.419929937	4362.032363103	1.5	0.1
0.01	1	0.295287771999938	1	116	NA	139.806652459	0	0.5	1.43	1	126.125631035	126.420918807	"5"	4367.419929937	4362.032363103	1.5	0.1
0.01	1	0.329362084999957	1	116	NA	139.806652459	0	0.5	1.43	1	126.643315357	126.972677442	"5"	4367.419929937	4362.032363103	1.5	0.1
0.01	1	0.336938713000109	1	116	NA	139.806652459	0	0.5	1.43	1	127.210958846	127.547897559	"5"	4367.419929937	4362.032363103	1.5	0.1
0.01	1	0.31488841800001	1	116	NA	139.806652459	0	0.5	1.43	1	127.778471825	128.093360243	"5"	4367.419929937	4362.032363103	1.5	0.1
0.01	1	0.315116394000142	1	116	NA	139.806652459	0	0.5	1.43	1	128.329466541	128.644582935	"5"	4367.419929937	4362.032363103	1.5	0.1
0.01	1	0.307428609999988	1	116	NA	139.806652459	0	0.5	1.43	1	128.880385609	129.187814219	"5"	4367.419929937	4362.032363103	1.5	0.1
0.01	1	0.294783728999846	1	116	NA	139.806652459	0	0.5	1.43	1	129.414527215	129.709310944	"5"	4367.419929937	4362.032363103	1.5	0.1
0.01	1	0.335438525999962	1	116	NA	139.806652459	0	0.5	1.43	1	129.932140421	130.267578947	"5"	4367.419929937	4362.032363103	1.5	0.1
0.01	1	0.311952620000284	1	116	NA	139.806652459	0	0.5	1.43	1	130.499748263	130.811700883	"5"	4367.419929937	4362.032363103	1.5	0.1
0.01	1	0.44941645300014	1	116	NA	139.806652459	0	0.5	1.43	1	131.050823831	131.500240284	"5"	4367.419929937	4362.032363103	1.5	0.1
0.01	1	0.781319933999839	1	116	NA	139.806652459	0	0.5	1.43	1	131.735208696	132.51652863	"5"	4367.419929937	4362.032363103	1.5	0.1
0.01	1	0.386439104999681	1	116	NA	139.806652459	0	0.5	1.43	1	132.753650226	133.140089331	"5"	4367.419929937	4362.032363103	1.5	0.1
0.01	1	0.361478004000219	1	116	NA	139.806652459	0	0.5	1.43	1	133.371358756	133.73283676	"5"	4367.419929937	4362.032363103	1.5	0.1
0.01	1	0.392027589999998	1	116	NA	139.806652459	0	0.5	1.43	1	133.972263896	134.364291486	"5"	4367.419929937	4362.032363103	1.5	0.1
0.01	1	0.382465800000318	1	116	NA	139.806652459	0	0.5	1.43	1	134.590021681	134.972487481	"5"	4367.419929937	4362.032363103	1.5	0.1
0.01	1	0.404715168000166	1	116	NA	139.806652459	0	0.5	1.43	1	135.207736221	135.612451389	"5"	4367.419929937	4362.032363103	1.5	0.1
0.01	1	0.458721915999831	1	116	NA	139.806652459	0	0.5	1.43	1	135.842187548	136.300909464	"5"	4367.419929937	4362.032363103	1.5	0.1
0.01	1	0.421765958999913	1	116	NA	139.806652459	0	0.5	1.43	1	136.526576203	136.948342162	"5"	4367.419929937	4362.032363103	1.5	0.1
0.01	1	0.362124740000127	1	116	NA	139.806652459	0	0.5	1.43	1	137.177715958	137.539840698	"5"	4367.419929937	4362.032363103	1.5	0.1
0.01	1	0.458549117000075	1	116	NA	139.806652459	0	0.5	1.43	1	137.778674306	138.237223423	"5"	4367.419929937	4362.032363103	1.5	0.1
0.01	1	1.34186603199987	2	116	NA	139.806652459	0	0.5	1.43	1	138.463260776	139.805126808	"5"	4367.419929937	4362.032363103	1.5	0.1
0.01	1	0.743757788000039	1	118	NA	175.974912786	0	0.6	2.03	1	141.852215636	142.595973424	"6"	4367.419929937	4362.032363103	1.5	0.1
0.01	1	0.20744284500006	1	118	NA	175.974912786	0	0.6	2.03	1	142.820551311	143.027994156	"6"	4367.419929937	4362.032363103	1.5	0.1
0.01	1	0.190180822000002	1	118	NA	175.974912786	0	0.6	2.03	1	143.254620514	143.444801336	"6"	4367.419929937	4362.032363103	1.5	0.1
0.01	1	0.188258260000111	1	118	NA	175.974912786	0	0.6	2.03	1	143.671928976	143.860187236	"6"	4367.419929937	4362.032363103	1.5	0.1
0.01	1	0.170479342999897	1	118	NA	175.974912786	0	0.6	2.03	1	144.089326756	144.259806099	"6"	4367.419929937	4362.032363103	1.5	0.1
0.01	1	0.19399440899997	1	118	NA	175.974912786	0	0.6	2.03	1	144.489987806	144.683982215	"6"	4367.419929937	4362.032363103	1.5	0.1
0.01	1	0.217975708999802	1	118	NA	175.974912786	0	0.6	2.03	1	144.907290449	145.125266158	"6"	4367.419929937	4362.032363103	1.5	0.1
0.01	1	0.189898391000042	1	118	NA	175.974912786	0	0.6	2.03	1	145.358151338	145.548049729	"6"	4367.419929937	4362.032363103	1.5	0.1
0.01	1	0.18847510500018	1	118	NA	175.974912786	0	0.6	2.03	1	145.775554276	145.964029381	"6"	4367.419929937	4362.032363103	1.5	0.1
0.01	1	0.258896668000034	1	118	NA	175.974912786	0	0.6	2.03	1	146.192878596	146.451775264	"6"	4367.419929937	4362.032363103	1.5	0.1
0.01	1	0.248173351999867	1	118	NA	175.974912786	0	0.6	2.03	1	146.676990551	146.925163903	"6"	4367.419929937	4362.032363103	1.5	0.1
0.01	1	0.19583016300021	1	118	NA	175.974912786	0	0.6	2.03	1	147.161198876	147.357029039	"6"	4367.419929937	4362.032363103	1.5	0.1
0.01	1	0.185608486999627	1	118	NA	175.974912786	0	0.6	2.03	1	147.595231971	147.780840458	"6"	4367.419929937	4362.032363103	1.5	0.1
0.01	1	0.192476890999842	1	118	NA	175.974912786	0	0.6	2.03	1	148.012512588	148.204989479	"6"	4367.419929937	4362.032363103	1.5	0.1
0.01	1	0.215294542000265	1	118	NA	175.974912786	0	0.6	2.03	1	148.429860386	148.645154928	"6"	4367.419929937	4362.032363103	1.5	0.1
0.01	1	0.244371825000144	1	118	NA	175.974912786	0	0.6	2.03	1	148.880751166	149.125122991	"6"	4367.419929937	4362.032363103	1.5	0.1
0.01	1	0.248428278000119	1	118	NA	175.974912786	0	0.6	2.03	1	149.348123169	149.596551447	"6"	4367.419929937	4362.032363103	1.5	0.1
0.01	1	0.236194297000111	1	118	NA	175.974912786	0	0.6	2.03	1	149.832331373	150.06852567	"6"	4367.419929937	4362.032363103	1.5	0.1
0.01	1	0.239958965999904	1	118	NA	175.974912786	0	0.6	2.03	1	150.299742446	150.539701412	"6"	4367.419929937	4362.032363103	1.5	0.1
0.01	1	0.285911970000143	1	118	NA	175.974912786	0	0.6	2.03	1	150.767276366	151.053188336	"6"	4367.419929937	4362.032363103	1.5	0.1
0.01	1	0.255888410999887	1	118	NA	175.974912786	0	0.6	2.03	1	151.284687241	151.540575652	"6"	4367.419929937	4362.032363103	1.5	0.1
0.01	1	0.259143023000433	1	118	NA	175.974912786	0	0.6	2.03	1	151.768853986	152.027997009	"6"	4367.419929937	4362.032363103	1.5	0.1
0.01	1	0.239492530000007	1	118	NA	175.974912786	0	0.6	2.03	1	152.253106941	152.492599471	"6"	4367.419929937	4362.032363103	1.5	0.1
0.01	1	0.252270061999752	1	118	NA	175.974912786	0	0.6	2.03	1	152.720474716	152.972744778	"6"	4367.419929937	4362.032363103	1.5	0.1
0.01	1	0.26486528300029	1	118	NA	175.974912786	0	0.6	2.03	1	153.204688316	153.469553599	"6"	4367.419929937	4362.032363103	1.5	0.1
0.01	1	0.178016544999991	1	118	NA	175.974912786	0	0.6	2.03	1	153.705596821	153.883613366	"6"	4367.419929937	4362.032363103	1.5	0.1
0.01	1	0.24280219100001	1	118	NA	175.974912786	0	0.6	2.03	1	154.106207238	154.349009429	"6"	4367.419929937	4362.032363103	1.5	0.1
0.01	1	0.229989808000028	1	118	NA	175.974912786	0	0.6	2.03	1	154.573620716	154.803610524	"6"	4367.419929937	4362.032363103	1.5	0.1
0.01	1	0.24406628800034	1	118	NA	175.974912786	0	0.6	2.03	1	155.041100367	155.285166655	"6"	4367.419929937	4362.032363103	1.5	0.1
0.01	1	0.240404807000232	1	118	NA	175.974912786	0	0.6	2.03	1	155.508455051	155.748859858	"6"	4367.419929937	4362.032363103	1.5	0.1
0.01	1	0.292743530999815	1	118	NA	175.974912786	0	0.6	2.03	1	155.976058408	156.268801939	"6"	4367.419929937	4362.032363103	1.5	0.1
0.01	1	0.207397305000086	1	118	NA	175.974912786	0	0.6	2.03	1	156.493519296	156.700916601	"6"	4367.419929937	4362.032363103	1.5	0.1
0.01	1	0.284978723000222	1	118	NA	175.974912786	0	0.6	2.03	1	156.927590573	157.212569296	"6"	4367.419929937	4362.032363103	1.5	0.1
0.01	1	0.279662608999843	1	118	NA	175.974912786	0	0.6	2.03	1	157.445096818	157.724759427	"6"	4367.419929937	4362.032363103	1.5	0.1
0.01	1	0.250479809999888	1	118	NA	175.974912786	0	0.6	2.03	1	157.946010271	158.196490081	"6"	4367.419929937	4362.032363103	1.5	0.1
0.01	1	0.279217666000022	1	118	NA	175.974912786	0	0.6	2.03	1	158.430145281	158.709362947	"6"	4367.419929937	4362.032363103	1.5	0.1
0.01	1	0.208801452999978	1	118	NA	175.974912786	0	0.6	2.03	1	158.947767431	159.156568884	"6"	4367.419929937	4362.032363103	1.5	0.1
0.01	1	0.271264548999625	1	118	NA	175.974912786	0	0.6	2.03	1	159.381752366	159.653016915	"6"	4367.419929937	4362.032363103	1.5	0.1
0.01	1	0.27364737500011	1	118	NA	175.974912786	0	0.6	2.03	1	159.882601223	160.156248598	"6"	4367.419929937	4362.032363103	1.5	0.1
0.01	1	0.365116687999944	1	118	NA	175.974912786	0	0.6	2.03	1	160.383432271	160.748548959	"6"	4367.419929937	4362.032363103	1.5	0.1
0.01	1	0.315424947999873	1	118	NA	175.974912786	0	0.6	2.03	1	160.984379001	161.299803949	"6"	4367.419929937	4362.032363103	1.5	0.1
0.01	1	0.253464073000032	1	118	NA	175.974912786	0	0.6	2.03	1	161.535307423	161.788771496	"6"	4367.419929937	4362.032363103	1.5	0.1
0.01	1	0.313309536999895	1	118	NA	175.974912786	0	0.6	2.03	1	162.019453143	162.33276268	"6"	4367.419929937	4362.032363103	1.5	0.1
0.01	1	0.297996757999954	1	118	NA	175.974912786	0	0.6	2.03	1	162.570472691	162.868469449	"6"	4367.419929937	4362.032363103	1.5	0.1
0.01	1	0.268526934999954	1	118	NA	175.974912786	0	0.6	2.03	1	163.104730321	163.373257256	"6"	4367.419929937	4362.032363103	1.5	0.1
0.01	1	0.294827638000243	1	118	NA	175.974912786	0	0.6	2.03	1	163.605479906	163.900307544	"6"	4367.419929937	4362.032363103	1.5	0.1
0.01	1	0.288226828999996	1	118	NA	175.974912786	0	0.6	2.03	1	164.139717203	164.427944032	"6"	4367.419929937	4362.032363103	1.5	0.1
0.01	1	0.30819239199991	1	118	NA	175.974912786	0	0.6	2.03	1	164.657259721	164.965452113	"6"	4367.419929937	4362.032363103	1.5	0.1
0.01	1	0.268540185999882	1	118	NA	175.974912786	0	0.6	2.03	1	165.191511966	165.460052152	"6"	4367.419929937	4362.032363103	1.5	0.1
0.01	1	0.360785684999883	1	118	NA	175.974912786	0	0.6	2.03	1	165.692443006	166.053228691	"6"	4367.419929937	4362.032363103	1.5	0.1
0.01	1	2.16048691600008	1	118	NA	175.974912786	0	0.6	2.03	1	166.276685217	168.437172133	"6"	4367.419929937	4362.032363103	1.5	0.1
0.01	1	0.363941548000184	1	118	NA	175.974912786	0	0.6	2.03	1	168.663932781	169.027874329	"6"	4367.419929937	4362.032363103	1.5	0.1
0.01	1	0.428442922000158	1	118	NA	175.974912786	0	0.6	2.03	1	169.265024864	169.693467786	"6"	4367.419929937	4362.032363103	1.5	0.1
0.01	1	0.425215172999742	1	118	NA	175.974912786	0	0.6	2.03	1	169.916189566	170.341404739	"6"	4367.419929937	4362.032363103	1.5	0.1
0.01	1	0.396420285000204	1	118	NA	175.974912786	0	0.6	2.03	1	170.567214996	170.963635281	"6"	4367.419929937	4362.032363103	1.5	0.1
0.01	1	0.435383871999875	1	118	NA	175.974912786	0	0.6	2.03	1	171.201573601	171.636957473	"6"	4367.419929937	4362.032363103	1.5	0.1
0.01	1	0.366684137999982	1	118	NA	175.974912786	0	0.6	2.03	1	171.869378561	172.236062699	"6"	4367.419929937	4362.032363103	1.5	0.1
0.01	1	0.397142302999782	1	118	NA	175.974912786	0	0.6	2.03	1	172.470437226	172.867579529	"6"	4367.419929937	4362.032363103	1.5	0.1
0.01	1	0.442751861000033	1	118	NA	175.974912786	0	0.6	2.03	1	173.104803828	173.547555689	"6"	4367.419929937	4362.032363103	1.5	0.1
0.01	1	0.439394188000279	1	118	NA	175.974912786	0	0.6	2.03	1	173.772525918	174.211920106	"6"	4367.419929937	4362.032363103	1.5	0.1
0.01	1	1.53312788499989	2	118	NA	175.974912786	0	0.6	2.03	1	174.440240078	175.973367963	"6"	4367.419929937	4362.032363103	1.5	0.1
0.01	1	2.24457379599971	1	87	NA	220.949258199	0	0.7	2.73	1	178.029871156	180.274444952	"7"	4367.419929937	4362.032363103	1.5	0.1
0.01	1	0.151118802000383	1	87	NA	220.949258199	0	0.7	2.73	1	180.500624571	180.651743373	"7"	4367.419929937	4362.032363103	1.5	0.1
0.01	1	0.190756062000219	1	87	NA	220.949258199	0	0.7	2.73	1	180.88448409	181.075240152	"7"	4367.419929937	4362.032363103	1.5	0.1
0.01	1	0.206218325999998	1	87	NA	220.949258199	0	0.7	2.73	1	181.302025076	181.508243402	"7"	4367.419929937	4362.032363103	1.5	0.1
0.01	1	0.220068025999808	1	87	NA	220.949258199	0	0.7	2.73	1	181.736042363	181.956110389	"7"	4367.419929937	4362.032363103	1.5	0.1
0.01	1	0.145446965000247	1	87	NA	220.949258199	0	0.7	2.73	1	182.186861901	182.332308866	"7"	4367.419929937	4362.032363103	1.5	0.1
0.01	1	0.176994318000197	1	87	NA	220.949258199	0	0.7	2.73	1	182.570577843	182.747572161	"7"	4367.419929937	4362.032363103	1.5	0.1
0.01	1	0.263579237000158	1	87	NA	220.949258199	0	0.7	2.73	1	182.971341406	183.234920643	"7"	4367.419929937	4362.032363103	1.5	0.1
0.01	1	0.188046032999864	1	87	NA	220.949258199	0	0.7	2.73	1	183.472228873	183.660274906	"7"	4367.419929937	4362.032363103	1.5	0.1
0.01	1	0.250527053000042	1	87	NA	220.949258199	0	0.7	2.73	1	183.889657278	184.140184331	"7"	4367.419929937	4362.032363103	1.5	0.1
0.01	1	0.790449620000345	1	87	NA	220.949258199	0	0.7	2.73	1	184.373774216	185.164223836	"7"	4367.419929937	4362.032363103	1.5	0.1
0.01	1	0.194687449999947	1	87	NA	220.949258199	0	0.7	2.73	1	185.392117106	185.586804556	"7"	4367.419929937	4362.032363103	1.5	0.1
0.01	1	0.193979255999693	1	87	NA	220.949258199	0	0.7	2.73	1	185.809560658	186.003539914	"7"	4367.419929937	4362.032363103	1.5	0.1
0.01	1	0.128238969999984	1	87	NA	220.949258199	0	0.7	2.73	1	186.226936888	186.355175858	"7"	4367.419929937	4362.032363103	1.5	0.1
0.01	1	0.219010864999746	1	87	NA	220.949258199	0	0.7	2.73	1	186.577520636	186.796531501	"7"	4367.419929937	4362.032363103	1.5	0.1
0.01	1	0.216047897999943	1	87	NA	220.949258199	0	0.7	2.73	1	187.028180388	187.244228286	"7"	4367.419929937	4362.032363103	1.5	0.1
0.01	1	0.195716656000059	1	87	NA	220.949258199	0	0.7	2.73	1	187.479028096	187.674744752	"7"	4367.419929937	4362.032363103	1.5	0.1
0.01	1	0.218945071999769	1	87	NA	220.949258199	0	0.7	2.73	1	187.912907258	188.13185233	"7"	4367.419929937	4362.032363103	1.5	0.1
0.01	1	0.23055773499982	1	87	NA	220.949258199	0	0.7	2.73	1	188.363780751	188.594338486	"7"	4367.419929937	4362.032363103	1.5	0.1
0.01	1	0.508706446999895	1	87	NA	220.949258199	0	0.7	2.73	1	188.831320816	189.340027263	"7"	4367.419929937	4362.032363103	1.5	0.1
0.01	1	0.285536919000151	1	87	NA	220.949258199	0	0.7	2.73	1	189.565926386	189.851463305	"7"	4367.419929937	4362.032363103	1.5	0.1
0.01	1	0.24043586200014	1	87	NA	220.949258199	0	0.7	2.73	1	190.083389171	190.323825033	"7"	4367.419929937	4362.032363103	1.5	0.1
0.01	1	0.308083494999664	1	87	NA	220.949258199	0	0.7	2.73	1	190.550841491	190.858924986	"7"	4367.419929937	4362.032363103	1.5	0.1
0.01	1	0.286459403999743	1	87	NA	220.949258199	0	0.7	2.73	1	191.085173436	191.37163284	"7"	4367.419929937	4362.032363103	1.5	0.1
0.01	1	0.241612633999921	1	87	NA	220.949258199	0	0.7	2.73	1	191.602583161	191.844195795	"7"	4367.419929937	4362.032363103	1.5	0.1
0.01	1	0.269094474999747	1	87	NA	220.949258199	0	0.7	2.73	1	192.070047356	192.339141831	"7"	4367.419929937	4362.032363103	1.5	0.1
0.01	1	0.223916245000055	1	87	NA	220.949258199	0	0.7	2.73	1	192.570929196	192.794845441	"7"	4367.419929937	4362.032363103	1.5	0.1
0.01	1	0.269659625999793	1	87	NA	220.949258199	0	0.7	2.73	1	193.021638141	193.291297767	"7"	4367.419929937	4362.032363103	1.5	0.1
0.01	1	0.225757645999693	1	87	NA	220.949258199	0	0.7	2.73	1	193.522441907	193.748199553	"7"	4367.419929937	4362.032363103	1.5	0.1
0.01	1	0.269321483999647	1	87	NA	220.949258199	0	0.7	2.73	1	193.973233831	194.242555315	"7"	4367.419929937	4362.032363103	1.5	0.1
0.01	1	0.577608072000203	1	87	NA	220.949258199	0	0.7	2.73	1	194.474029031	195.051637103	"7"	4367.419929937	4362.032363103	1.5	0.1
0.01	1	0.24716938399979	1	87	NA	220.949258199	0	0.7	2.73	1	195.275393471	195.522562855	"7"	4367.419929937	4362.032363103	1.5	0.1
0.01	1	0.244215501999861	1	87	NA	220.949258199	0	0.7	2.73	1	195.759637551	196.003853053	"7"	4367.419929937	4362.032363103	1.5	0.1
0.01	1	0.264114933000201	1	87	NA	220.949258199	0	0.7	2.73	1	196.227043666	196.491158599	"7"	4367.419929937	4362.032363103	1.5	0.1
0.01	1	0.250961133000146	1	87	NA	220.949258199	0	0.7	2.73	1	196.727870776	196.978831909	"7"	4367.419929937	4362.032363103	1.5	0.1
0.01	1	0.231961881000188	1	87	NA	220.949258199	0	0.7	2.73	1	197.212017858	197.443979739	"7"	4367.419929937	4362.032363103	1.5	0.1
0.01	1	0.307157674999871	1	87	NA	220.949258199	0	0.7	2.73	1	197.679495548	197.986653223	"7"	4367.419929937	4362.032363103	1.5	0.1
0.01	1	0.261022034000234	1	87	NA	220.949258199	0	0.7	2.73	1	198.213666556	198.47468859	"7"	4367.419929937	4362.032363103	1.5	0.1
0.01	1	0.265726309999991	1	87	NA	220.949258199	0	0.7	2.73	1	198.697864756	198.963591066	"7"	4367.419929937	4362.032363103	1.5	0.1
0.01	1	0.325714059999882	1	87	NA	220.949258199	0	0.7	2.73	1	199.198621756	199.524335816	"7"	4367.419929937	4362.032363103	1.5	0.1
0.01	1	0.790229244999864	1	87	NA	220.949258199	0	0.7	2.73	1	199.749641126	200.539870371	"7"	4367.419929937	4362.032363103	1.5	0.1
0.01	1	0.307453419000012	1	87	NA	220.949258199	0	0.7	2.73	1	200.768011628	201.075465047	"7"	4367.419929937	4362.032363103	1.5	0.1
0.01	1	0.325031147000118	1	87	NA	220.949258199	0	0.7	2.73	1	201.302321631	201.627352778	"7"	4367.419929937	4362.032363103	1.5	0.1
0.01	1	0.295198979999896	1	87	NA	220.949258199	0	0.7	2.73	1	201.853194861	202.148393841	"7"	4367.419929937	4362.032363103	1.5	0.1
0.01	1	0.240819955000006	1	87	NA	220.949258199	0	0.7	2.73	1	202.387316073	202.628136028	"7"	4367.419929937	4362.032363103	1.5	0.1
0.01	1	0.252747994999936	1	87	NA	220.949258199	0	0.7	2.73	1	202.854768508	203.107516503	"7"	4367.419929937	4362.032363103	1.5	0.1
0.01	1	0.304163105000043	1	87	NA	220.949258199	0	0.7	2.73	1	203.338971388	203.643134493	"7"	4367.419929937	4362.032363103	1.5	0.1
0.01	1	0.258705004000149	1	87	NA	220.949258199	0	0.7	2.73	1	203.873197143	204.131902147	"7"	4367.419929937	4362.032363103	1.5	0.1
0.01	1	0.285254560999874	1	87	NA	220.949258199	0	0.7	2.73	1	204.357302606	204.642557167	"7"	4367.419929937	4362.032363103	1.5	0.1
0.01	1	0.416644204000022	1	87	NA	220.949258199	0	0.7	2.73	1	204.874776187	205.291420391	"7"	4367.419929937	4362.032363103	1.5	0.1
0.01	1	0.773731477000183	1	87	NA	220.949258199	0	0.7	2.73	1	205.525996008	206.299727485	"7"	4367.419929937	4362.032363103	1.5	0.1
0.01	1	0.394974061000084	1	87	NA	220.949258199	0	0.7	2.73	1	206.527704098	206.922678159	"7"	4367.419929937	4362.032363103	1.5	0.1
0.01	1	0.353527233000023	1	87	NA	220.949258199	0	0.7	2.73	1	207.145476406	207.499003639	"7"	4367.419929937	4362.032363103	1.5	0.1
0.01	1	0.321502079999846	1	87	NA	220.949258199	0	0.7	2.73	1	207.729628611	208.051130691	"7"	4367.419929937	4362.032363103	1.5	0.1
0.01	1	0.339370960999986	1	87	NA	220.949258199	0	0.7	2.73	1	208.280613831	208.619984792	"7"	4367.419929937	4362.032363103	1.5	0.1
0.01	1	0.323313181000231	1	87	NA	220.949258199	0	0.7	2.73	1	208.848283363	209.171596544	"7"	4367.419929937	4362.032363103	1.5	0.1
0.01	1	1.01291008499993	1	87	NA	220.949258199	0	0.7	2.73	1	209.399222556	210.412132641	"7"	4367.419929937	4362.032363103	1.5	0.1
0.01	1	0.296089119000044	1	87	NA	220.949258199	0	0.7	2.73	1	210.651284168	210.947373287	"7"	4367.419929937	4362.032363103	1.5	0.1
0.01	1	0.281965472999673	1	87	NA	220.949258199	0	0.7	2.73	1	211.185548678	211.467514151	"7"	4367.419929937	4362.032363103	1.5	0.1
0.01	1	0.356352344000243	1	87	NA	220.949258199	0	0.7	2.73	1	211.702999771	212.059352115	"7"	4367.419929937	4362.032363103	1.5	0.1
0.01	1	0.883160537999629	1	87	NA	220.949258199	0	0.7	2.73	1	212.287336673	213.170497211	"7"	4367.419929937	4362.032363103	1.5	0.1
0.01	1	0.349234333999902	1	87	NA	220.949258199	0	0.7	2.73	1	213.405881876	213.75511621	"7"	4367.419929937	4362.032363103	1.5	0.1
0.01	1	0.381620096999995	1	87	NA	220.949258199	0	0.7	2.73	1	213.990207178	214.371827275	"7"	4367.419929937	4362.032363103	1.5	0.1
0.01	1	0.339918700999988	1	87	NA	220.949258199	0	0.7	2.73	1	214.607984986	214.947903687	"7"	4367.419929937	4362.032363103	1.5	0.1
0.01	1	0.332495503000246	1	87	NA	220.949258199	0	0.7	2.73	1	215.175601358	215.508096861	"7"	4367.419929937	4362.032363103	1.5	0.1
0.01	1	0.628958852999858	1	87	NA	220.949258199	0	0.7	2.73	1	215.743233311	216.372192164	"7"	4367.419929937	4362.032363103	1.5	0.1
0.01	1	0.399980754999888	1	87	NA	220.949258199	0	0.7	2.73	1	216.594564691	216.994545446	"7"	4367.419929937	4362.032363103	1.5	0.1
0.01	1	0.453385805999915	1	87	NA	220.949258199	0	0.7	2.73	1	217.229038926	217.682424732	"7"	4367.419929937	4362.032363103	1.5	0.1
0.01	1	0.442473606000021	1	87	NA	220.949258199	0	0.7	2.73	1	217.913501658	218.355975264	"7"	4367.419929937	4362.032363103	1.5	0.1
0.01	1	0.382258095999987	1	87	NA	220.949258199	0	0.7	2.73	1	218.581266016	218.963524112	"7"	4367.419929937	4362.032363103	1.5	0.1
0.01	1	1.74870781199979	2	87	NA	220.949258199	0	0.7	2.73	1	219.198950081	220.947657893	"7"	4367.419929937	4362.032363103	1.5	0.1
0.01	1	1.32637744300018	1	6	226.899225246	NA	1	0	2.73	1	223.005368681	224.331746124	"8"	4367.419929937	4362.032363103	1.5	0.1
0.01	1	0.301769888999843	1	6	226.899225246	NA	1	0	2.73	1	224.558041001	224.85981089	"8"	4367.419929937	4362.032363103	1.5	0.1
0.01	1	0.256048947999716	1	6	226.899225246	NA	1	0	2.73	1	225.092230288	225.348279236	"8"	4367.419929937	4362.032363103	1.5	0.1
0.01	1	0.251466070000333	1	6	226.899225246	NA	1	0	2.73	1	225.576446551	225.827912621	"8"	4367.419929937	4362.032363103	1.5	0.1
0.01	1	0.246547792999991	1	6	226.899225246	NA	1	0	2.73	1	226.060528311	226.307076104	"8"	4367.419929937	4362.032363103	1.5	0.1
0.01	1	0.235017886999685	1	6	226.899225246	NA	1	0	2.73	1	226.544662191	226.779680078	"8"	4367.419929937	4362.032363103	1.5	0.1
0.01	1	3.65860966100036	1	106	NA	279.43081473	0	0.8	3.53	1	228.948703938	232.607313599	"9"	4367.419929937	4362.032363103	1.5	0.1
0.01	1	0.231641163999939	1	106	NA	279.43081473	0	0.8	3.53	1	232.838499106	233.07014027	"9"	4367.419929937	4362.032363103	1.5	0.1
0.01	1	0.252215971999703	1	106	NA	279.43081473	0	0.8	3.53	1	233.306003018	233.55821899	"9"	4367.419929937	4362.032363103	1.5	0.1
0.01	1	0.288817127000129	1	106	NA	279.43081473	0	0.8	3.53	1	233.790176911	234.078994038	"9"	4367.419929937	4362.032363103	1.5	0.1
0.01	1	0.265639414999896	1	106	NA	279.43081473	0	0.8	3.53	1	234.307765101	234.573404516	"9"	4367.419929937	4362.032363103	1.5	0.1
0.01	1	0.277013755999633	1	106	NA	279.43081473	0	0.8	3.53	1	234.808576763	235.085590519	"9"	4367.419929937	4362.032363103	1.5	0.1
0.01	1	0.273174787000244	1	106	NA	279.43081473	0	0.8	3.53	1	235.30948368	235.582658467	"9"	4367.419929937	4362.032363103	1.5	0.1
0.01	1	0.339916657000231	1	106	NA	279.43081473	0	0.8	3.53	1	235.810373261	236.150289918	"9"	4367.419929937	4362.032363103	1.5	0.1
0.01	1	0.309461155999998	1	106	NA	279.43081473	0	0.8	3.53	1	236.377823506	236.687284662	"9"	4367.419929937	4362.032363103	1.5	0.1
0.01	1	0.294449205000092	1	106	NA	279.43081473	0	0.8	3.53	1	236.912035181	237.206484386	"9"	4367.419929937	4362.032363103	1.5	0.1
0.01	1	0.28014064700028	1	106	NA	279.43081473	0	0.8	3.53	1	237.446352546	237.726493193	"9"	4367.419929937	4362.032363103	1.5	0.1
0.01	1	0.290033650000169	1	106	NA	279.43081473	0	0.8	3.53	1	237.963916996	238.253950646	"9"	4367.419929937	4362.032363103	1.5	0.1
0.01	1	0.27767670600042	1	106	NA	279.43081473	0	0.8	3.53	1	238.481367239	238.759043945	"9"	4367.419929937	4362.032363103	1.5	0.1
0.01	1	0.407623887999762	1	106	NA	279.43081473	0	0.8	3.53	1	238.982230053	239.389853941	"9"	4367.419929937	4362.032363103	1.5	0.1
0.01	1	0.350195689999964	1	106	NA	279.43081473	0	0.8	3.53	1	239.616656171	239.966851861	"9"	4367.419929937	4362.032363103	1.5	0.1
0.01	1	0.286119344000326	1	106	NA	279.43081473	0	0.8	3.53	1	240.200950751	240.487070095	"9"	4367.419929937	4362.032363103	1.5	0.1
0.01	1	0.278852422999989	1	106	NA	279.43081473	0	0.8	3.53	1	240.718417663	240.997270086	"9"	4367.419929937	4362.032363103	1.5	0.1
0.01	1	0.322300506999909	1	106	NA	279.43081473	0	0.8	3.53	1	241.219292636	241.541593143	"9"	4367.419929937	4362.032363103	1.5	0.1
0.01	1	0.316122998000083	1	106	NA	279.43081473	0	0.8	3.53	1	241.770454521	242.086577519	"9"	4367.419929937	4362.032363103	1.5	0.1
0.01	1	0.324554267000167	1	106	NA	279.43081473	0	0.8	3.53	1	242.321120426	242.645674693	"9"	4367.419929937	4362.032363103	1.5	0.1
0.01	1	0.454923075999886	1	106	NA	279.43081473	0	0.8	3.53	1	242.872080243	243.327003319	"9"	4367.419929937	4362.032363103	1.5	0.1
0.01	1	0.257293262000076	1	106	NA	279.43081473	0	0.8	3.53	1	243.556695271	243.813988533	"9"	4367.419929937	4362.032363103	1.5	0.1
0.01	1	0.277455820999876	1	106	NA	279.43081473	0	0.8	3.53	1	244.040726516	244.318182337	"9"	4367.419929937	4362.032363103	1.5	0.1
0.01	1	0.263551202000144	1	106	NA	279.43081473	0	0.8	3.53	1	244.558278206	244.821829408	"9"	4367.419929937	4362.032363103	1.5	0.1
0.01	1	0.307656955000311	1	106	NA	279.43081473	0	0.8	3.53	1	245.059141776	245.366798731	"9"	4367.419929937	4362.032363103	1.5	0.1
0.01	1	0.26925933099983	1	106	NA	279.43081473	0	0.8	3.53	1	245.59342187	245.862681201	"9"	4367.419929937	4362.032363103	1.5	0.1
0.01	1	0.295819682000001	1	106	NA	279.43081473	0	0.8	3.53	1	246.094161391	246.389981073	"9"	4367.419929937	4362.032363103	1.5	0.1
0.01	1	0.298611976999837	1	106	NA	279.43081473	0	0.8	3.53	1	246.611740211	246.910352188	"9"	4367.419929937	4362.032363103	1.5	0.1
0.01	1	0.317160448000323	1	106	NA	279.43081473	0	0.8	3.53	1	247.145919678	247.463080126	"9"	4367.419929937	4362.032363103	1.5	0.1
0.01	1	0.381150473000162	1	106	NA	279.43081473	0	0.8	3.53	1	247.696917316	248.078067789	"9"	4367.419929937	4362.032363103	1.5	0.1
0.01	1	0.308392836999701	1	106	NA	279.43081473	0	0.8	3.53	1	248.314585016	248.622977853	"9"	4367.419929937	4362.032363103	1.5	0.1
0.01	1	0.285527123000065	1	106	NA	279.43081473	0	0.8	3.53	1	248.848833966	249.134361089	"9"	4367.419929937	4362.032363103	1.5	0.1
0.01	1	0.272696582000208	1	106	NA	279.43081473	0	0.8	3.53	1	249.366381351	249.639077933	"9"	4367.419929937	4362.032363103	1.5	0.1
0.01	1	0.371970974000305	1	106	NA	279.43081473	0	0.8	3.53	1	249.867158378	250.239129352	"9"	4367.419929937	4362.032363103	1.5	0.1
0.01	1	0.273457371999939	1	106	NA	279.43081473	0	0.8	3.53	1	250.468262448	250.74171982	"9"	4367.419929937	4362.032363103	1.5	0.1
0.01	1	0.333989646999726	1	106	NA	279.43081473	0	0.8	3.53	1	250.969066751	251.303056398	"9"	4367.419929937	4362.032363103	1.5	0.1
0.01	1	0.301381067999955	1	106	NA	279.43081473	0	0.8	3.53	1	251.536765316	251.838146384	"9"	4367.419929937	4362.032363103	1.5	0.1
0.01	1	0.294858592999844	1	106	NA	279.43081473	0	0.8	3.53	1	252.070961416	252.365820009	"9"	4367.419929937	4362.032363103	1.5	0.1
0.01	1	0.290504596999654	1	106	NA	279.43081473	0	0.8	3.53	1	252.588419269	252.878923866	"9"	4367.419929937	4362.032363103	1.5	0.1
0.01	1	0.323843432000103	1	106	NA	279.43081473	0	0.8	3.53	1	253.105950946	253.429794378	"9"	4367.419929937	4362.032363103	1.5	0.1
0.01	1	0.413164945000062	1	106	NA	279.43081473	0	0.8	3.53	1	253.656958886	254.070123831	"9"	4367.419929937	4362.032363103	1.5	0.1
0.01	1	0.299189315000149	1	106	NA	279.43081473	0	0.8	3.53	1	254.307980446	254.607169761	"9"	4367.419929937	4362.032363103	1.5	0.1
0.01	1	0.267380848000357	1	106	NA	279.43081473	0	0.8	3.53	1	254.842172608	255.109553456	"9"	4367.419929937	4362.032363103	1.5	0.1
0.01	1	0.431202660000054	1	106	NA	279.43081473	0	0.8	3.53	1	255.343113618	255.774316278	"9"	4367.419929937	4362.032363103	1.5	0.1
0.01	1	0.340205813000011	1	106	NA	279.43081473	0	0.8	3.53	1	256.010852048	256.351057861	"9"	4367.419929937	4362.032363103	1.5	0.1
0.01	1	0.29157528199994	1	106	NA	279.43081473	0	0.8	3.53	1	256.578415436	256.869990718	"9"	4367.419929937	4362.032363103	1.5	0.1
0.01	1	0.286204693999935	1	106	NA	279.43081473	0	0.8	3.53	1	257.095932544	257.382137238	"9"	4367.419929937	4362.032363103	1.5	0.1
0.01	1	0.265816825000002	1	106	NA	279.43081473	0	0.8	3.53	1	257.613470838	257.879287663	"9"	4367.419929937	4362.032363103	1.5	0.1
0.01	1	0.33091382099974	1	106	NA	279.43081473	0	0.8	3.53	1	258.114370026	258.445283847	"9"	4367.419929937	4362.032363103	1.5	0.1
0.01	1	0.396200364999913	1	106	NA	279.43081473	0	0.8	3.53	1	258.681927483	259.078127848	"9"	4367.419929937	4362.032363103	1.5	0.1
0.01	1	0.362667056999726	1	106	NA	279.43081473	0	0.8	3.53	1	259.316498961	259.679166018	"9"	4367.419929937	4362.032363103	1.5	0.1
0.01	1	0.344833229999949	1	106	NA	279.43081473	0	0.8	3.53	1	259.917561776	260.262395006	"9"	4367.419929937	4362.032363103	1.5	0.1
0.01	1	0.352600378000261	1	106	NA	279.43081473	0	0.8	3.53	1	260.485099548	260.837699926	"9"	4367.419929937	4362.032363103	1.5	0.1
0.01	1	0.351911406999989	1	106	NA	279.43081473	0	0.8	3.53	1	261.069396288	261.421307695	"9"	4367.419929937	4362.032363103	1.5	0.1
0.01	1	0.280352823000158	1	106	NA	279.43081473	0	0.8	3.53	1	261.653636543	261.933989366	"9"	4367.419929937	4362.032363103	1.5	0.1
0.01	1	0.291855067999677	1	106	NA	279.43081473	0	0.8	3.53	1	262.171111061	262.462966129	"9"	4367.419929937	4362.032363103	1.5	0.1
0.01	1	0.301170941999771	1	106	NA	279.43081473	0	0.8	3.53	1	262.688784601	262.989955543	"9"	4367.419929937	4362.032363103	1.5	0.1
0.01	1	0.383609793000232	1	106	NA	279.43081473	0	0.8	3.53	1	263.223038086	263.606647879	"9"	4367.419929937	4362.032363103	1.5	0.1
0.01	1	0.341376009999749	1	106	NA	279.43081473	0	0.8	3.53	1	263.840609688	264.181985698	"9"	4367.419929937	4362.032363103	1.5	0.1
0.01	1	0.406146173999787	1	106	NA	279.43081473	0	0.8	3.53	1	264.408337683	264.814483857	"9"	4367.419929937	4362.032363103	1.5	0.1
0.01	1	0.531668454999817	1	106	NA	279.43081473	0	0.8	3.53	1	265.042699231	265.574367686	"9"	4367.419929937	4362.032363103	1.5	0.1
0.01	1	0.363988996999979	1	106	NA	279.43081473	0	0.8	3.53	1	265.81067012	266.174659117	"9"	4367.419929937	4362.032363103	1.5	0.1
0.01	1	0.386683102999996	1	106	NA	279.43081473	0	0.8	3.53	1	266.41170814	266.798391243	"9"	4367.419929937	4362.032363103	1.5	0.1
0.01	1	0.321386170999631	1	106	NA	279.43081473	0	0.8	3.53	1	267.029391217	267.350777388	"9"	4367.419929937	4362.032363103	1.5	0.1
0.01	1	0.353681670999777	1	106	NA	279.43081473	0	0.8	3.53	1	267.580273268	267.933954939	"9"	4367.419929937	4362.032363103	1.5	0.1
0.01	1	0.377434773999994	1	106	NA	279.43081473	0	0.8	3.53	1	268.164706121	268.542140895	"9"	4367.419929937	4362.032363103	1.5	0.1
0.01	1	0.35199963299965	1	106	NA	279.43081473	0	0.8	3.53	1	268.782404691	269.134404324	"9"	4367.419929937	4362.032363103	1.5	0.1
0.01	1	0.359648026999821	1	106	NA	279.43081473	0	0.8	3.53	1	269.366730841	269.726378868	"9"	4367.419929937	4362.032363103	1.5	0.1
0.01	1	0.391036608999912	1	106	NA	279.43081473	0	0.8	3.53	1	269.950895483	270.341932092	"9"	4367.419929937	4362.032363103	1.5	0.1
0.01	1	0.485388787999909	1	106	NA	279.43081473	0	0.8	3.53	1	270.568705076	271.054093864	"9"	4367.419929937	4362.032363103	1.5	0.1
0.01	1	0.816637143000207	1	106	NA	279.43081473	0	0.8	3.53	1	271.286608708	272.103245851	"9"	4367.419929937	4362.032363103	1.5	0.1
0.01	1	0.404741114999979	1	106	NA	279.43081473	0	0.8	3.53	1	272.338340106	272.743081221	"9"	4367.419929937	4362.032363103	1.5	0.1
0.01	1	0.408547048999935	1	106	NA	279.43081473	0	0.8	3.53	1	272.972784566	273.381331615	"9"	4367.419929937	4362.032363103	1.5	0.1
0.01	1	0.36637080499986	1	106	NA	279.43081473	0	0.8	3.53	1	273.607103768	273.973474573	"9"	4367.419929937	4362.032363103	1.5	0.1
0.01	1	0.414947150999978	1	106	NA	279.43081473	0	0.8	3.53	1	274.208149608	274.623096759	"9"	4367.419929937	4362.032363103	1.5	0.1
0.01	1	0.402288142999623	1	106	NA	279.43081473	0	0.8	3.53	1	274.859250896	275.261539039	"9"	4367.419929937	4362.032363103	1.5	0.1
0.01	1	0.46505629100011	1	106	NA	279.43081473	0	0.8	3.53	1	275.493668841	275.958725132	"9"	4367.419929937	4362.032363103	1.5	0.1
0.01	1	0.420243411000229	1	106	NA	279.43081473	0	0.8	3.53	1	276.194900076	276.615143487	"9"	4367.419929937	4362.032363103	1.5	0.1
0.01	1	0.440866567999819	1	106	NA	279.43081473	0	0.8	3.53	1	276.845899468	277.286766036	"9"	4367.419929937	4362.032363103	1.5	0.1
0.01	1	0.572644436999781	1	106	NA	279.43081473	0	0.8	3.53	1	277.513710446	278.086354883	"9"	4367.419929937	4362.032363103	1.5	0.1
0.01	1	1.11423398099987	2	106	NA	279.43081473	0	0.8	3.53	1	278.315016171	279.429250152	"9"	4367.419929937	4362.032363103	1.5	0.1
0.01	1	1.16051541499974	1	21	293.209550088	NA	1	0	3.53	1	281.470327131	282.630842546	"10"	4367.419929937	4362.032363103	1.5	0.1
0.01	1	0.34161524000001	1	21	293.209550088	NA	1	0	3.53	1	282.856062118	283.197677358	"10"	4367.419929937	4362.032363103	1.5	0.1
0.01	1	0.262041847000091	1	21	293.209550088	NA	1	0	3.53	1	283.423610951	283.685652798	"10"	4367.419929937	4362.032363103	1.5	0.1
0.01	1	0.265387251999982	1	21	293.209550088	NA	1	0	3.53	1	283.924409847	284.189797099	"10"	4367.419929937	4362.032363103	1.5	0.1
0.01	1	0.252981926999837	1	21	293.209550088	NA	1	0	3.53	1	284.425219506	284.678201433	"10"	4367.419929937	4362.032363103	1.5	0.1
0.01	1	0.224348597000244	1	21	293.209550088	NA	1	0	3.53	1	284.909442386	285.133790983	"10"	4367.419929937	4362.032363103	1.5	0.1
0.01	1	0.245017920999999	1	21	293.209550088	NA	1	0	3.53	1	285.360121506	285.605139427	"10"	4367.419929937	4362.032363103	1.5	0.1
0.01	1	0.233902245000081	1	21	293.209550088	NA	1	0	3.53	1	285.827575741	286.061477986	"10"	4367.419929937	4362.032363103	1.5	0.1
0.01	1	0.270958168000107	1	21	293.209550088	NA	1	0	3.53	1	286.295175223	286.566133391	"10"	4367.419929937	4362.032363103	1.5	0.1
0.01	1	0.258381199999803	1	21	293.209550088	NA	1	0	3.53	1	286.795898596	287.054279796	"10"	4367.419929937	4362.032363103	1.5	0.1
0.01	1	0.606331793999743	1	21	293.209550088	NA	1	0	3.53	1	287.280180626	287.88651242	"10"	4367.419929937	4362.032363103	1.5	0.1
0.01	1	0.226865236999856	1	21	293.209550088	NA	1	0	3.53	1	288.114848421	288.341713658	"10"	4367.419929937	4362.032363103	1.5	0.1
0.01	1	0.248635725999975	1	21	293.209550088	NA	1	0	3.53	1	288.56559821	288.814233936	"10"	4367.419929937	4362.032363103	1.5	0.1
0.01	1	0.268779019000249	1	21	293.209550088	NA	1	0	3.53	1	289.049692988	289.318472007	"10"	4367.419929937	4362.032363103	1.5	0.1
0.01	1	0.279844830000002	1	21	293.209550088	NA	1	0	3.53	1	289.550639348	289.830484178	"10"	4367.419929937	4362.032363103	1.5	0.1
0.01	1	0.258502798999871	1	21	293.209550088	NA	1	0	3.53	1	290.068099738	290.326602537	"10"	4367.419929937	4362.032363103	1.5	0.1
0.01	1	0.286025634999987	1	21	293.209550088	NA	1	0	3.53	1	290.552257068	290.838282703	"10"	4367.419929937	4362.032363103	1.5	0.1
0.01	1	0.304222924999976	1	21	293.209550088	NA	1	0	3.53	1	291.069764163	291.373987088	"10"	4367.419929937	4362.032363103	1.5	0.1
0.01	1	0.27328115399996	1	21	293.209550088	NA	1	0	3.53	1	291.604006421	291.877287575	"10"	4367.419929937	4362.032363103	1.5	0.1
0.01	1	0.253815728000063	1	21	293.209550088	NA	1	0	3.53	1	292.104798688	292.358614416	"10"	4367.419929937	4362.032363103	1.5	0.1
0.01	1	0.496210036000321	1	21	293.209550088	NA	1	0	3.53	1	292.588993193	293.085203229	"10"	4367.419929937	4362.032363103	1.5	0.1
0.01	1	0.977703482999914	1	19	305.364244551	NA	1	0	3.53	1	295.260245196	296.237948679	"11"	4367.419929937	4362.032363103	1.5	0.1
0.01	1	0.375391175000004	1	19	305.364244551	NA	1	0	3.53	1	296.478913901	296.854305076	"11"	4367.419929937	4362.032363103	1.5	0.1
0.01	1	0.383222558999933	1	19	305.364244551	NA	1	0	3.53	1	297.079963517	297.463186076	"11"	4367.419929937	4362.032363103	1.5	0.1
0.01	1	0.236452815000121	1	19	305.364244551	NA	1	0	3.53	1	297.697623556	297.934076371	"11"	4367.419929937	4362.032363103	1.5	0.1
0.01	1	0.225571882000168	1	19	305.364244551	NA	1	0	3.53	1	298.165171126	298.390743008	"11"	4367.419929937	4362.032363103	1.5	0.1
0.01	1	0.269677150000007	1	19	305.364244551	NA	1	0	3.53	1	298.615794336	298.885471486	"11"	4367.419929937	4362.032363103	1.5	0.1
0.01	1	0.208665208999719	1	19	305.364244551	NA	1	0	3.53	1	299.116683878	299.325349087	"11"	4367.419929937	4362.032363103	1.5	0.1
0.01	1	0.279379420999703	1	19	305.364244551	NA	1	0	3.53	1	299.550685706	299.830065127	"11"	4367.419929937	4362.032363103	1.5	0.1
0.01	1	0.273801276000086	1	19	305.364244551	NA	1	0	3.53	1	300.068293131	300.342094407	"11"	4367.419929937	4362.032363103	1.5	0.1
0.01	1	0.23753705099989	1	19	305.364244551	NA	1	0	3.53	1	300.569018421	300.806555472	"11"	4367.419929937	4362.032363103	1.5	0.1
0.01	1	0.409139662000143	1	19	305.364244551	NA	1	0	3.53	1	301.036693791	301.445833453	"11"	4367.419929937	4362.032363103	1.5	0.1
0.01	1	0.255733704000249	1	19	305.364244551	NA	1	0	3.53	1	301.670982851	301.926716555	"11"	4367.419929937	4362.032363103	1.5	0.1
0.01	1	0.259741856999881	1	19	305.364244551	NA	1	0	3.53	1	302.155110416	302.414852273	"11"	4367.419929937	4362.032363103	1.5	0.1
0.01	1	0.223177049999777	1	19	305.364244551	NA	1	0	3.53	1	302.639276338	302.862453388	"11"	4367.419929937	4362.032363103	1.5	0.1
0.01	1	0.212800344999778	1	19	305.364244551	NA	1	0	3.53	1	303.090008828	303.302809173	"11"	4367.419929937	4362.032363103	1.5	0.1
0.01	1	0.272535827999945	1	19	305.364244551	NA	1	0	3.53	1	303.540911838	303.813447666	"11"	4367.419929937	4362.032363103	1.5	0.1
0.01	1	0.236085082000045	1	19	305.364244551	NA	1	0	3.53	1	304.041666431	304.277751513	"11"	4367.419929937	4362.032363103	1.5	0.1
0.01	1	0.249138980000225	1	19	305.364244551	NA	1	0	3.53	1	304.509097001	304.758235981	"11"	4367.419929937	4362.032363103	1.5	0.1
0.01	1	0.260185772999648	1	19	305.364244551	NA	1	0	3.53	1	304.993236498	305.253422271	"11"	4367.419929937	4362.032363103	1.5	0.1
0.01	1	1.24660297899982	1	63	NA	314.886961843	0	0.12	3.65	1	307.413935816	308.660538795	"12"	4367.419929937	4362.032363103	1.5	0.1
0.01	1	0.201702247999947	1	63	NA	314.886961843	0	0.12	3.65	1	308.899868403	309.101570651	"12"	4367.419929937	4362.032363103	1.5	0.1
0.01	1	0.263723892000144	1	63	NA	314.886961843	0	0.12	3.65	1	309.333867986	309.597591878	"12"	4367.419929937	4362.032363103	1.5	0.1
0.01	1	0.274179848000131	1	63	NA	314.886961843	0	0.12	3.65	1	309.817913221	310.092093069	"12"	4367.419929937	4362.032363103	1.5	0.1
0.01	1	0.206425663000118	1	63	NA	314.886961843	0	0.12	3.65	1	310.318858066	310.525283729	"12"	4367.419929937	4362.032363103	1.5	0.1
0.01	1	0.283630249999987	1	63	NA	314.886961843	0	0.12	3.65	1	310.752878676	311.036508926	"12"	4367.419929937	4362.032363103	1.5	0.1
0.01	1	0.230600632000005	1	63	NA	314.886961843	0	0.12	3.65	1	311.270481093	311.501081725	"12"	4367.419929937	4362.032363103	1.5	0.1
0.01	1	0.210542159999932	1	63	NA	314.886961843	0	0.12	3.65	1	311.737819981	311.948362141	"12"	4367.419929937	4362.032363103	1.5	0.1
0.01	1	0.274000923000131	1	63	NA	314.886961843	0	0.12	3.65	1	312.171899016	312.445899939	"12"	4367.419929937	4362.032363103	1.5	0.1
0.01	1	0.308838773999923	1	63	NA	314.886961843	0	0.12	3.65	1	312.672887713	312.981726487	"12"	4367.419929937	4362.032363103	1.5	0.1
0.01	1	0.270829025000239	1	63	NA	314.886961843	0	0.12	3.65	1	313.207040651	313.477869676	"12"	4367.419929937	4362.032363103	1.5	0.1
0.01	1	0.281948020000073	1	63	NA	314.886961843	0	0.12	3.65	1	313.707805146	313.989753166	"12"	4367.419929937	4362.032363103	1.5	0.1
0.01	1	0.659970238999904	2	63	NA	314.886961843	0	0.12	3.65	1	314.225434411	314.88540465	"12"	4367.419929937	4362.032363103	1.5	0.1
0.01	1	0.457971595999879	1	54	344.362606546	NA	1	0	3.65	1	316.946664921	317.404636517	"13"	4367.419929937	4362.032363103	1.5	0.1
0.01	1	0.238446320999628	1	54	344.362606546	NA	1	0	3.65	1	317.631137931	317.869584252	"13"	4367.419929937	4362.032363103	1.5	0.1
0.01	1	0.225497501000063	1	54	344.362606546	NA	1	0	3.65	1	318.098569846	318.324067347	"13"	4367.419929937	4362.032363103	1.5	0.1
0.01	1	0.263704051999866	1	54	344.362606546	NA	1	0	3.65	1	318.549386316	318.813090368	"13"	4367.419929937	4362.032363103	1.5	0.1
0.01	1	0.202773609999895	1	54	344.362606546	NA	1	0	3.65	1	319.050197056	319.252970666	"13"	4367.419929937	4362.032363103	1.5	0.1
0.01	1	0.432722776999981	1	54	344.362606546	NA	1	0	3.65	1	319.484269638	319.916992415	"13"	4367.419929937	4362.032363103	1.5	0.1
0.01	1	0.220811437000066	1	54	344.362606546	NA	1	0	3.65	1	320.152135226	320.372946663	"13"	4367.419929937	4362.032363103	1.5	0.1
0.01	1	0.227005877000011	1	54	344.362606546	NA	1	0	3.65	1	320.602789758	320.829795635	"13"	4367.419929937	4362.032363103	1.5	0.1
0.01	1	0.278401532999851	1	54	344.362606546	NA	1	0	3.65	1	321.053655031	321.332056564	"13"	4367.419929937	4362.032363103	1.5	0.1
0.01	1	0.226461845999893	1	54	344.362606546	NA	1	0	3.65	1	321.554361446	321.780823292	"13"	4367.419929937	4362.032363103	1.5	0.1
0.01	1	0.215717949999998	1	54	344.362606546	NA	1	0	3.65	1	322.021763048	322.237480998	"13"	4367.419929937	4362.032363103	1.5	0.1
0.01	1	0.259959539000192	1	54	344.362606546	NA	1	0	3.65	1	322.472599688	322.732559227	"13"	4367.419929937	4362.032363103	1.5	0.1
0.01	1	0.265000639000391	1	54	344.362606546	NA	1	0	3.65	1	322.956769411	323.22177005	"13"	4367.419929937	4362.032363103	1.5	0.1
0.01	1	0.25085603999969	1	54	344.362606546	NA	1	0	3.65	1	323.457666198	323.708522238	"13"	4367.419929937	4362.032363103	1.5	0.1
0.01	1	0.255878690999907	1	54	344.362606546	NA	1	0	3.65	1	323.941662378	324.197541069	"13"	4367.419929937	4362.032363103	1.5	0.1
0.01	1	0.26765591000003	1	54	344.362606546	NA	1	0	3.65	1	324.425956251	324.693612161	"13"	4367.419929937	4362.032363103	1.5	0.1
0.01	1	0.230772682999941	1	54	344.362606546	NA	1	0	3.65	1	324.926796258	325.157568941	"13"	4367.419929937	4362.032363103	1.5	0.1
0.01	1	0.266635539000163	1	54	344.362606546	NA	1	0	3.65	1	325.394196391	325.66083193	"13"	4367.419929937	4362.032363103	1.5	0.1
0.01	1	0.25424368799986	1	54	344.362606546	NA	1	0	3.65	1	325.895079588	326.149323276	"13"	4367.419929937	4362.032363103	1.5	0.1
0.01	1	0.514782502999878	1	54	344.362606546	NA	1	0	3.65	1	326.379235001	326.894017504	"13"	4367.419929937	4362.032363103	1.5	0.1
0.01	1	0.275045263000266	1	54	344.362606546	NA	1	0	3.65	1	327.130484578	327.405529841	"13"	4367.419929937	4362.032363103	1.5	0.1
0.01	1	0.246737432999907	1	54	344.362606546	NA	1	0	3.65	1	327.631279757	327.87801719	"13"	4367.419929937	4362.032363103	1.5	0.1
0.01	1	0.296841415000017	1	54	344.362606546	NA	1	0	3.65	1	328.115406743	328.412248158	"13"	4367.419929937	4362.032363103	1.5	0.1
0.01	1	0.282291689999965	1	54	344.362606546	NA	1	0	3.65	1	328.649633279	328.931924969	"13"	4367.419929937	4362.032363103	1.5	0.1
0.01	1	0.244729127000028	1	54	344.362606546	NA	1	0	3.65	1	329.167222566	329.411951693	"13"	4367.419929937	4362.032363103	1.5	0.1
0.01	1	0.258929881999848	1	54	344.362606546	NA	1	0	3.65	1	329.634705016	329.893634898	"13"	4367.419929937	4362.032363103	1.5	0.1
0.01	1	0.262997164999888	1	54	344.362606546	NA	1	0	3.65	1	330.118799053	330.381796218	"13"	4367.419929937	4362.032363103	1.5	0.1
0.01	1	0.224616870999853	1	54	344.362606546	NA	1	0	3.65	1	330.619775616	330.844392487	"13"	4367.419929937	4362.032363103	1.5	0.1
0.01	1	0.271374398000262	1	54	344.362606546	NA	1	0	3.65	1	331.070373291	331.341747689	"13"	4367.419929937	4362.032363103	1.5	0.1
0.01	1	0.298491645000013	1	54	344.362606546	NA	1	0	3.65	1	331.571196331	331.869687976	"13"	4367.419929937	4362.032363103	1.5	0.1
0.01	1	0.258788410999841	1	54	344.362606546	NA	1	0	3.65	1	332.105549938	332.364338349	"13"	4367.419929937	4362.032363103	1.5	0.1
0.01	1	0.246947870999975	1	54	344.362606546	NA	1	0	3.65	1	332.589627756	332.836575627	"13"	4367.419929937	4362.032363103	1.5	0.1
0.01	1	0.283135018999928	1	54	344.362606546	NA	1	0	3.65	1	333.073805276	333.356940295	"13"	4367.419929937	4362.032363103	1.5	0.1
0.01	1	0.262355637999917	1	54	344.362606546	NA	1	0	3.65	1	333.591247351	333.853602989	"13"	4367.419929937	4362.032363103	1.5	0.1
0.01	1	0.256010756999785	1	54	344.362606546	NA	1	0	3.65	1	334.092122616	334.348133373	"13"	4367.419929937	4362.032363103	1.5	0.1
0.01	1	0.33357495700011	1	54	344.362606546	NA	1	0	3.65	1	334.576339801	334.909914758	"13"	4367.419929937	4362.032363103	1.5	0.1
0.01	1	0.237082917999942	1	54	344.362606546	NA	1	0	3.65	1	335.143878658	335.380961576	"13"	4367.419929937	4362.032363103	1.5	0.1
0.01	1	0.264947651000057	1	54	344.362606546	NA	1	0	3.65	1	335.611400421	335.876348072	"13"	4367.419929937	4362.032363103	1.5	0.1
0.01	1	0.309251348999624	1	54	344.362606546	NA	1	0	3.65	1	336.112289443	336.421540792	"13"	4367.419929937	4362.032363103	1.5	0.1
0.01	1	0.287100249000105	1	54	344.362606546	NA	1	0	3.65	1	336.646494189	336.933594438	"13"	4367.419929937	4362.032363103	1.5	0.1
0.01	1	0.296942673000103	1	54	344.362606546	NA	1	0	3.65	1	337.164004873	337.460947546	"13"	4367.419929937	4362.032363103	1.5	0.1
0.01	1	0.218353402000048	1	54	344.362606546	NA	1	0	3.65	1	337.698269821	337.916623223	"13"	4367.419929937	4362.032363103	1.5	0.1
0.01	1	0.287517281999953	1	54	344.362606546	NA	1	0	3.65	1	338.149033011	338.436550293	"13"	4367.419929937	4362.032363103	1.5	0.1
0.01	1	0.307435694000105	1	54	344.362606546	NA	1	0	3.65	1	338.666460096	338.97389579	"13"	4367.419929937	4362.032363103	1.5	0.1
0.01	1	0.284438393999608	1	54	344.362606546	NA	1	0	3.65	1	339.200707941	339.485146335	"13"	4367.419929937	4362.032363103	1.5	0.1
0.01	1	0.302309725999748	1	54	344.362606546	NA	1	0	3.65	1	339.718349241	340.020658967	"13"	4367.419929937	4362.032363103	1.5	0.1
0.01	1	0.26511636100031	1	54	344.362606546	NA	1	0	3.65	1	340.252499006	340.517615367	"13"	4367.419929937	4362.032363103	1.5	0.1
0.01	1	0.236579167999935	1	54	344.362606546	NA	1	0	3.65	1	340.753255791	340.989834959	"13"	4367.419929937	4362.032363103	1.5	0.1
0.01	1	0.271959911000067	1	54	344.362606546	NA	1	0	3.65	1	341.220794898	341.492754809	"13"	4367.419929937	4362.032363103	1.5	0.1
0.01	1	0.356297648999771	1	54	344.362606546	NA	1	0	3.65	1	341.721674823	342.077972472	"13"	4367.419929937	4362.032363103	1.5	0.1
0.01	1	0.427631132999977	1	54	344.362606546	NA	1	0	3.65	1	342.305959566	342.733590699	"13"	4367.419929937	4362.032363103	1.5	0.1
0.01	1	0.263943424999979	1	54	344.362606546	NA	1	0	3.65	1	342.957065056	343.221008481	"13"	4367.419929937	4362.032363103	1.5	0.1
0.01	1	0.251707111000087	1	54	344.362606546	NA	1	0	3.65	1	343.457937023	343.709644134	"13"	4367.419929937	4362.032363103	1.5	0.1
0.01	1	0.2952320280001	1	54	344.362606546	NA	1	0	3.65	1	343.942022338	344.237254366	"13"	4367.419929937	4362.032363103	1.5	0.1
0.01	1	0.567322313000204	1	103	NA	367.358176281	0	0.42	4.07	1	346.41280579	346.980128103	"14"	4367.419929937	4362.032363103	1.5	0.1
0.01	1	0.247464743999899	1	103	NA	367.358176281	0	0.42	4.07	1	347.214256161	347.461720905	"14"	4367.419929937	4362.032363103	1.5	0.1
0.01	1	0.194220164999933	1	103	NA	367.358176281	0	0.42	4.07	1	347.698288308	347.892508473	"14"	4367.419929937	4362.032363103	1.5	0.1
0.01	1	0.160835200000292	1	103	NA	367.358176281	0	0.42	4.07	1	348.115714126	348.276549326	"14"	4367.419929937	4362.032363103	1.5	0.1
0.01	1	0.138127249000263	1	103	NA	367.358176281	0	0.42	4.07	1	348.499700226	348.637827475	"14"	4367.419929937	4362.032363103	1.5	0.1
0.01	1	0.0976215569999113	1	103	NA	367.358176281	0	0.42	4.07	1	348.867019221	348.964640778	"14"	4367.419929937	4362.032363103	1.5	0.1
0.01	1	0.131334667999909	1	103	NA	367.358176281	0	0.42	4.07	1	349.200908038	349.332242706	"14"	4367.419929937	4362.032363103	1.5	0.1
0.01	1	0.0933607510000911	1	103	NA	367.358176281	0	0.42	4.07	1	349.568237076	349.661597827	"14"	4367.419929937	4362.032363103	1.5	0.1
0.01	1	0.158650654000212	1	103	NA	367.358176281	0	0.42	4.07	1	349.885375181	350.044025835	"14"	4367.419929937	4362.032363103	1.5	0.1
0.01	1	0.0955152819997238	1	103	NA	367.358176281	0	0.42	4.07	1	350.269315266	350.364830548	"14"	4367.419929937	4362.032363103	1.5	0.1
0.01	1	0.104590865000318	1	103	NA	367.358176281	0	0.42	4.07	1	350.603313516	350.707904381	"14"	4367.419929937	4362.032363103	1.5	0.1
0.01	1	0.0918806410004436	1	103	NA	367.358176281	0	0.42	4.07	1	350.937138576	351.029019217	"14"	4367.419929937	4362.032363103	1.5	0.1
0.01	1	0.11062697899979	1	103	NA	367.358176281	0	0.42	4.07	1	351.254343308	351.364970287	"14"	4367.419929937	4362.032363103	1.5	0.1
0.01	1	0.144137098000101	1	103	NA	367.358176281	0	0.42	4.07	1	351.588353101	351.732490199	"14"	4367.419929937	4362.032363103	1.5	0.1
0.01	1	0.122080479000033	1	103	NA	367.358176281	0	0.42	4.07	1	351.955498156	352.077578635	"14"	4367.419929937	4362.032363103	1.5	0.1
0.01	1	0.121944598000027	1	103	NA	367.358176281	0	0.42	4.07	1	352.306065738	352.428010336	"14"	4367.419929937	4362.032363103	1.5	0.1
0.01	1	0.108272296999985	1	103	NA	367.358176281	0	0.42	4.07	1	352.656768751	352.765041048	"14"	4367.419929937	4362.032363103	1.5	0.1
0.01	1	0.15927270200018	1	103	NA	367.358176281	0	0.42	4.07	1	352.990574183	353.149846885	"14"	4367.419929937	4362.032363103	1.5	0.1
0.01	1	0.13429729399968	1	103	NA	367.358176281	0	0.42	4.07	1	353.374521616	353.50881891	"14"	4367.419929937	4362.032363103	1.5	0.1
0.01	1	0.134992099000101	1	103	NA	367.358176281	0	0.42	4.07	1	353.741791776	353.876783875	"14"	4367.419929937	4362.032363103	1.5	0.1
0.01	1	0.144726924000224	1	103	NA	367.358176281	0	0.42	4.07	1	354.109239496	354.25396642	"14"	4367.419929937	4362.032363103	1.5	0.1
0.01	1	0.175919287999932	1	103	NA	367.358176281	0	0.42	4.07	1	354.476501126	354.652420414	"14"	4367.419929937	4362.032363103	1.5	0.1
0.01	1	0.328602969999793	1	103	NA	367.358176281	0	0.42	4.07	1	354.877089097	355.205692067	"14"	4367.419929937	4362.032363103	1.5	0.1
0.01	1	0.217087139999876	1	103	NA	367.358176281	0	0.42	4.07	1	355.428099501	355.645186641	"14"	4367.419929937	4362.032363103	1.5	0.1
0.01	1	0.182790987999851	1	103	NA	367.358176281	0	0.42	4.07	1	355.878806791	356.061597779	"14"	4367.419929937	4362.032363103	1.5	0.1
0.01	1	0.173057952000363	1	103	NA	367.358176281	0	0.42	4.07	1	356.296224261	356.469282213	"14"	4367.419929937	4362.032363103	1.5	0.1
0.01	1	0.228762350000125	1	103	NA	367.358176281	0	0.42	4.07	1	356.696766983	356.925529333	"14"	4367.419929937	4362.032363103	1.5	0.1
0.01	1	0.248222348000127	1	103	NA	367.358176281	0	0.42	4.07	1	357.164288203	357.412510551	"14"	4367.419929937	4362.032363103	1.5	0.1
0.01	1	0.251732508999794	1	103	NA	367.358176281	0	0.42	4.07	1	357.648427696	357.900160205	"14"	4367.419929937	4362.032363103	1.5	0.1
0.01	1	0.664230895999935	1	103	NA	367.358176281	0	0.42	4.07	1	358.132567661	358.796798557	"14"	4367.419929937	4362.032363103	1.5	0.1
0.01	1	0.227662890000374	1	103	NA	367.358176281	0	0.42	4.07	1	359.034136398	359.261799288	"14"	4367.419929937	4362.032363103	1.5	0.1
0.01	1	0.296170265000001	1	103	NA	367.358176281	0	0.42	4.07	1	359.484888036	359.781058301	"14"	4367.419929937	4362.032363103	1.5	0.1
0.01	1	0.250958775000072	1	103	NA	367.358176281	0	0.42	4.07	1	360.019030698	360.269989473	"14"	4367.419929937	4362.032363103	1.5	0.1
0.01	1	1.31693004300041	1	103	NA	367.358176281	0	0.42	4.07	1	360.503329951	361.820259994	"14"	4367.419929937	4362.032363103	1.5	0.1
0.01	1	0.292564514999867	1	103	NA	367.358176281	0	0.42	4.07	1	362.055946966	362.348511481	"14"	4367.419929937	4362.032363103	1.5	0.1
0.01	1	0.30279009800006	1	103	NA	367.358176281	0	0.42	4.07	1	362.573555401	362.876345499	"14"	4367.419929937	4362.032363103	1.5	0.1
0.01	1	0.265105491000213	1	103	NA	367.358176281	0	0.42	4.07	1	363.107690448	363.372795939	"14"	4367.419929937	4362.032363103	1.5	0.1
0.01	1	0.244880337000268	1	103	NA	367.358176281	0	0.42	4.07	1	363.608479123	363.85335946	"14"	4367.419929937	4362.032363103	1.5	0.1
0.01	1	0.297508572999959	1	103	NA	367.358176281	0	0.42	4.07	1	364.075916306	364.373424879	"14"	4367.419929937	4362.032363103	1.5	0.1
0.01	1	0.403136195000116	1	103	NA	367.358176281	0	0.42	4.07	1	364.610172646	365.013308841	"14"	4367.419929937	4362.032363103	1.5	0.1
0.01	1	0.833087474999957	1	103	NA	367.358176281	0	0.42	4.07	1	365.244502886	366.077590361	"14"	4367.419929937	4362.032363103	1.5	0.1
0.01	1	0.315792758000043	1	103	NA	367.358176281	0	0.42	4.07	1	366.313074371	366.628867129	"14"	4367.419929937	4362.032363103	1.5	0.1
0.01	1	0.492721850999715	2	103	NA	367.358176281	0	0.42	4.07	1	366.863912926	367.356634777	"14"	4367.419929937	4362.032363103	1.5	0.1
0.01	1	1.62856863700017	1	120	NA	414.66409322	0	0.900000000000001	4.97	1	369.384786461	371.013355098	"15"	4367.419929937	4362.032363103	1.5	0.1
0.01	1	0.0717566179996538	1	120	NA	414.66409322	0	0.900000000000001	4.97	1	371.254568628	371.326325246	"15"	4367.419929937	4362.032363103	1.5	0.1
0.01	1	0.139532217000124	1	120	NA	414.66409322	0	0.900000000000001	4.97	1	371.555098698	371.694630915	"15"	4367.419929937	4362.032363103	1.5	0.1
0.01	1	0.107612113999949	1	120	NA	414.66409322	0	0.900000000000001	4.97	1	371.922431616	372.03004373	"15"	4367.419929937	4362.032363103	1.5	0.1
0.01	1	0.109375372999693	1	120	NA	414.66409322	0	0.900000000000001	4.97	1	372.256383506	372.365758879	"15"	4367.419929937	4362.032363103	1.5	0.1
0.01	1	0.144129005000195	1	120	NA	414.66409322	0	0.900000000000001	4.97	1	372.590257581	372.734386586	"15"	4367.419929937	4362.032363103	1.5	0.1
0.01	1	0.120099612000104	1	120	NA	414.66409322	0	0.900000000000001	4.97	1	372.957510386	373.077609998	"15"	4367.419929937	4362.032363103	1.5	0.1
0.01	1	0.0979970520002098	1	120	NA	414.66409322	0	0.900000000000001	4.97	1	373.308212653	373.406209705	"15"	4367.419929937	4362.032363103	1.5	0.1
0.01	1	0.0687904819997129	1	120	NA	414.66409322	0	0.900000000000001	4.97	1	373.642046306	373.710836788	"15"	4367.419929937	4362.032363103	1.5	0.1
0.01	1	0.0316931209999893	1	120	NA	414.66409322	0	0.900000000000001	4.97	1	373.942483826	373.974176947	"15"	4367.419929937	4362.032363103	1.5	0.1
0.01	1	0.075689119999879	1	120	NA	414.66409322	0	0.900000000000001	4.97	1	374.209660823	374.285349943	"15"	4367.419929937	4362.032363103	1.5	0.1
0.01	1	0.111902783000005	1	120	NA	414.66409322	0	0.900000000000001	4.97	1	374.510210546	374.622113329	"15"	4367.419929937	4362.032363103	1.5	0.1
0.01	1	0.0972855459999664	1	120	NA	414.66409322	0	0.900000000000001	4.97	1	374.860720923	374.958006469	"15"	4367.419929937	4362.032363103	1.5	0.1
0.01	1	0.0829327240003295	1	120	NA	414.66409322	0	0.900000000000001	4.97	1	375.194568623	375.277501347	"15"	4367.419929937	4362.032363103	1.5	0.1
0.01	1	0.126565267000387	1	120	NA	414.66409322	0	0.900000000000001	4.97	1	375.511788449	375.638353716	"15"	4367.419929937	4362.032363103	1.5	0.1
0.01	1	0.0556499999997868	1	120	NA	414.66409322	0	0.900000000000001	4.97	1	375.862433018	375.918083018	"15"	4367.419929937	4362.032363103	1.5	0.1
0.01	1	0.131442468000387	1	120	NA	414.66409322	0	0.900000000000001	4.97	1	376.146232598	376.277675066	"15"	4367.419929937	4362.032363103	1.5	0.1
0.01	1	0.156542748999982	1	120	NA	414.66409322	0	0.900000000000001	4.97	1	376.513521086	376.670063835	"15"	4367.419929937	4362.032363103	1.5	0.1
0.01	1	0.188550835999649	1	120	NA	414.66409322	0	0.900000000000001	4.97	1	376.897422128	377.085972964	"15"	4367.419929937	4362.032363103	1.5	0.1
0.01	1	0.178420823000124	1	120	NA	414.66409322	0	0.900000000000001	4.97	1	377.314825786	377.493246609	"15"	4367.419929937	4362.032363103	1.5	0.1
0.01	1	0.170119257000351	1	120	NA	414.66409322	0	0.900000000000001	4.97	1	377.732154657	377.902273914	"15"	4367.419929937	4362.032363103	1.5	0.1
0.01	1	0.209524682999927	1	120	NA	414.66409322	0	0.900000000000001	4.97	1	378.132904456	378.342429139	"15"	4367.419929937	4362.032363103	1.5	0.1
0.01	1	0.1751153350001	1	120	NA	414.66409322	0	0.900000000000001	4.97	1	378.566988801	378.742104136	"15"	4367.419929937	4362.032363103	1.5	0.1
0.01	1	0.253399577999971	1	120	NA	414.66409322	0	0.900000000000001	4.97	1	378.967638946	379.221038524	"15"	4367.419929937	4362.032363103	1.5	0.1
0.01	1	0.202537147999919	1	120	NA	414.66409322	0	0.900000000000001	4.97	1	379.451856731	379.654393879	"15"	4367.419929937	4362.032363103	1.5	0.1
0.01	1	0.19183737100002	1	120	NA	414.66409322	0	0.900000000000001	4.97	1	379.885795981	380.077633352	"15"	4367.419929937	4362.032363103	1.5	0.1
0.01	1	0.191461933000028	1	120	NA	414.66409322	0	0.900000000000001	4.97	1	380.303190488	380.494652421	"15"	4367.419929937	4362.032363103	1.5	0.1
0.01	1	0.180661610999778	1	120	NA	414.66409322	0	0.900000000000001	4.97	1	380.720547216	380.901208827	"15"	4367.419929937	4362.032363103	1.5	0.1
0.01	1	0.21242948400004	1	120	NA	414.66409322	0	0.900000000000001	4.97	1	381.137892208	381.350321692	"15"	4367.419929937	4362.032363103	1.5	0.1
0.01	1	0.257064080999953	1	120	NA	414.66409322	0	0.900000000000001	4.97	1	381.588631026	381.845695107	"15"	4367.419929937	4362.032363103	1.5	0.1
0.01	1	0.141139502999977	1	120	NA	414.66409322	0	0.900000000000001	4.97	1	382.072826996	382.213966499	"15"	4367.419929937	4362.032363103	1.5	0.1
0.01	1	0.238351856000008	1	120	NA	414.66409322	0	0.900000000000001	4.97	1	382.440187381	382.678539237	"15"	4367.419929937	4362.032363103	1.5	0.1
0.01	1	0.177199082000243	1	120	NA	414.66409322	0	0.900000000000001	4.97	1	382.907635756	383.084834838	"15"	4367.419929937	4362.032363103	1.5	0.1
0.01	1	0.250291302999813	1	120	NA	414.66409322	0	0.900000000000001	4.97	1	383.308213578	383.558504881	"15"	4367.419929937	4362.032363103	1.5	0.1
0.01	1	0.23036061699986	1	120	NA	414.66409322	0	0.900000000000001	4.97	1	383.792331066	384.022691683	"15"	4367.419929937	4362.032363103	1.5	0.1
0.01	1	0.194724710000173	1	120	NA	414.66409322	0	0.900000000000001	4.97	1	384.259841063	384.454565773	"15"	4367.419929937	4362.032363103	1.5	0.1
0.01	1	0.240788122999675	1	120	NA	414.66409322	0	0.900000000000001	4.97	1	384.677209516	384.917997639	"15"	4367.419929937	4362.032363103	1.5	0.1
0.01	1	0.172318690000338	1	120	NA	414.66409322	0	0.900000000000001	4.97	1	385.144670046	385.316988736	"15"	4367.419929937	4362.032363103	1.5	0.1
0.01	1	0.260575473999779	1	120	NA	414.66409322	0	0.900000000000001	4.97	1	385.545342996	385.80591847	"15"	4367.419929937	4362.032363103	1.5	0.1
0.01	1	0.264795457000218	1	120	NA	414.66409322	0	0.900000000000001	4.97	1	386.029506926	386.294302383	"15"	4367.419929937	4362.032363103	1.5	0.1
0.01	1	0.307611421999809	1	120	NA	414.66409322	0	0.900000000000001	4.97	1	386.530350658	386.83796208	"15"	4367.419929937	4362.032363103	1.5	0.1
0.01	1	0.1980746119998	1	120	NA	414.66409322	0	0.900000000000001	4.97	1	387.064627466	387.262702078	"15"	4367.419929937	4362.032363103	1.5	0.1
0.01	1	0.23516763500038	1	120	NA	414.66409322	0	0.900000000000001	4.97	1	387.498817481	387.733985116	"15"	4367.419929937	4362.032363103	1.5	0.1
0.01	1	0.384193461999985	1	120	NA	414.66409322	0	0.900000000000001	4.97	1	387.966105096	388.350298558	"15"	4367.419929937	4362.032363103	1.5	0.1
0.01	1	0.213846416999786	1	120	NA	414.66409322	0	0.900000000000001	4.97	1	388.583786536	388.797632953	"15"	4367.419929937	4362.032363103	1.5	0.1
0.01	1	0.227389025999855	1	120	NA	414.66409322	0	0.900000000000001	4.97	1	389.034595583	389.261984609	"15"	4367.419929937	4362.032363103	1.5	0.1
0.01	1	0.232093735000035	1	120	NA	414.66409322	0	0.900000000000001	4.97	1	389.485255503	389.717349238	"15"	4367.419929937	4362.032363103	1.5	0.1
0.01	1	0.229573866999999	1	120	NA	414.66409322	0	0.900000000000001	4.97	1	389.952767283	390.18234115	"15"	4367.419929937	4362.032363103	1.5	0.1
0.01	1	0.225725270000112	1	120	NA	414.66409322	0	0.900000000000001	4.97	1	390.420292333	390.646017603	"15"	4367.419929937	4362.032363103	1.5	0.1
0.01	1	0.327080121999643	1	120	NA	414.66409322	0	0.900000000000001	4.97	1	390.870984103	391.198064225	"15"	4367.419929937	4362.032363103	1.5	0.1
0.01	1	0.360498690999975	1	120	NA	414.66409322	0	0.900000000000001	4.97	1	391.421934191	391.782432882	"15"	4367.419929937	4362.032363103	1.5	0.1
0.01	1	0.20866473299975	1	120	NA	414.66409322	0	0.900000000000001	4.97	1	392.006217526	392.214882259	"15"	4367.419929937	4362.032363103	1.5	0.1
0.01	1	0.332582615000319	1	120	NA	414.66409322	0	0.900000000000001	4.97	1	392.440236408	392.772819023	"15"	4367.419929937	4362.032363103	1.5	0.1
0.01	1	0.294773307000014	1	120	NA	414.66409322	0	0.900000000000001	4.97	1	393.007987726	393.302761033	"15"	4367.419929937	4362.032363103	1.5	0.1
0.01	1	0.481138473000101	1	120	NA	414.66409322	0	0.900000000000001	4.97	1	393.525541928	394.006680401	"15"	4367.419929937	4362.032363103	1.5	0.1
0.01	1	0.323331102999873	1	120	NA	414.66409322	0	0.900000000000001	4.97	1	394.243291118	394.566622221	"15"	4367.419929937	4362.032363103	1.5	0.1
0.01	1	0.276389990000098	1	120	NA	414.66409322	0	0.900000000000001	4.97	1	394.794231776	395.070621766	"15"	4367.419929937	4362.032363103	1.5	0.1
0.01	1	0.287740030999885	1	120	NA	414.66409322	0	0.900000000000001	4.97	1	395.295038128	395.582778159	"15"	4367.419929937	4362.032363103	1.5	0.1
0.01	1	0.241141099999822	1	120	NA	414.66409322	0	0.900000000000001	4.97	1	395.812559346	396.053700446	"15"	4367.419929937	4362.032363103	1.5	0.1
0.01	1	0.333437119999871	1	120	NA	414.66409322	0	0.900000000000001	4.97	1	396.280062858	396.613499978	"15"	4367.419929937	4362.032363103	1.5	0.1
0.01	1	0.398330312000326	1	120	NA	414.66409322	0	0.900000000000001	4.97	1	396.847670686	397.246000998	"15"	4367.419929937	4362.032363103	1.5	0.1
0.01	1	0.324173195000185	1	120	NA	414.66409322	0	0.900000000000001	4.97	1	397.482183041	397.806356236	"15"	4367.419929937	4362.032363103	1.5	0.1
0.01	1	0.276515461000145	1	120	NA	414.66409322	0	0.900000000000001	4.97	1	398.033019506	398.309534967	"15"	4367.419929937	4362.032363103	1.5	0.1
0.01	1	0.312590625000212	1	120	NA	414.66409322	0	0.900000000000001	4.97	1	398.533882261	398.846472886	"15"	4367.419929937	4362.032363103	1.5	0.1
0.01	1	0.321382030000223	1	120	NA	414.66409322	0	0.900000000000001	4.97	1	399.084684273	399.406066303	"15"	4367.419929937	4362.032363103	1.5	0.1
0.01	1	0.321559775999958	1	120	NA	414.66409322	0	0.900000000000001	4.97	1	399.635668161	399.957227937	"15"	4367.419929937	4362.032363103	1.5	0.1
0.01	1	0.315966307000053	1	120	NA	414.66409322	0	0.900000000000001	4.97	1	400.186602843	400.50256915	"15"	4367.419929937	4362.032363103	1.5	0.1
0.01	1	0.268483456000013	1	120	NA	414.66409322	0	0.900000000000001	4.97	1	400.737595911	401.006079367	"15"	4367.419929937	4362.032363103	1.5	0.1
0.01	1	0.447113869000077	1	120	NA	414.66409322	0	0.900000000000001	4.97	1	401.238421641	401.68553551	"15"	4367.419929937	4362.032363103	1.5	0.1
0.01	1	0.346980359000099	1	120	NA	414.66409322	0	0.900000000000001	4.97	1	401.922849598	402.269829957	"15"	4367.419929937	4362.032363103	1.5	0.1
0.01	1	0.315048872999796	1	120	NA	414.66409322	0	0.900000000000001	4.97	1	402.507249596	402.822298469	"15"	4367.419929937	4362.032363103	1.5	0.1
0.01	1	0.275876171000164	1	120	NA	414.66409322	0	0.900000000000001	4.97	1	403.058126434	403.334002605	"15"	4367.419929937	4362.032363103	1.5	0.1
0.01	1	0.311365874999865	1	120	NA	414.66409322	0	0.900000000000001	4.97	1	403.558955406	403.870321281	"15"	4367.419929937	4362.032363103	1.5	0.1
0.01	1	0.313417390999803	1	120	NA	414.66409322	0	0.900000000000001	4.97	1	404.093223426	404.406640817	"15"	4367.419929937	4362.032363103	1.5	0.1
0.01	1	0.34488604299986	1	120	NA	414.66409322	0	0.900000000000001	4.97	1	404.644136741	404.989022784	"15"	4367.419929937	4362.032363103	1.5	0.1
0.01	1	0.37017181300007	1	120	NA	414.66409322	0	0.900000000000001	4.97	1	405.228449313	405.598621126	"15"	4367.419929937	4362.032363103	1.5	0.1
0.01	1	0.351922114999979	1	120	NA	414.66409322	0	0.900000000000001	4.97	1	405.829483388	406.181405503	"15"	4367.419929937	4362.032363103	1.5	0.1
0.01	1	0.359762415000205	1	120	NA	414.66409322	0	0.900000000000001	4.97	1	406.413756371	406.773518786	"15"	4367.419929937	4362.032363103	1.5	0.1
0.01	1	0.343682348999664	1	120	NA	414.66409322	0	0.900000000000001	4.97	1	406.998096716	407.341779065	"15"	4367.419929937	4362.032363103	1.5	0.1
0.01	1	0.383629593000023	1	120	NA	414.66409322	0	0.900000000000001	4.97	1	407.565683168	407.949312761	"15"	4367.419929937	4362.032363103	1.5	0.1
0.01	1	0.582360165000409	1	120	NA	414.66409322	0	0.900000000000001	4.97	1	408.183493038	408.765853203	"15"	4367.419929937	4362.032363103	1.5	0.1
0.01	1	0.317039970999758	1	120	NA	414.66409322	0	0.900000000000001	4.97	1	409.001498406	409.318538377	"15"	4367.419929937	4362.032363103	1.5	0.1
0.01	1	0.285085567000351	1	120	NA	414.66409322	0	0.900000000000001	4.97	1	409.552345296	409.837430863	"15"	4367.419929937	4362.032363103	1.5	0.1
0.01	1	0.312104754999837	1	120	NA	414.66409322	0	0.900000000000001	4.97	1	410.069898426	410.382003181	"15"	4367.419929937	4362.032363103	1.5	0.1
0.01	1	0.320904359999986	1	120	NA	414.66409322	0	0.900000000000001	4.97	1	410.604231001	410.925135361	"15"	4367.419929937	4362.032363103	1.5	0.1
0.01	1	0.266117621999911	1	120	NA	414.66409322	0	0.900000000000001	4.97	1	411.155085688	411.42120331	"15"	4367.419929937	4362.032363103	1.5	0.1
0.01	1	0.365713181000046	1	120	NA	414.66409322	0	0.900000000000001	4.97	1	411.655885978	412.021599159	"15"	4367.419929937	4362.032363103	1.5	0.1
0.01	1	0.308636638999815	1	120	NA	414.66409322	0	0.900000000000001	4.97	1	412.256917446	412.565554085	"15"	4367.419929937	4362.032363103	1.5	0.1
0.01	1	0.317734414999904	1	120	NA	414.66409322	0	0.900000000000001	4.97	1	412.791244257	413.108978672	"15"	4367.419929937	4362.032363103	1.5	0.1
0.01	1	0.384729838000112	1	120	NA	414.66409322	0	0.900000000000001	4.97	1	413.342009691	413.726739529	"15"	4367.419929937	4362.032363103	1.5	0.1
0.01	1	0.702743723999902	2	120	NA	414.66409322	0	0.900000000000001	4.97	1	413.959798161	414.662541885	"15"	4367.419929937	4362.032363103	1.5	0.1
0.01	1	1.68322798500003	1	109	NA	469.464225726	0	1	5.97	1	416.697750936	418.380978921	"16"	4367.419929937	4362.032363103	1.5	0.1
0.01	1	0.203411586000129	1	109	NA	469.464225726	0	1	5.97	1	418.617683573	418.821095159	"16"	4367.419929937	4362.032363103	1.5	0.1
0.01	1	0.169978798999637	1	109	NA	469.464225726	0	1	5.97	1	419.05175095	419.221729749	"16"	4367.419929937	4362.032363103	1.5	0.1
0.01	1	0.18455338800004	1	109	NA	469.464225726	0	1	5.97	1	419.452319991	419.636873379	"16"	4367.419929937	4362.032363103	1.5	0.1
0.01	1	0.152449423999769	1	109	NA	469.464225726	0	1	5.97	1	419.869789088	420.022238512	"16"	4367.419929937	4362.032363103	1.5	0.1
0.01	1	0.192101183000432	1	109	NA	469.464225726	0	1	5.97	1	420.253654606	420.445755789	"16"	4367.419929937	4362.032363103	1.5	0.1
0.01	1	0.199734190000072	1	109	NA	469.464225726	0	1	5.97	1	420.671115066	420.870849256	"16"	4367.419929937	4362.032363103	1.5	0.1
0.01	1	0.149578205000125	1	109	NA	469.464225726	0	1	5.97	1	421.105105371	421.254683576	"16"	4367.419929937	4362.032363103	1.5	0.1
0.01	1	0.189500508000037	1	109	NA	469.464225726	0	1	5.97	1	421.489082671	421.678583179	"16"	4367.419929937	4362.032363103	1.5	0.1
0.01	1	0.14657055600037	1	109	NA	469.464225726	0	1	5.97	1	421.906487356	422.053057912	"16"	4367.419929937	4362.032363103	1.5	0.1
0.01	1	0.131579410000086	1	109	NA	469.464225726	0	1	5.97	1	422.290480368	422.422059778	"16"	4367.419929937	4362.032363103	1.5	0.1
0.01	1	0.155519157000072	1	109	NA	469.464225726	0	1	5.97	1	422.657720678	422.813239835	"16"	4367.419929937	4362.032363103	1.5	0.1
0.01	1	0.204128708000098	1	109	NA	469.464225726	0	1	5.97	1	423.041822671	423.245951379	"16"	4367.419929937	4362.032363103	1.5	0.1
0.01	1	0.1537179930001	1	109	NA	469.464225726	0	1	5.97	1	423.475883686	423.629601679	"16"	4367.419929937	4362.032363103	1.5	0.1
0.01	1	0.177083886000219	1	109	NA	469.464225726	0	1	5.97	1	423.859801758	424.036885644	"16"	4367.419929937	4362.032363103	1.5	0.1
0.01	1	0.160452811000141	1	109	NA	469.464225726	0	1	5.97	1	424.260424078	424.420876889	"16"	4367.419929937	4362.032363103	1.5	0.1
0.01	1	0.153592972000297	1	109	NA	469.464225726	0	1	5.97	1	424.661090641	424.814683613	"16"	4367.419929937	4362.032363103	1.5	0.1
0.01	1	0.152732873999867	1	109	NA	469.464225726	0	1	5.97	1	425.045012021	425.197744895	"16"	4367.419929937	4362.032363103	1.5	0.1
0.01	1	0.160979724999834	1	109	NA	469.464225726	0	1	5.97	1	425.429113701	425.590093426	"16"	4367.419929937	4362.032363103	1.5	0.1
0.01	1	0.137453957999696	1	109	NA	469.464225726	0	1	5.97	1	425.813065551	425.950519509	"16"	4367.419929937	4362.032363103	1.5	0.1
0.01	1	0.168473526999605	1	109	NA	469.464225726	0	1	5.97	1	426.180366903	426.34884043	"16"	4367.419929937	4362.032363103	1.5	0.1
0.01	1	0.168488095000157	1	109	NA	469.464225726	0	1	5.97	1	426.581052528	426.749540623	"16"	4367.419929937	4362.032363103	1.5	0.1
0.01	1	0.175971680000202	1	109	NA	469.464225726	0	1	5.97	1	426.981748911	427.157720591	"16"	4367.419929937	4362.032363103	1.5	0.1
0.01	1	0.208519136999712	1	109	NA	469.464225726	0	1	5.97	1	427.382278358	427.590797495	"16"	4367.419929937	4362.032363103	1.5	0.1
0.01	1	0.22998103000009	1	109	NA	469.464225726	0	1	5.97	1	427.816384176	428.046365206	"16"	4367.419929937	4362.032363103	1.5	0.1
0.01	1	0.16997559299989	1	109	NA	469.464225726	0	1	5.97	1	428.283911667	428.45388726	"16"	4367.419929937	4362.032363103	1.5	0.1
0.01	1	0.193963505999818	1	109	NA	469.464225726	0	1	5.97	1	428.684556981	428.878520487	"16"	4367.419929937	4362.032363103	1.5	0.1
0.01	1	0.192482513000414	1	109	NA	469.464225726	0	1	5.97	1	429.101958056	429.294440569	"16"	4367.419929937	4362.032363103	1.5	0.1
0.01	1	0.174189071000001	1	109	NA	469.464225726	0	1	5.97	1	429.519283218	429.693472289	"16"	4367.419929937	4362.032363103	1.5	0.1
0.01	1	0.17387927999971	1	109	NA	469.464225726	0	1	5.97	1	429.919995196	430.093874476	"16"	4367.419929937	4362.032363103	1.5	0.1
0.01	1	0.16515199000014	1	109	NA	469.464225726	0	1	5.97	1	430.320584876	430.485736866	"16"	4367.419929937	4362.032363103	1.5	0.1
0.01	1	0.171608617999937	1	109	NA	469.464225726	0	1	5.97	1	430.721269678	430.892878296	"16"	4367.419929937	4362.032363103	1.5	0.1
0.01	1	0.219240010000249	1	109	NA	469.464225726	0	1	5.97	1	431.122043436	431.341283446	"16"	4367.419929937	4362.032363103	1.5	0.1
0.01	1	0.233637085999817	1	109	NA	469.464225726	0	1	5.97	1	431.572844321	431.806481407	"16"	4367.419929937	4362.032363103	1.5	0.1
0.01	1	0.174284078000255	1	109	NA	469.464225726	0	1	5.97	1	432.040157068	432.214441146	"16"	4367.419929937	4362.032363103	1.5	0.1
0.01	1	0.188295316999756	1	109	NA	469.464225726	0	1	5.97	1	432.440917861	432.629213178	"16"	4367.419929937	4362.032363103	1.5	0.1
0.01	1	0.186570010999731	1	109	NA	469.464225726	0	1	5.97	1	432.858256768	433.044826779	"16"	4367.419929937	4362.032363103	1.5	0.1
0.01	1	0.187248297000224	1	109	NA	469.464225726	0	1	5.97	1	433.275565666	433.462813963	"16"	4367.419929937	4362.032363103	1.5	0.1
0.01	1	0.18545124100001	1	109	NA	469.464225726	0	1	5.97	1	433.692948126	433.878399367	"16"	4367.419929937	4362.032363103	1.5	0.1
0.01	1	0.190748161000101	1	109	NA	469.464225726	0	1	5.97	1	434.110441381	434.301189542	"16"	4367.419929937	4362.032363103	1.5	0.1
0.01	1	0.197991198000182	1	109	NA	469.464225726	0	1	5.97	1	434.527744116	434.725735314	"16"	4367.419929937	4362.032363103	1.5	0.1
0.01	1	0.195344850999845	1	109	NA	469.464225726	0	1	5.97	1	434.961774911	435.157119762	"16"	4367.419929937	4362.032363103	1.5	0.1
0.01	1	0.257978263000041	1	109	NA	469.464225726	0	1	5.97	1	435.379086436	435.637064699	"16"	4367.419929937	4362.032363103	1.5	0.1
0.01	1	0.255544474000089	1	109	NA	469.464225726	0	1	5.97	1	435.863261696	436.11880617	"16"	4367.419929937	4362.032363103	1.5	0.1
0.01	1	0.234291687999757	1	109	NA	469.464225726	0	1	5.97	1	436.347420011	436.581711699	"16"	4367.419929937	4362.032363103	1.5	0.1
0.01	1	0.230722877000062	1	109	NA	469.464225726	0	1	5.97	1	436.814869818	437.045592695	"16"	4367.419929937	4362.032363103	1.5	0.1
0.01	1	0.291722814999957	1	109	NA	469.464225726	0	1	5.97	1	437.282318881	437.574041696	"16"	4367.419929937	4362.032363103	1.5	0.1
0.01	1	0.29408361600008	1	109	NA	469.464225726	0	1	5.97	1	437.799968141	438.094051757	"16"	4367.419929937	4362.032363103	1.5	0.1
0.01	1	0.247003562000373	1	109	NA	469.464225726	0	1	5.97	1	438.334049036	438.581052598	"16"	4367.419929937	4362.032363103	1.5	0.1
0.01	1	0.323741791999964	1	109	NA	469.464225726	0	1	5.97	1	438.818253161	439.141994953	"16"	4367.419929937	4362.032363103	1.5	0.1
0.01	1	0.283870685999773	1	109	NA	469.464225726	0	1	5.97	1	439.369079363	439.652950049	"16"	4367.419929937	4362.032363103	1.5	0.1
0.01	1	0.303989837999779	1	109	NA	469.464225726	0	1	5.97	1	439.886674041	440.190663879	"16"	4367.419929937	4362.032363103	1.5	0.1
0.01	1	0.376784339999631	1	109	NA	469.464225726	0	1	5.97	1	440.420971128	440.797755468	"16"	4367.419929937	4362.032363103	1.5	0.1
0.01	1	0.351039594999747	1	109	NA	469.464225726	0	1	5.97	1	441.021942766	441.372982361	"16"	4367.419929937	4362.032363103	1.5	0.1
0.01	1	0.327388982999764	1	109	NA	469.464225726	0	1	5.97	1	441.606350576	441.933739559	"16"	4367.419929937	4362.032363103	1.5	0.1
0.01	1	0.295947183999942	1	109	NA	469.464225726	0	1	5.97	1	442.157175209	442.453122393	"16"	4367.419929937	4362.032363103	1.5	0.1
0.01	1	0.273928442999932	1	109	NA	469.464225726	0	1	5.97	1	442.691455443	442.965383886	"16"	4367.419929937	4362.032363103	1.5	0.1
0.01	1	0.293239064000318	1	109	NA	469.464225726	0	1	5.97	1	443.192290163	443.485529227	"16"	4367.419929937	4362.032363103	1.5	0.1
0.01	1	0.327660385999934	1	109	NA	469.464225726	0	1	5.97	1	443.709822941	444.037483327	"16"	4367.419929937	4362.032363103	1.5	0.1
0.01	1	0.345245680999597	1	109	NA	469.464225726	0	1	5.97	1	444.260765171	444.606010852	"16"	4367.419929937	4362.032363103	1.5	0.1
0.01	1	0.312647413999912	1	109	NA	469.464225726	0	1	5.97	1	444.845051736	445.15769915	"16"	4367.419929937	4362.032363103	1.5	0.1
0.01	1	0.370219331000044	1	109	NA	469.464225726	0	1	5.97	1	445.396005387	445.766224718	"16"	4367.419929937	4362.032363103	1.5	0.1
0.01	1	0.353278013999898	1	109	NA	469.464225726	0	1	5.97	1	445.996931316	446.35020933	"16"	4367.419929937	4362.032363103	1.5	0.1
0.01	1	0.312422068999695	1	109	NA	469.464225726	0	1	5.97	1	446.581269026	446.893691095	"16"	4367.419929937	4362.032363103	1.5	0.1
0.01	1	0.808828804999848	1	109	NA	469.464225726	0	1	5.97	1	447.132257559	447.941086364	"16"	4367.419929937	4362.032363103	1.5	0.1
0.01	1	0.335303452000062	1	109	NA	469.464225726	0	1	5.97	1	448.167315117	448.502618569	"16"	4367.419929937	4362.032363103	1.5	0.1
0.01	1	0.453974790999837	1	109	NA	469.464225726	0	1	5.97	1	448.734914576	449.188889367	"16"	4367.419929937	4362.032363103	1.5	0.1
0.01	1	0.393604733000302	1	109	NA	469.464225726	0	1	5.97	1	449.419390846	449.812995579	"16"	4367.419929937	4362.032363103	1.5	0.1
0.01	1	0.353172034000181	1	109	NA	469.464225726	0	1	5.97	1	450.037065746	450.39023778	"16"	4367.419929937	4362.032363103	1.5	0.1
0.01	1	0.319629620999876	1	109	NA	469.464225726	0	1	5.97	1	450.621412223	450.941041844	"16"	4367.419929937	4362.032363103	1.5	0.1
0.01	1	0.626437177999833	1	109	NA	469.464225726	0	1	5.97	1	451.172363631	451.798800809	"16"	4367.419929937	4362.032363103	1.5	0.1
0.01	1	0.358545534999848	1	109	NA	469.464225726	0	1	5.97	1	452.023868763	452.382414298	"16"	4367.419929937	4362.032363103	1.5	0.1
0.01	1	0.421147748999829	1	109	NA	469.464225726	0	1	5.97	1	452.608086726	453.029234475	"16"	4367.419929937	4362.032363103	1.5	0.1
0.01	1	0.299358940000275	1	109	NA	469.464225726	0	1	5.97	1	453.25924913	453.55860807	"16"	4367.419929937	4362.032363103	1.5	0.1
0.01	1	0.309107588999723	1	109	NA	469.464225726	0	1	5.97	1	453.793433551	454.10254114	"16"	4367.419929937	4362.032363103	1.5	0.1
0.01	1	0.309251274999951	1	109	NA	469.464225726	0	1	5.97	1	454.327619601	454.636870876	"16"	4367.419929937	4362.032363103	1.5	0.1
0.01	1	0.392159483000341	1	109	NA	469.464225726	0	1	5.97	1	454.861805161	455.253964644	"16"	4367.419929937	4362.032363103	1.5	0.1
0.01	1	0.334965123000075	1	109	NA	469.464225726	0	1	5.97	1	455.479565413	455.814530536	"16"	4367.419929937	4362.032363103	1.5	0.1
0.01	1	0.294079006999709	1	109	NA	469.464225726	0	1	5.97	1	456.047305046	456.341384053	"16"	4367.419929937	4362.032363103	1.5	0.1
0.01	1	0.449518939999962	1	109	NA	469.464225726	0	1	5.97	1	456.564691651	457.014210591	"16"	4367.419929937	4362.032363103	1.5	0.1
0.01	1	0.316735701000198	1	109	NA	469.464225726	0	1	5.97	1	457.249253796	457.565989497	"16"	4367.419929937	4362.032363103	1.5	0.1
0.01	1	0.278049682000074	1	109	NA	469.464225726	0	1	5.97	1	457.800246261	458.078295943	"16"	4367.419929937	4362.032363103	1.5	0.1
0.01	1	0.304713295000056	1	109	NA	469.464225726	0	1	5.97	1	458.301071518	458.605784813	"16"	4367.419929937	4362.032363103	1.5	0.1
0.01	1	0.30751542500002	1	109	NA	469.464225726	0	1	5.97	1	458.835314448	459.142829873	"16"	4367.419929937	4362.032363103	1.5	0.1
0.01	1	0.31635823500028	1	109	NA	469.464225726	0	1	5.97	1	459.369485308	459.685843543	"16"	4367.419929937	4362.032363103	1.5	0.1
0.01	1	0.309083397999984	1	109	NA	469.464225726	0	1	5.97	1	459.920423948	460.229507346	"16"	4367.419929937	4362.032363103	1.5	0.1
0.01	1	0.398831426000015	1	109	NA	469.464225726	0	1	5.97	1	460.454702341	460.853533767	"16"	4367.419929937	4362.032363103	1.5	0.1
0.01	1	0.26830573899997	1	109	NA	469.464225726	0	1	5.97	1	461.08901038	461.357316119	"16"	4367.419929937	4362.032363103	1.5	0.1
0.01	1	0.360249622000083	1	109	NA	469.464225726	0	1	5.97	1	461.589919328	461.95016895	"16"	4367.419929937	4362.032363103	1.5	0.1
0.01	1	0.392520529000194	1	109	NA	469.464225726	0	1	5.97	1	462.174246771	462.5667673	"16"	4367.419929937	4362.032363103	1.5	0.1
0.01	1	0.549232395999752	1	109	NA	469.464225726	0	1	5.97	1	462.791919676	463.341152072	"16"	4367.419929937	4362.032363103	1.5	0.1
0.01	1	0.301723895000123	1	109	NA	469.464225726	0	1	5.97	1	463.576651836	463.878375731	"16"	4367.419929937	4362.032363103	1.5	0.1
0.01	1	0.278898661999847	1	109	NA	469.464225726	0	1	5.97	1	464.110724481	464.389623143	"16"	4367.419929937	4362.032363103	1.5	0.1
0.01	1	0.322214659999645	1	109	NA	469.464225726	0	1	5.97	1	464.611624353	464.933839013	"16"	4367.419929937	4362.032363103	1.5	0.1
0.01	1	0.34022886799994	1	109	NA	469.464225726	0	1	5.97	1	465.162607938	465.502836806	"16"	4367.419929937	4362.032363103	1.5	0.1
0.01	1	0.323265782999897	1	109	NA	469.464225726	0	1	5.97	1	465.730227776	466.053493559	"16"	4367.419929937	4362.032363103	1.5	0.1
0.01	1	0.323955544	1	109	NA	469.464225726	0	1	5.97	1	466.281054741	466.605010285	"16"	4367.419929937	4362.032363103	1.5	0.1
0.01	1	0.372801310000341	1	109	NA	469.464225726	0	1	5.97	1	466.832065893	467.204867203	"16"	4367.419929937	4362.032363103	1.5	0.1
0.01	1	0.341183796999758	1	109	NA	469.464225726	0	1	5.97	1	467.432998748	467.774182545	"16"	4367.419929937	4362.032363103	1.5	0.1
0.01	1	0.32607000400003	1	109	NA	469.464225726	0	1	5.97	1	468.000668411	468.326738415	"16"	4367.419929937	4362.032363103	1.5	0.1
0.01	1	0.894356724999852	2	109	NA	469.464225726	0	1	5.97	1	468.568314246	469.462670971	"16"	4367.419929937	4362.032363103	1.5	0.1
0.01	1	1.56294863300036	1	71	504.899140776	NA	1	0	5.97	1	471.489880691	473.052829324	"17"	4367.419929937	4362.032363103	1.5	0.1
0.01	1	0.217397050999807	1	71	504.899140776	NA	1	0	5.97	1	473.292968248	473.510365299	"17"	4367.419929937	4362.032363103	1.5	0.1
0.01	1	0.230421258000206	1	71	504.899140776	NA	1	0	5.97	1	473.743608188	473.974029446	"17"	4367.419929937	4362.032363103	1.5	0.1
0.01	1	0.219812886	1	71	504.899140776	NA	1	0	5.97	1	474.211002481	474.430815367	"17"	4367.419929937	4362.032363103	1.5	0.1
0.01	1	0.231658861000142	1	71	504.899140776	NA	1	0	5.97	1	474.661922828	474.893581689	"17"	4367.419929937	4362.032363103	1.5	0.1
0.01	1	0.180734563999977	1	71	504.899140776	NA	1	0	5.97	1	475.129379441	475.310114005	"17"	4367.419929937	4362.032363103	1.5	0.1
0.01	1	0.194821531999878	1	71	504.899140776	NA	1	0	5.97	1	475.546802206	475.741623738	"17"	4367.419929937	4362.032363103	1.5	0.1
0.01	1	0.170348944000125	1	71	504.899140776	NA	1	0	5.97	1	475.964039436	476.13438838	"17"	4367.419929937	4362.032363103	1.5	0.1
0.01	1	0.169283455999903	1	71	504.899140776	NA	1	0	5.97	1	476.364688801	476.533972257	"17"	4367.419929937	4362.032363103	1.5	0.1
0.01	1	0.175883845000044	1	71	504.899140776	NA	1	0	5.97	1	476.765445358	476.941329203	"17"	4367.419929937	4362.032363103	1.5	0.1
0.01	1	0.168177686000035	1	71	504.899140776	NA	1	0	5.97	1	477.166041571	477.334219257	"17"	4367.419929937	4362.032363103	1.5	0.1
0.01	1	0.135072703000333	1	71	504.899140776	NA	1	0	5.97	1	477.566783308	477.701856011	"17"	4367.419929937	4362.032363103	1.5	0.1
0.01	1	0.135482356000011	1	71	504.899140776	NA	1	0	5.97	1	477.934022236	478.069504592	"17"	4367.419929937	4362.032363103	1.5	0.1
0.01	1	0.10345194599995	1	71	504.899140776	NA	1	0	5.97	1	478.301355196	478.404807142	"17"	4367.419929937	4362.032363103	1.5	0.1
0.01	1	0.170230197999899	1	71	504.899140776	NA	1	0	5.97	1	478.635261168	478.805491366	"17"	4367.419929937	4362.032363103	1.5	0.1
0.01	1	0.130832830000145	1	71	504.899140776	NA	1	0	5.97	1	479.035875298	479.166708128	"17"	4367.419929937	4362.032363103	1.5	0.1
0.01	1	0.129980881999927	1	71	504.899140776	NA	1	0	5.97	1	479.403151796	479.533132678	"17"	4367.419929937	4362.032363103	1.5	0.1
0.01	1	0.115729353000006	1	71	504.899140776	NA	1	0	5.97	1	479.770461931	479.886191284	"17"	4367.419929937	4362.032363103	1.5	0.1
0.01	1	0.157470720000219	1	71	504.899140776	NA	1	0	5.97	1	480.121140737	480.278611457	"17"	4367.419929937	4362.032363103	1.5	0.1
0.01	1	0.124519816999964	1	71	504.899140776	NA	1	0	5.97	1	480.505059036	480.629578853	"17"	4367.419929937	4362.032363103	1.5	0.1
0.01	1	0.143120568000086	1	71	504.899140776	NA	1	0	5.97	1	480.855606898	480.998727466	"17"	4367.419929937	4362.032363103	1.5	0.1
0.01	1	0.1585495180002	1	71	504.899140776	NA	1	0	5.97	1	481.222867328	481.381416846	"17"	4367.419929937	4362.032363103	1.5	0.1
0.01	1	0.207248923999941	1	71	504.899140776	NA	1	0	5.97	1	481.606840363	481.814089287	"17"	4367.419929937	4362.032363103	1.5	0.1
0.01	1	0.189838955000141	1	71	504.899140776	NA	1	0	5.97	1	482.041004077	482.230843032	"17"	4367.419929937	4362.032363103	1.5	0.1
0.01	1	0.202492516999882	1	71	504.899140776	NA	1	0	5.97	1	482.458284911	482.660777428	"17"	4367.419929937	4362.032363103	1.5	0.1
0.01	1	0.217917485000271	1	71	504.899140776	NA	1	0	5.97	1	482.892300671	483.110218156	"17"	4367.419929937	4362.032363103	1.5	0.1
0.01	1	0.174929009000152	1	71	504.899140776	NA	1	0	5.97	1	483.343123468	483.518052477	"17"	4367.419929937	4362.032363103	1.5	0.1
0.01	1	0.189120565000394	1	71	504.899140776	NA	1	0	5.97	1	483.743694614	483.932815179	"17"	4367.419929937	4362.032363103	1.5	0.1
0.01	1	0.164784839999811	1	71	504.899140776	NA	1	0	5.97	1	484.161176996	484.325961836	"17"	4367.419929937	4362.032363103	1.5	0.1
0.01	1	0.14004914599991	1	71	504.899140776	NA	1	0	5.97	1	484.561809081	484.701858227	"17"	4367.419929937	4362.032363103	1.5	0.1
0.01	1	0.172474091999902	1	71	504.899140776	NA	1	0	5.97	1	484.929067651	485.101541743	"17"	4367.419929937	4362.032363103	1.5	0.1
0.01	1	0.204094606000126	1	71	504.899140776	NA	1	0	5.97	1	485.329870963	485.533965569	"17"	4367.419929937	4362.032363103	1.5	0.1
0.01	1	0.201965486000063	1	71	504.899140776	NA	1	0	5.97	1	485.763897981	485.965863467	"17"	4367.419929937	4362.032363103	1.5	0.1
0.01	1	0.247562966999794	1	71	504.899140776	NA	1	0	5.97	1	486.197869616	486.445432583	"17"	4367.419929937	4362.032363103	1.5	0.1
0.01	1	0.908188645999871	1	71	504.899140776	NA	1	0	5.97	1	486.6820826	487.590271246	"17"	4367.419929937	4362.032363103	1.5	0.1
0.01	1	0.252501665999716	1	71	504.899140776	NA	1	0	5.97	1	487.817335963	488.069837629	"17"	4367.419929937	4362.032363103	1.5	0.1
0.01	1	0.200657529999717	1	71	504.899140776	NA	1	0	5.97	1	488.301417526	488.502075056	"17"	4367.419929937	4362.032363103	1.5	0.1
0.01	1	0.205868693999946	1	71	504.899140776	NA	1	0	5.97	1	488.735534478	488.941403172	"17"	4367.419929937	4362.032363103	1.5	0.1
0.01	1	0.189280492999842	1	71	504.899140776	NA	1	0	5.97	1	489.169618141	489.358898634	"17"	4367.419929937	4362.032363103	1.5	0.1
0.01	1	0.203248435000205	1	71	504.899140776	NA	1	0	5.97	1	489.586971861	489.790220296	"17"	4367.419929937	4362.032363103	1.5	0.1
0.01	1	0.177704766999796	1	71	504.899140776	NA	1	0	5.97	1	490.020966576	490.198671343	"17"	4367.419929937	4362.032363103	1.5	0.1
0.01	1	0.21553299299967	1	71	504.899140776	NA	1	0	5.97	1	490.421675651	490.637208644	"17"	4367.419929937	4362.032363103	1.5	0.1
0.01	1	0.229269126999952	1	71	504.899140776	NA	1	0	5.97	1	490.872451986	491.101721113	"17"	4367.419929937	4362.032363103	1.5	0.1
