"payoff.level"	"balloon"	"rt"	"resp"	"explode.trial"	"explode.time"	"finish.time"	"exploded"	"trial.total"	"cumulative.total"	"finished"	"trial.start"	"trial.end"	"trial.num"	"secs"	"start.time"	"iti"	"isi"
0.01	1	1.56799844000489	1	64	36.7165055900114	NA	1	0	0	1	0.0164943390118424	1.58449277901673	"1"	201707.668539567	201700.694144546	1.5	0.1
0.01	1	0.951080263010226	1	64	36.7165055900114	NA	1	0	0	1	1.96973049000371	2.92081075301394	"1"	201707.668539567	201700.694144546	1.5	0.1
0.01	1	0.893582652002806	1	64	36.7165055900114	NA	1	0	0	1	3.1550510720117	4.04863372401451	"1"	201707.668539567	201700.694144546	1.5	0.1
0.01	1	0.82308854299481	1	64	36.7165055900114	NA	1	0	0	1	4.27359066001372	5.09667920300853	"1"	201707.668539567	201700.694144546	1.5	0.1
0.01	1	0.684048872994026	1	64	36.7165055900114	NA	1	0	0	1	5.32529958401574	6.00934845700976	"1"	201707.668539567	201700.694144546	1.5	0.1
0.01	1	0.781269994011382	1	64	36.7165055900114	NA	1	0	0	1	6.24360861000605	7.02487860401743	"1"	201707.668539567	201700.694144546	1.5	0.1
0.01	1	0.658904331998201	1	64	36.7165055900114	NA	1	0	0	1	7.26205019201734	7.92095452401554	"1"	201707.668539567	201700.694144546	1.5	0.1
0.01	1	0.61434134299634	1	64	36.7165055900114	NA	1	0	0	1	8.14673762000166	8.761078962998	"1"	201707.668539567	201700.694144546	1.5	0.1
0.01	1	0.547401766001713	1	64	36.7165055900114	NA	1	0	0	1	8.99827618501149	9.5456779510132	"1"	201707.668539567	201700.694144546	1.5	0.1
0.01	1	0.55389914099942	1	64	36.7165055900114	NA	1	0	0	1	9.78291095999884	10.3368101009983	"1"	201707.668539567	201700.694144546	1.5	0.1
0.01	1	0.537290927983122	1	64	36.7165055900114	NA	1	0	0	1	10.5675807020161	11.1048716299993	"1"	201707.668539567	201700.694144546	1.5	0.1
0.01	1	0.481877851998433	1	64	36.7165055900114	NA	1	0	0	1	11.3354677550087	11.8173456070072	"1"	201707.668539567	201700.694144546	1.5	0.1
0.01	1	0.588307743018959	1	64	36.7165055900114	NA	1	0	0	1	12.0533940909954	12.6417018340144	"1"	201707.668539567	201700.694144546	1.5	0.1
0.01	1	0.441468410979724	1	64	36.7165055900114	NA	1	0	0	1	12.8714887100214	13.3129571210011	"1"	201707.668539567	201700.694144546	1.5	0.1
0.01	1	0.477221123001073	1	64	36.7165055900114	NA	1	0	0	1	13.5390891720017	14.0163102950028	"1"	201707.668539567	201700.694144546	1.5	0.1
0.01	1	0.400315216975287	1	64	36.7165055900114	NA	1	0	0	1	14.2570185820223	14.6573337989976	"1"	201707.668539567	201700.694144546	1.5	0.1
0.01	1	0.405357887007995	1	64	36.7165055900114	NA	1	0	0	1	14.8915312949975	15.2968891820055	"1"	201707.668539567	201700.694144546	1.5	0.1
0.01	1	0.322980934986845	1	64	36.7165055900114	NA	1	0	0	1	15.5258815250127	15.8488624599995	"1"	201707.668539567	201700.694144546	1.5	0.1
0.01	1	0.307855404011207	1	64	36.7165055900114	NA	1	0	0	1	16.0768287999963	16.3846842040075	"1"	201707.668539567	201700.694144546	1.5	0.1
0.01	1	0.334783516009338	1	64	36.7165055900114	NA	1	0	0	1	16.6110599249951	16.9458434410044	"1"	201707.668539567	201700.694144546	1.5	0.1
0.01	1	0.718624912988162	1	64	36.7165055900114	NA	1	0	0	1	17.1787343220203	17.8973592350085	"1"	201707.668539567	201700.694144546	1.5	0.1
0.01	1	0.27893062500516	1	64	36.7165055900114	NA	1	0	0	1	18.130220245017	18.4091508700221	"1"	201707.668539567	201700.694144546	1.5	0.1
0.01	1	0.240371663006954	1	64	36.7165055900114	NA	1	0	0	1	18.6477286900044	18.8881003530114	"1"	201707.668539567	201700.694144546	1.5	0.1
0.01	1	0.204818490019534	1	64	36.7165055900114	NA	1	0	0	1	19.1152315200015	19.3200500100211	"1"	201707.668539567	201700.694144546	1.5	0.1
0.01	1	0.29235708899796	1	64	36.7165055900114	NA	1	0	0	1	19.5492719850154	19.8416290740133	"1"	201707.668539567	201700.694144546	1.5	0.1
0.01	1	0.294825788005255	1	64	36.7165055900114	NA	1	0	0	1	20.0668607100088	20.361686498014	"1"	201707.668539567	201700.694144546	1.5	0.1
0.01	1	0.22423432598589	1	64	36.7165055900114	NA	1	0	0	1	20.6010448550223	20.8252791810082	"1"	201707.668539567	201700.694144546	1.5	0.1
0.01	1	0.14973804098554	1	64	36.7165055900114	NA	1	0	0	1	21.0517933900119	21.2015314309974	"1"	201707.668539567	201700.694144546	1.5	0.1
0.01	1	0.181806626002071	1	64	36.7165055900114	NA	1	0	0	1	21.4357995380124	21.6176061640144	"1"	201707.668539567	201700.694144546	1.5	0.1
0.01	1	0.17113987999619	1	64	36.7165055900114	NA	1	0	0	1	21.8532126799983	22.0243525599944	"1"	201707.668539567	201700.694144546	1.5	0.1
0.01	1	0.202832394978032	1	64	36.7165055900114	NA	1	0	0	1	22.2538693600218	22.4567017549998	"1"	201707.668539567	201700.694144546	1.5	0.1
0.01	1	0.136384849000024	1	64	36.7165055900114	NA	1	0	0	1	22.6880308830005	22.8244157320005	"1"	201707.668539567	201700.694144546	1.5	0.1
0.01	1	1.44175678800093	1	64	36.7165055900114	NA	1	0	0	1	23.0551887229958	24.4969455109967	"1"	201707.668539567	201700.694144546	1.5	0.1
0.01	1	0.299688770988723	1	64	36.7165055900114	NA	1	0	0	1	24.7246146100224	25.0243033810111	"1"	201707.668539567	201700.694144546	1.5	0.1
0.01	1	0.109787299006712	1	64	36.7165055900114	NA	1	0	0	1	25.2588996849954	25.3686869840021	"1"	201707.668539567	201700.694144546	1.5	0.1
0.01	1	0.0633793949964456	1	64	36.7165055900114	NA	1	0	0	1	25.5928232000151	25.6562025950116	"1"	201707.668539567	201700.694144546	1.5	0.1
0.01	1	0.0348612490051892	1	64	36.7165055900114	NA	1	0	0	1	25.8932969720045	25.9281582210097	"1"	201707.668539567	201700.694144546	1.5	0.1
0.01	1	0.0568795260041952	1	64	36.7165055900114	NA	1	0	0	1	26.1604187350022	26.2172982610064	"1"	201707.668539567	201700.694144546	1.5	0.1
0.01	1	0.317205630009994	1	64	36.7165055900114	NA	1	0	0	1	26.4441606799955	26.7613663100055	"1"	201707.668539567	201700.694144546	1.5	0.1
0.01	1	0.356880759994965	1	64	36.7165055900114	NA	1	0	0	1	26.9951284950075	27.3520092550025	"1"	201707.668539567	201700.694144546	1.5	0.1
0.01	1	0.86869883100735	1	64	36.7165055900114	NA	1	0	0	1	27.579423882009	28.4481227130163	"1"	201707.668539567	201700.694144546	1.5	0.1
0.01	1	0.104123008990427	1	64	36.7165055900114	NA	1	0	0	1	28.6813798350049	28.7855028439953	"1"	201707.668539567	201700.694144546	1.5	0.1
0.01	1	0.178346781991422	1	64	36.7165055900114	NA	1	0	0	1	29.0152035200153	29.1935503020068	"1"	201707.668539567	201700.694144546	1.5	0.1
0.01	1	0.105118195991963	1	64	36.7165055900114	NA	1	0	0	1	29.4158728250186	29.5209910210106	"1"	201707.668539567	201700.694144546	1.5	0.1
0.01	1	0.131720678997226	1	64	36.7165055900114	NA	1	0	0	1	29.7496659250173	29.8813866040146	"1"	201707.668539567	201700.694144546	1.5	0.1
0.01	1	0.0926840269821696	1	64	36.7165055900114	NA	1	0	0	1	30.1170424850134	30.2097265119955	"1"	201707.668539567	201700.694144546	1.5	0.1
0.01	1	0.238240001985105	1	64	36.7165055900114	NA	1	0	0	1	30.4342797170102	30.6725197189953	"1"	201707.668539567	201700.694144546	1.5	0.1
0.01	1	0.162781405000715	1	64	36.7165055900114	NA	1	0	0	1	30.901788290008	31.0645696950087	"1"	201707.668539567	201700.694144546	1.5	0.1
0.01	1	0.131109907000791	1	64	36.7165055900114	NA	1	0	0	1	31.3024471870158	31.4335570940166	"1"	201707.668539567	201700.694144546	1.5	0.1
0.01	1	0.315313903003698	1	64	36.7165055900114	NA	1	0	0	1	31.6696123800066	31.9849262830103	"1"	201707.668539567	201700.694144546	1.5	0.1
0.01	1	0.364634419005597	1	64	36.7165055900114	NA	1	0	0	1	32.2206449120131	32.5852793310187	"1"	201707.668539567	201700.694144546	1.5	0.1
0.01	1	0.0825944849930238	1	64	36.7165055900114	NA	1	0	0	1	32.8215958400106	32.9041903250036	"1"	201707.668539567	201700.694144546	1.5	0.1
0.01	1	0.0627622540050652	1	64	36.7165055900114	NA	1	0	0	1	33.1387979650171	33.2015602190222	"1"	201707.668539567	201700.694144546	1.5	0.1
0.01	1	0.0338891109859105	1	64	36.7165055900114	NA	1	0	0	1	33.4393809300091	33.473270040995	"1"	201707.668539567	201700.694144546	1.5	0.1
0.01	1	0.0381014599988703	1	64	36.7165055900114	NA	1	0	0	1	33.706430100021	33.7445315600198	"1"	201707.668539567	201700.694144546	1.5	0.1
0.01	1	0.0592201899853535	1	64	36.7165055900114	NA	1	0	0	1	33.9735878650099	34.0328080549953	"1"	201707.668539567	201700.694144546	1.5	0.1
0.01	1	0.0402389439987019	1	64	36.7165055900114	NA	1	0	0	1	34.2573293370078	34.2975682810065	"1"	201707.668539567	201700.694144546	1.5	0.1
0.01	1	0.0523930690251291	1	64	36.7165055900114	NA	1	0	0	1	34.5245142719941	34.5769073410193	"1"	201707.668539567	201700.694144546	1.5	0.1
0.01	1	0.0403508429881185	1	64	36.7165055900114	NA	1	0	0	1	34.8082353770151	34.8485862200032	"1"	201707.668539567	201700.694144546	1.5	0.1
0.01	1	0.0699523990042508	1	64	36.7165055900114	NA	1	0	0	1	35.0753922850126	35.1453446840169	"1"	201707.668539567	201700.694144546	1.5	0.1
0.01	1	0.393183747015428	1	64	36.7165055900114	NA	1	0	0	1	35.3758999819984	35.7690837290138	"1"	201707.668539567	201700.694144546	1.5	0.1
0.01	1	0.071040801005438	1	64	36.7165055900114	NA	1	0	0	1	35.9936788699997	36.0647196710052	"1"	201707.668539567	201700.694144546	1.5	0.1
0.01	1	0.049920558987651	1	64	36.7165055900114	NA	1	0	0	1	36.2942069870187	36.3441275460063	"1"	201707.668539567	201700.694144546	1.5	0.1
0.01	1	0.0235045979788993	1	64	36.7165055900114	NA	1	0	0	1	36.5779327250202	36.6014373229991	"1"	201707.668539567	201700.694144546	1.5	0.1
0.01	1	1.18057219998445	1	68	64.1271399950201	NA	1	0	0	1	38.7648726650223	39.9454448650067	"2"	201707.668539567	201700.694144546	1.5	0.1
0.01	1	0.232515379000688	1	68	64.1271399950201	NA	1	0	0	1	40.1840512450144	40.4165666240151	"2"	201707.668539567	201700.694144546	1.5	0.1
0.01	1	0.125019928993424	1	68	64.1271399950201	NA	1	0	0	1	40.6515015820041	40.7765215109976	"2"	201707.668539567	201700.694144546	1.5	0.1
0.01	1	0.0546515870082658	1	68	64.1271399950201	NA	1	0	0	1	41.0020162950095	41.0566678820178	"2"	201707.668539567	201700.694144546	1.5	0.1
0.01	1	0.066783206013497	1	68	64.1271399950201	NA	1	0	0	1	41.2858580370084	41.3526412430219	"2"	201707.668539567	201700.694144546	1.5	0.1
0.01	1	0.197999868978513	1	68	64.1271399950201	NA	1	0	0	1	41.5864210020227	41.7844208710012	"2"	201707.668539567	201700.694144546	1.5	0.1
0.01	1	0.125461041025119	1	68	64.1271399950201	NA	1	0	0	1	42.020365984994	42.1458270260191	"2"	201707.668539567	201700.694144546	1.5	0.1
0.01	1	0.0307470950065181	1	68	64.1271399950201	NA	1	0	0	1	42.3710607649991	42.4018078600056	"2"	201707.668539567	201700.694144546	1.5	0.1
0.01	1	0.0513524370035157	1	68	64.1271399950201	NA	1	0	0	1	42.6380413800071	42.6893938170106	"2"	201707.668539567	201700.694144546	1.5	0.1
0.01	1	0.00388417599606328	1	68	64.1271399950201	NA	1	0	0	1	42.9219304650032	42.9258146409993	"2"	201707.668539567	201700.694144546	1.5	0.1
0.01	1	0.452265789004741	1	68	64.1271399950201	NA	1	0	0	1	43.1556886000035	43.6079543890082	"2"	201707.668539567	201700.694144546	1.5	0.1
0.01	1	0.0167916950013023	1	68	64.1271399950201	NA	1	0	0	1	43.8401158369961	43.8569075319974	"2"	201707.668539567	201700.694144546	1.5	0.1
0.01	1	0.00833018499542959	1	68	64.1271399950201	NA	1	0	0	1	44.0905611540074	44.0988913390029	"2"	201707.668539567	201700.694144546	1.5	0.1
0.01	1	0.00399448498501442	1	68	64.1271399950201	NA	1	0	0	1	44.3243192800146	44.3283137649996	"2"	201707.668539567	201700.694144546	1.5	0.1
0.01	1	0.0187433300015982	1	68	64.1271399950201	NA	1	0	0	1	44.557976793003	44.5767201230046	"2"	201707.668539567	201700.694144546	1.5	0.1
0.01	1	0.0171446120075416	1	68	64.1271399950201	NA	1	0	0	1	44.8084549380001	44.8255995500076	"2"	201707.668539567	201700.694144546	1.5	0.1
0.01	1	0.00786992500070482	1	68	64.1271399950201	NA	1	0	0	1	45.0588389900222	45.0667089150229	"2"	201707.668539567	201700.694144546	1.5	0.1
0.01	1	0.0121625339961611	1	68	64.1271399950201	NA	1	0	0	1	45.2925155970152	45.3046781310113	"2"	201707.668539567	201700.694144546	1.5	0.1
0.01	1	0.00401345198042691	1	68	64.1271399950201	NA	1	0	0	1	45.5430407170206	45.5470541690011	"2"	201707.668539567	201700.694144546	1.5	0.1
0.01	1	0.00349280799855478	1	68	64.1271399950201	NA	1	0	0	1	45.7767658650118	45.7802586730104	"2"	201707.668539567	201700.694144546	1.5	0.1
0.01	1	0.173984338005539	1	68	64.1271399950201	NA	1	0	0	1	46.0103870750172	46.1843714130227	"2"	201707.668539567	201700.694144546	1.5	0.1
0.01	1	0.157546314992942	1	68	64.1271399950201	NA	1	0	0	1	46.411081660015	46.568627975008	"2"	201707.668539567	201700.694144546	1.5	0.1
0.01	1	0.0624671920086257	1	68	64.1271399950201	NA	1	0	0	1	46.7951720900019	46.8576392820105	"2"	201707.668539567	201700.694144546	1.5	0.1
0.01	1	0.00462797898217104	1	68	64.1271399950201	NA	1	0	0	1	47.0955237930175	47.1001517719997	"2"	201707.668539567	201700.694144546	1.5	0.1
0.01	1	0.00905875299940817	1	68	64.1271399950201	NA	1	0	0	1	47.3293034149974	47.3383621679968	"2"	201707.668539567	201700.694144546	1.5	0.1
0.01	1	0.0141967989911791	1	68	64.1271399950201	NA	1	0	0	1	47.5631212550215	47.5773180540127	"2"	201707.668539567	201700.694144546	1.5	0.1
0.01	1	0.00466425198828802	1	68	64.1271399950201	NA	1	0	0	1	47.8135049400153	47.8181691920036	"2"	201707.668539567	201700.694144546	1.5	0.1
0.01	1	0.00388139399001375	1	68	64.1271399950201	NA	1	0	0	1	48.0471847150184	48.0510661090084	"2"	201707.668539567	201700.694144546	1.5	0.1
0.01	1	0.0081502019893378	1	68	64.1271399950201	NA	1	0	0	1	48.2809315950144	48.2890817970037	"2"	201707.668539567	201700.694144546	1.5	0.1
0.01	1	0.0460587590059731	1	68	64.1271399950201	NA	1	0	0	1	48.5146944500157	48.5607532090216	"2"	201707.668539567	201700.694144546	1.5	0.1
0.01	1	0.722955289005768	1	68	64.1271399950201	NA	1	0	0	1	48.7985096820048	49.5214649710106	"2"	201707.668539567	201700.694144546	1.5	0.1
0.01	1	0.0195085779996589	1	68	64.1271399950201	NA	1	0	0	1	49.750135942013	49.7696445200127	"2"	201707.668539567	201700.694144546	1.5	0.1
0.01	1	0.0154773219837807	1	68	64.1271399950201	NA	1	0	0	1	50.0005212970136	50.0159986189974	"2"	201707.668539567	201700.694144546	1.5	0.1
0.01	1	0.00360067500150762	1	68	64.1271399950201	NA	1	0	0	1	50.2508268520178	50.2544275270193	"2"	201707.668539567	201700.694144546	1.5	0.1
0.01	1	0.00466226000571623	1	68	64.1271399950201	NA	1	0	0	1	50.4847566850076	50.4894189450133	"2"	201707.668539567	201700.694144546	1.5	0.1
0.01	1	0.00401450801291503	1	68	64.1271399950201	NA	1	0	0	1	50.7184150649991	50.7224295730121	"2"	201707.668539567	201700.694144546	1.5	0.1
0.01	1	0.0039212139963638	1	68	64.1271399950201	NA	1	0	0	1	50.9519854370155	50.9559066510119	"2"	201707.668539567	201700.694144546	1.5	0.1
0.01	1	0.166316362010548	1	68	64.1271399950201	NA	1	0	0	1	51.1857921750052	51.3521085370157	"2"	201707.668539567	201700.694144546	1.5	0.1
0.01	1	0.278218303981703	1	68	64.1271399950201	NA	1	0	0	1	51.5864463770122	51.8646646809939	"2"	201707.668539567	201700.694144546	1.5	0.1
0.01	1	0.152735799987568	1	68	64.1271399950201	NA	1	0	0	1	52.0873051950184	52.240040995006	"2"	201707.668539567	201700.694144546	1.5	0.1
0.01	1	0.376520607009297	1	68	64.1271399950201	NA	1	0	0	1	52.471388142003	52.8479087490123	"2"	201707.668539567	201700.694144546	1.5	0.1
0.01	1	0.0157286949979607	1	68	64.1271399950201	NA	1	0	0	1	53.0890256850107	53.1047543800087	"2"	201707.668539567	201700.694144546	1.5	0.1
0.01	1	0.0459218269970734	1	68	64.1271399950201	NA	1	0	0	1	53.3394972149981	53.3854190419952	"2"	201707.668539567	201700.694144546	1.5	0.1
0.01	1	0.0586668420000933	1	68	64.1271399950201	NA	1	0	0	1	53.623155230016	53.6818220720161	"2"	201707.668539567	201700.694144546	1.5	0.1
0.01	1	0.0535949810000602	1	68	64.1271399950201	NA	1	0	0	1	53.9069842400204	53.9605792210205	"2"	201707.668539567	201700.694144546	1.5	0.1
0.01	1	0.249686786002712	1	68	64.1271399950201	NA	1	0	0	1	54.1908785749984	54.4405653610011	"2"	201707.668539567	201700.694144546	1.5	0.1
0.01	1	0.198564168007579	1	68	64.1271399950201	NA	1	0	0	1	54.6750779669965	54.873642135004	"2"	201707.668539567	201700.694144546	1.5	0.1
0.01	1	0.116124709020369	1	68	64.1271399950201	NA	1	0	0	1	55.1090990749944	55.2252237840148	"2"	201707.668539567	201700.694144546	1.5	0.1
0.01	1	0.212441312003648	1	68	64.1271399950201	NA	1	0	0	1	55.4597409050039	55.6721822170075	"2"	201707.668539567	201700.694144546	1.5	0.1
0.01	1	0.25802583800396	1	68	64.1271399950201	NA	1	0	0	1	55.9103482250066	56.1683740630106	"2"	201707.668539567	201700.694144546	1.5	0.1
0.01	1	0.350925750011811	1	68	64.1271399950201	NA	1	0	0	1	56.3945607650094	56.7454865150212	"2"	201707.668539567	201700.694144546	1.5	0.1
0.01	1	0.126506542990683	1	68	64.1271399950201	NA	1	0	0	1	56.9788516870176	57.1053582300083	"2"	201707.668539567	201700.694144546	1.5	0.1
0.01	1	0.118661952001275	1	68	64.1271399950201	NA	1	0	0	1	57.3295247800124	57.4481867320137	"2"	201707.668539567	201700.694144546	1.5	0.1
0.01	1	0.0815227489802055	1	68	64.1271399950201	NA	1	0	0	1	57.6801139000163	57.7616366489965	"2"	201707.668539567	201700.694144546	1.5	0.1
0.01	1	0.0764236380055081	1	68	64.1271399950201	NA	1	0	0	1	57.9973106550169	58.0737342930224	"2"	201707.668539567	201700.694144546	1.5	0.1
0.01	1	0.134395233006217	1	68	64.1271399950201	NA	1	0	0	1	58.2978544619982	58.4322496950044	"2"	201707.668539567	201700.694144546	1.5	0.1
0.01	1	0.407023712992668	1	68	64.1271399950201	NA	1	0	0	1	58.6650189600186	59.0720426730113	"2"	201707.668539567	201700.694144546	1.5	0.1
0.01	1	0.0689700600050855	1	68	64.1271399950201	NA	1	0	0	1	59.299532392004	59.3685024520091	"2"	201707.668539567	201700.694144546	1.5	0.1
0.01	1	0.136085988982813	1	68	64.1271399950201	NA	1	0	0	1	59.5999709220196	59.7360569110024	"2"	201707.668539567	201700.694144546	1.5	0.1
0.01	1	0.267702075012494	1	68	64.1271399950201	NA	1	0	0	1	59.9672604619991	60.2349625370116	"2"	201707.668539567	201700.694144546	1.5	0.1
0.01	1	0.348151002981467	1	68	64.1271399950201	NA	1	0	0	1	60.4680808950216	60.816231898003	"2"	201707.668539567	201700.694144546	1.5	0.1
0.01	1	0.10899181701825	1	68	64.1271399950201	NA	1	0	0	1	61.0524554419972	61.1614472590154	"2"	201707.668539567	201700.694144546	1.5	0.1
0.01	1	0.126343765994534	1	68	64.1271399950201	NA	1	0	0	1	61.3862467569998	61.5125905229943	"2"	201707.668539567	201700.694144546	1.5	0.1
0.01	1	0.231814535014564	1	68	64.1271399950201	NA	1	0	0	1	61.7368433219963	61.9686578570108	"2"	201707.668539567	201700.694144546	1.5	0.1
0.01	1	0.563637076003943	1	68	64.1271399950201	NA	1	0	0	1	62.2043461500143	62.7679832260183	"2"	201707.668539567	201700.694144546	1.5	0.1
0.01	1	0.274661597999511	1	68	64.1271399950201	NA	1	0	0	1	63.0057505650038	63.2804121630033	"2"	201707.668539567	201700.694144546	1.5	0.1
0.01	1	0.165811139013385	1	68	64.1271399950201	NA	1	0	0	1	63.5065667330055	63.6723778720188	"2"	201707.668539567	201700.694144546	1.5	0.1
0.01	1	0.109195345983608	1	68	64.1271399950201	NA	1	0	0	1	63.9072042870102	64.0163996329939	"2"	201707.668539567	201700.694144546	1.5	0.1
0.01	1	0.704068847000599	1	33	78.8185510220064	NA	1	0	0	1	66.1609625600104	66.865031407011	"3"	201707.668539567	201700.694144546	1.5	0.1
0.01	1	0.193448167992756	1	33	78.8185510220064	NA	1	0	0	1	67.0959684050176	67.2894165730104	"3"	201707.668539567	201700.694144546	1.5	0.1
0.01	1	0.159570021991385	1	33	78.8185510220064	NA	1	0	0	1	67.5133202580037	67.672890279995	"3"	201707.668539567	201700.694144546	1.5	0.1
0.01	1	0.079994119994808	1	33	78.8185510220064	NA	1	0	0	1	67.8972705000197	67.9772646200145	"3"	201707.668539567	201700.694144546	1.5	0.1
0.01	1	0.0501861690136138	1	33	78.8185510220064	NA	1	0	0	1	68.2144803249976	68.2646664940112	"3"	201707.668539567	201700.694144546	1.5	0.1
0.01	1	0.10266949099605	1	33	78.8185510220064	NA	1	0	0	1	68.4983410520072	68.6010105430032	"3"	201707.668539567	201700.694144546	1.5	0.1
0.01	1	0.249759972997708	1	33	78.8185510220064	NA	1	0	0	1	68.8320816300111	69.0818416030088	"3"	201707.668539567	201700.694144546	1.5	0.1
0.01	1	0.165154002985219	1	33	78.8185510220064	NA	1	0	0	1	69.316237837018	69.4813918400032	"3"	201707.668539567	201700.694144546	1.5	0.1
0.01	1	0.124078527995152	1	33	78.8185510220064	NA	1	0	0	1	69.7170041020145	69.8410826300096	"3"	201707.668539567	201700.694144546	1.5	0.1
0.01	1	0.166123056987999	1	33	78.8185510220064	NA	1	0	0	1	70.0675149820163	70.2336380390043	"3"	201707.668539567	201700.694144546	1.5	0.1
0.01	1	0.412559844990028	1	33	78.8185510220064	NA	1	0	0	1	70.4682403120096	70.8808001569996	"3"	201707.668539567	201700.694144546	1.5	0.1
0.01	1	0.201057678990765	1	33	78.8185510220064	NA	1	0	0	1	71.1193071900052	71.320364868996	"3"	201707.668539567	201700.694144546	1.5	0.1
0.01	1	0.142566686990904	1	33	78.8185510220064	NA	1	0	0	1	71.5534714770038	71.6960381639947	"3"	201707.668539567	201700.694144546	1.5	0.1
0.01	1	0.144244719995186	1	33	78.8185510220064	NA	1	0	0	1	71.9207886500226	72.0650333700178	"3"	201707.668539567	201700.694144546	1.5	0.1
0.01	1	0.14399180500186	1	33	78.8185510220064	NA	1	0	0	1	72.2879013250058	72.4318931300077	"3"	201707.668539567	201700.694144546	1.5	0.1
0.01	1	0.153460589994211	1	33	78.8185510220064	NA	1	0	0	1	72.6552862350072	72.8087468250014	"3"	201707.668539567	201700.694144546	1.5	0.1
0.01	1	0.14494833801291	1	33	78.8185510220064	NA	1	0	0	1	73.0392411799985	73.1841895180114	"3"	201707.668539567	201700.694144546	1.5	0.1
0.01	1	0.114071094983956	1	33	78.8185510220064	NA	1	0	0	1	73.4232243650185	73.5372954600025	"3"	201707.668539567	201700.694144546	1.5	0.1
0.01	1	0.154172262002248	1	33	78.8185510220064	NA	1	0	0	1	73.7737627770111	73.9279350390134	"3"	201707.668539567	201700.694144546	1.5	0.1
0.01	1	0.339711073000217	1	33	78.8185510220064	NA	1	0	0	1	74.1578229320003	74.4975340050005	"3"	201707.668539567	201700.694144546	1.5	0.1
0.01	1	0.412215849995846	1	33	78.8185510220064	NA	1	0	0	1	74.7253535850032	75.137569434999	"3"	201707.668539567	201700.694144546	1.5	0.1
0.01	1	0.105105617985828	1	33	78.8185510220064	NA	1	0	0	1	75.3597348850162	75.4648405030021	"3"	201707.668539567	201700.694144546	1.5	0.1
0.01	1	0.0583748799981549	1	33	78.8185510220064	NA	1	0	0	1	75.693845575006	75.7522204550041	"3"	201707.668539567	201700.694144546	1.5	0.1
0.01	1	0.0319555689929985	1	33	78.8185510220064	NA	1	0	0	1	75.9775737950113	76.0095293640043	"3"	201707.668539567	201700.694144546	1.5	0.1
0.01	1	0.0532634599949233	1	33	78.8185510220064	NA	1	0	0	1	76.2446052650048	76.2978687249997	"3"	201707.668539567	201700.694144546	1.5	0.1
0.01	1	0.0807649470225442	1	33	78.8185510220064	NA	1	0	0	1	76.5283577149967	76.6091226620192	"3"	201707.668539567	201700.694144546	1.5	0.1
0.01	1	0.0505308819992933	1	33	78.8185510220064	NA	1	0	0	1	76.8456663670077	76.8961972490069	"3"	201707.668539567	201700.694144546	1.5	0.1
0.01	1	0.024264580977615	1	33	78.8185510220064	NA	1	0	0	1	77.1293710220198	77.1536356029974	"3"	201707.668539567	201700.694144546	1.5	0.1
0.01	1	0.0770977119973395	1	33	78.8185510220064	NA	1	0	0	1	77.3799539309985	77.4570516429958	"3"	201707.668539567	201700.694144546	1.5	0.1
0.01	1	0.105024843011051	1	33	78.8185510220064	NA	1	0	0	1	77.6802805970074	77.7853054400184	"3"	201707.668539567	201700.694144546	1.5	0.1
0.01	1	0.137816141010262	1	33	78.8185510220064	NA	1	0	0	1	78.0142846250092	78.1521007660194	"3"	201707.668539567	201700.694144546	1.5	0.1
0.01	1	0.0587236730207223	1	33	78.8185510220064	NA	1	0	0	1	78.3816160220013	78.440339695022	"3"	201707.668539567	201700.694144546	1.5	0.1
0.01	1	0.0403317989839707	1	33	78.8185510220064	NA	1	0	0	1	78.6652719300182	78.7056037290022	"3"	201707.668539567	201700.694144546	1.5	0.1
0.01	1	2.4348031830159	1	105	NA	103.56190678	0	0.6	0.6	1	80.8690084349946	83.3038116180105	"4"	201707.668539567	201700.694144546	1.5	0.1
0.01	1	0.245523299003253	1	105	NA	103.56190678	0	0.6	0.6	1	83.5402468749962	83.7857701739995	"4"	201707.668539567	201700.694144546	1.5	0.1
0.01	1	0.104810412012739	1	105	NA	103.56190678	0	0.6	0.6	1	84.0077031649998	84.1125135770126	"4"	201707.668539567	201700.694144546	1.5	0.1
0.01	1	0.0267304310109466	1	105	NA	103.56190678	0	0.6	0.6	1	84.3415744499944	84.3683048810053	"4"	201707.668539567	201700.694144546	1.5	0.1
0.01	1	0.0248051870148629	1	105	NA	103.56190678	0	0.6	0.6	1	84.5920726110053	84.6168777980201	"4"	201707.668539567	201700.694144546	1.5	0.1
0.01	1	0.0038611690106336	1	105	NA	103.56190678	0	0.6	0.6	1	84.8423934220045	84.8462545910152	"4"	201707.668539567	201700.694144546	1.5	0.1
0.01	1	0.00387286001932807	1	105	NA	103.56190678	0	0.6	0.6	1	85.0760884170013	85.0799612770206	"4"	201707.668539567	201700.694144546	1.5	0.1
0.01	1	0.00394145099562593	1	105	NA	103.56190678	0	0.6	0.6	1	85.3099179900018	85.3138594409975	"4"	201707.668539567	201700.694144546	1.5	0.1
0.01	1	0.00367119401926175	1	105	NA	103.56190678	0	0.6	0.6	1	85.5436140050006	85.5472851990198	"4"	201707.668539567	201700.694144546	1.5	0.1
0.01	1	0.00378761702449992	1	105	NA	103.56190678	0	0.6	0.6	1	85.7773202219978	85.7811078390223	"4"	201707.668539567	201700.694144546	1.5	0.1
0.01	1	0.677797543001361	1	105	NA	103.56190678	0	0.6	0.6	1	86.0110275300103	86.6888250730117	"4"	201707.668539567	201700.694144546	1.5	0.1
0.01	1	0.0158640130248386	1	105	NA	103.56190678	0	0.6	0.6	1	86.9292253199965	86.9450893330213	"4"	201707.668539567	201700.694144546	1.5	0.1
0.01	1	0.02140864401008	1	105	NA	103.56190678	0	0.6	0.6	1	87.1797663350007	87.2011749790108	"4"	201707.668539567	201700.694144546	1.5	0.1
0.01	1	0.0114015480212402	1	105	NA	103.56190678	0	0.6	0.6	1	87.4301278619969	87.4415294100181	"4"	201707.668539567	201700.694144546	1.5	0.1
0.01	1	0.00444325600983575	1	105	NA	103.56190678	0	0.6	0.6	1	87.6637517439958	87.6681950000057	"4"	201707.668539567	201700.694144546	1.5	0.1
0.01	1	0.0392162319913041	1	105	NA	103.56190678	0	0.6	0.6	1	87.8975359820179	87.9367522140092	"4"	201707.668539567	201700.694144546	1.5	0.1
0.01	1	0.0191928429994732	1	105	NA	103.56190678	0	0.6	0.6	1	88.1647113750223	88.1839042180218	"4"	201707.668539567	201700.694144546	1.5	0.1
0.01	1	0.00996510800905526	1	105	NA	103.56190678	0	0.6	0.6	1	88.415109405003	88.4250745130121	"4"	201707.668539567	201700.694144546	1.5	0.1
0.01	1	0.02488244799315	1	105	NA	103.56190678	0	0.6	0.6	1	88.6487871150021	88.6736695629952	"4"	201707.668539567	201700.694144546	1.5	0.1
0.01	1	0.102781433990458	1	105	NA	103.56190678	0	0.6	0.6	1	88.8992834350211	89.0020648690115	"4"	201707.668539567	201700.694144546	1.5	0.1
0.01	1	1.12767593501485	1	105	NA	103.56190678	0	0.6	0.6	1	89.2331734150066	90.3608493500215	"4"	201707.668539567	201700.694144546	1.5	0.1
0.01	1	0.0319364200113341	1	105	NA	103.56190678	0	0.6	0.6	1	90.6020456319966	90.6339820520079	"4"	201707.668539567	201700.694144546	1.5	0.1
0.01	1	0.00689902598969638	1	105	NA	103.56190678	0	0.6	0.6	1	90.8691741250223	90.876073151012	"4"	201707.668539567	201700.694144546	1.5	0.1
0.01	1	0.026661640004022	1	105	NA	103.56190678	0	0.6	0.6	1	91.1029685490066	91.1296301890106	"4"	201707.668539567	201700.694144546	1.5	0.1
0.01	1	0.0475968710088637	1	105	NA	103.56190678	0	0.6	0.6	1	91.3533153600001	91.400912231009	"4"	201707.668539567	201700.694144546	1.5	0.1
0.01	1	0.00386967899976298	1	105	NA	103.56190678	0	0.6	0.6	1	91.6371990900079	91.6410687690077	"4"	201707.668539567	201700.694144546	1.5	0.1
0.01	1	0.00993386897607706	1	105	NA	103.56190678	0	0.6	0.6	1	91.8709249420208	91.8808588109969	"4"	201707.668539567	201700.694144546	1.5	0.1
0.01	1	0.00394542998401448	1	105	NA	103.56190678	0	0.6	0.6	1	92.1046172350179	92.108562665002	"4"	201707.668539567	201700.694144546	1.5	0.1
0.01	1	0.00819773998227902	1	105	NA	103.56190678	0	0.6	0.6	1	92.3383910150151	92.3465887549974	"4"	201707.668539567	201700.694144546	1.5	0.1
0.01	1	0.22885250201216	1	105	NA	103.56190678	0	0.6	0.6	1	92.5721562450053	92.8010087470175	"4"	201707.668539567	201700.694144546	1.5	0.1
0.01	1	0.53021698599332	1	105	NA	103.56190678	0	0.6	0.6	1	93.0394473420165	93.5696643280098	"4"	201707.668539567	201700.694144546	1.5	0.1
0.01	1	0.00220398799865507	1	105	NA	103.56190678	0	0.6	0.6	1	93.8075033900095	93.8097073780082	"4"	201707.668539567	201700.694144546	1.5	0.1
0.01	1	0.00745822698809206	1	105	NA	103.56190678	0	0.6	0.6	1	94.0411974500166	94.0486556770047	"4"	201707.668539567	201700.694144546	1.5	0.1
0.01	1	0.00405096000758931	1	105	NA	103.56190678	0	0.6	0.6	1	94.2749795750133	94.2790305350209	"4"	201707.668539567	201700.694144546	1.5	0.1
0.01	1	0.0080491760163568	1	105	NA	103.56190678	0	0.6	0.6	1	94.5085870269977	94.5166362030141	"4"	201707.668539567	201700.694144546	1.5	0.1
0.01	1	0.00416916300309822	1	105	NA	103.56190678	0	0.6	0.6	1	94.7424180800153	94.7465872430184	"4"	201707.668539567	201700.694144546	1.5	0.1
0.01	1	0.00463434497942217	1	105	NA	103.56190678	0	0.6	0.6	1	94.9760570250219	94.9806913700013	"4"	201707.668539567	201700.694144546	1.5	0.1
0.01	1	0.00394653299008496	1	105	NA	103.56190678	0	0.6	0.6	1	95.2098693200096	95.2138158529997	"4"	201707.668539567	201700.694144546	1.5	0.1
0.01	1	0.0773408839886542	1	105	NA	103.56190678	0	0.6	0.6	1	95.4435807200207	95.5209216040093	"4"	201707.668539567	201700.694144546	1.5	0.1
0.01	1	0.137309204990743	1	105	NA	103.56190678	0	0.6	0.6	1	95.7441809300217	95.8814901350124	"4"	201707.668539567	201700.694144546	1.5	0.1
0.01	1	0.449651405011537	1	105	NA	103.56190678	0	0.6	0.6	1	96.1113717170083	96.5610231220198	"4"	201707.668539567	201700.694144546	1.5	0.1
0.01	1	0.0140129050123505	1	105	NA	103.56190678	0	0.6	0.6	1	96.7958713650005	96.8098842700128	"4"	201707.668539567	201700.694144546	1.5	0.1
0.01	1	0.0434124429884832	1	105	NA	103.56190678	0	0.6	0.6	1	97.0461924500123	97.0896048930008	"4"	201707.668539567	201700.694144546	1.5	0.1
0.01	1	0.0306176799931563	1	105	NA	103.56190678	0	0.6	0.6	1	97.3132965720142	97.3439142520074	"4"	201707.668539567	201700.694144546	1.5	0.1
0.01	1	0.0198602429882158	1	105	NA	103.56190678	0	0.6	0.6	1	97.580534800014	97.6003950430022	"4"	201707.668539567	201700.694144546	1.5	0.1
0.01	1	0.033857567992527	1	105	NA	103.56190678	0	0.6	0.6	1	97.8308732770092	97.8647308450018	"4"	201707.668539567	201700.694144546	1.5	0.1
0.01	1	0.0302656209969427	1	105	NA	103.56190678	0	0.6	0.6	1	98.0979383370141	98.128203958011	"4"	201707.668539567	201700.694144546	1.5	0.1
0.01	1	0.0271468030114193	1	105	NA	103.56190678	0	0.6	0.6	1	98.3651362000091	98.3922830030206	"4"	201707.668539567	201700.694144546	1.5	0.1
0.01	1	0.0416262999933679	1	105	NA	103.56190678	0	0.6	0.6	1	98.6155042920145	98.6571305920079	"4"	201707.668539567	201700.694144546	1.5	0.1
0.01	1	0.189592595997965	1	105	NA	103.56190678	0	0.6	0.6	1	98.882742404996	99.0723350009939	"4"	201707.668539567	201700.694144546	1.5	0.1
0.01	1	0.357742541003972	1	105	NA	103.56190678	0	0.6	0.6	1	99.3000313520024	99.6577738930064	"4"	201707.668539567	201700.694144546	1.5	0.1
0.01	1	0.0605323139752727	1	105	NA	103.56190678	0	0.6	0.6	1	99.8844477700186	99.9449800839939	"4"	201707.668539567	201700.694144546	1.5	0.1
0.01	1	0.0485799800080713	1	105	NA	103.56190678	0	0.6	0.6	1	100.184797452006	100.233377432014	"4"	201707.668539567	201700.694144546	1.5	0.1
0.01	1	0.0833645280217752	1	105	NA	103.56190678	0	0.6	0.6	1	100.46877213	100.552136658021	"4"	201707.668539567	201700.694144546	1.5	0.1
0.01	1	0.0785534960159566	1	105	NA	103.56190678	0	0.6	0.6	1	100.785807217006	100.864360713022	"4"	201707.668539567	201700.694144546	1.5	0.1
0.01	1	0.0570699309755582	1	105	NA	103.56190678	0	0.6	0.6	1	101.103073635022	101.160143565998	"4"	201707.668539567	201700.694144546	1.5	0.1
0.01	1	0.158347621996654	1	105	NA	103.56190678	0	0.6	0.6	1	101.386820311018	101.545167933014	"4"	201707.668539567	201700.694144546	1.5	0.1
0.01	1	0.205275168991648	1	105	NA	103.56190678	0	0.6	0.6	1	101.770846191008	101.97612136	"4"	201707.668539567	201700.694144546	1.5	0.1
0.01	1	0.172147449979093	1	105	NA	103.56190678	0	0.6	0.6	1	102.204903555015	102.377051004994	"4"	201707.668539567	201700.694144546	1.5	0.1
0.01	1	0.284334720985498	1	105	NA	103.56190678	0	0.6	0.6	1	102.605668271019	102.890002992004	"4"	201707.668539567	201700.694144546	1.5	0.1
0.01	1	0.436942122993059	2	105	NA	103.56190678	0	0.6	0.6	1	103.123205250013	103.560147373006	"4"	201707.668539567	201700.694144546	1.5	0.1
0.01	1	0.431837468000595	1	73	NA	123.706888267014	0	0.58	1.18	1	105.593860937021	106.025698405021	"5"	201707.668539567	201700.694144546	1.5	0.1
0.01	1	0.00382881599944085	1	73	NA	123.706888267014	0	0.58	1.18	1	106.261777775013	106.265606591012	"5"	201707.668539567	201700.694144546	1.5	0.1
0.01	1	0.0981513320002705	1	73	NA	123.706888267014	0	0.58	1.18	1	106.495465929998	106.593617261999	"5"	201707.668539567	201700.694144546	1.5	0.1
0.01	1	0.0441049300134182	1	73	NA	123.706888267014	0	0.58	1.18	1	106.829359750001	106.873464680015	"5"	201707.668539567	201700.694144546	1.5	0.1
0.01	1	0.0718713300011586	1	73	NA	123.706888267014	0	0.58	1.18	1	107.096415797016	107.168287127017	"5"	201707.668539567	201700.694144546	1.5	0.1
0.01	1	0.035365666000871	1	73	NA	123.706888267014	0	0.58	1.18	1	107.397039684001	107.432405350002	"5"	201707.668539567	201700.694144546	1.5	0.1
0.01	1	0.0320672159723472	1	73	NA	123.706888267014	0	0.58	1.18	1	107.664138100023	107.696205315995	"5"	201707.668539567	201700.694144546	1.5	0.1
0.01	1	0.0214860730047803	1	73	NA	123.706888267014	0	0.58	1.18	1	107.931313481997	107.952799555002	"5"	201707.668539567	201700.694144546	1.5	0.1
0.01	1	0.0113168359966949	1	73	NA	123.706888267014	0	0.58	1.18	1	108.181687965	108.193004800996	"5"	201707.668539567	201700.694144546	1.5	0.1
0.01	1	0.0111621610121801	1	73	NA	123.706888267014	0	0.58	1.18	1	108.415487649996	108.426649811008	"5"	201707.668539567	201700.694144546	1.5	0.1
0.01	1	0.151680673996452	1	73	NA	123.706888267014	0	0.58	1.18	1	108.649055070011	108.800735744007	"5"	201707.668539567	201700.694144546	1.5	0.1
0.01	1	0.104045521002263	1	73	NA	123.706888267014	0	0.58	1.18	1	109.033058385015	109.137103906018	"5"	201707.668539567	201700.694144546	1.5	0.1
0.01	1	0.00451314199017361	1	73	NA	123.706888267014	0	0.58	1.18	1	109.367005253007	109.371518394997	"5"	201707.668539567	201700.694144546	1.5	0.1
0.01	1	0.00892366300104186	1	73	NA	123.706888267014	0	0.58	1.18	1	109.600714169996	109.609637832997	"5"	201707.668539567	201700.694144546	1.5	0.1
0.01	1	0.00351698897429742	1	73	NA	123.706888267014	0	0.58	1.18	1	109.851111320022	109.854628308996	"5"	201707.668539567	201700.694144546	1.5	0.1
0.01	1	0.00337930399109609	1	73	NA	123.706888267014	0	0.58	1.18	1	110.084860549017	110.088239853008	"5"	201707.668539567	201700.694144546	1.5	0.1
0.01	1	0.003511377988616	1	73	NA	123.706888267014	0	0.58	1.18	1	110.318637937016	110.322149315005	"5"	201707.668539567	201700.694144546	1.5	0.1
0.01	1	0.00332491600420326	1	73	NA	123.706888267014	0	0.58	1.18	1	110.552303987002	110.555628903006	"5"	201707.668539567	201700.694144546	1.5	0.1
0.01	1	0.00446844098041765	1	73	NA	123.706888267014	0	0.58	1.18	1	110.786100134021	110.790568575001	"5"	201707.668539567	201700.694144546	1.5	0.1
0.01	1	0.00372941698879004	1	73	NA	123.706888267014	0	0.58	1.18	1	111.019909092021	111.02363850901	"5"	201707.668539567	201700.694144546	1.5	0.1
0.01	1	0.20397612999659	1	73	NA	123.706888267014	0	0.58	1.18	1	111.253456261999	111.457432391995	"5"	201707.668539567	201700.694144546	1.5	0.1
0.01	1	0.00952017601230182	1	73	NA	123.706888267014	0	0.58	1.18	1	111.687549124996	111.697069301008	"5"	201707.668539567	201700.694144546	1.5	0.1
0.01	1	0.00818780300323851	1	73	NA	123.706888267014	0	0.58	1.18	1	111.921319350018	111.929507153021	"5"	201707.668539567	201700.694144546	1.5	0.1
0.01	1	0.00466831997619011	1	73	NA	123.706888267014	0	0.58	1.18	1	112.154981540021	112.159649859997	"5"	201707.668539567	201700.694144546	1.5	0.1
0.01	1	0.00399446100345813	1	73	NA	123.706888267014	0	0.58	1.18	1	112.388747632009	112.392742093012	"5"	201707.668539567	201700.694144546	1.5	0.1
0.01	1	0.00462665499071591	1	73	NA	123.706888267014	0	0.58	1.18	1	112.622555260023	112.627181915013	"5"	201707.668539567	201700.694144546	1.5	0.1
0.01	1	0.11969937797403	1	73	NA	123.706888267014	0	0.58	1.18	1	112.85614715502	112.975846532994	"5"	201707.668539567	201700.694144546	1.5	0.1
0.01	1	0.00396206800360233	1	73	NA	123.706888267014	0	0.58	1.18	1	113.206766627001	113.210728695005	"5"	201707.668539567	201700.694144546	1.5	0.1
0.01	1	0.00457868599914946	1	73	NA	123.706888267014	0	0.58	1.18	1	113.440492124006	113.445070810005	"5"	201707.668539567	201700.694144546	1.5	0.1
0.01	1	0.639113274024567	1	73	NA	123.706888267014	0	0.58	1.18	1	113.674232699996	114.31334597402	"5"	201707.668539567	201700.694144546	1.5	0.1
0.01	1	0.00395524298073724	1	73	NA	123.706888267014	0	0.58	1.18	1	114.542324010021	114.546279253002	"5"	201707.668539567	201700.694144546	1.5	0.1
0.01	1	0.00381573499180377	1	73	NA	123.706888267014	0	0.58	1.18	1	114.776101220021	114.779916955013	"5"	201707.668539567	201700.694144546	1.5	0.1
0.01	1	0.00386450299993157	1	73	NA	123.706888267014	0	0.58	1.18	1	115.009747202013	115.013611705013	"5"	201707.668539567	201700.694144546	1.5	0.1
0.01	1	0.00335775999701582	1	73	NA	123.706888267014	0	0.58	1.18	1	115.243565517012	115.246923277009	"5"	201707.668539567	201700.694144546	1.5	0.1
0.01	1	0.00400138698751107	1	73	NA	123.706888267014	0	0.58	1.18	1	115.477216330008	115.481217716995	"5"	201707.668539567	201700.694144546	1.5	0.1
0.01	1	0.121336226002313	1	73	NA	123.706888267014	0	0.58	1.18	1	115.710983344004	115.832319570007	"5"	201707.668539567	201700.694144546	1.5	0.1
0.01	1	0.00358282501110807	1	73	NA	123.706888267014	0	0.58	1.18	1	116.061575900007	116.065158725018	"5"	201707.668539567	201700.694144546	1.5	0.1
0.01	1	0.00356104798265733	1	73	NA	123.706888267014	0	0.58	1.18	1	116.295312427013	116.298873474996	"5"	201707.668539567	201700.694144546	1.5	0.1
0.01	1	0.703601176996017	1	73	NA	123.706888267014	0	0.58	1.18	1	116.52902570201	117.232626879006	"5"	201707.668539567	201700.694144546	1.5	0.1
0.01	1	0.00466936701559462	1	73	NA	123.706888267014	0	0.58	1.18	1	117.463918555004	117.46858792202	"5"	201707.668539567	201700.694144546	1.5	0.1
0.01	1	0.00431181499152444	1	73	NA	123.706888267014	0	0.58	1.18	1	117.697649120004	117.701960934995	"5"	201707.668539567	201700.694144546	1.5	0.1
0.01	1	0.0044578599918168	1	73	NA	123.706888267014	0	0.58	1.18	1	117.931355417008	117.935813276999	"5"	201707.668539567	201700.694144546	1.5	0.1
0.01	1	0.00461281498428434	1	73	NA	123.706888267014	0	0.58	1.18	1	118.165148855012	118.169761669997	"5"	201707.668539567	201700.694144546	1.5	0.1
0.01	1	0.00383981299819425	1	73	NA	123.706888267014	0	0.58	1.18	1	118.398900761997	118.402740574995	"5"	201707.668539567	201700.694144546	1.5	0.1
0.01	1	0.00373755599139258	1	73	NA	123.706888267014	0	0.58	1.18	1	118.632522257016	118.636259813007	"5"	201707.668539567	201700.694144546	1.5	0.1
0.01	1	0.00465214499854483	1	73	NA	123.706888267014	0	0.58	1.18	1	118.866305905016	118.870958050014	"5"	201707.668539567	201700.694144546	1.5	0.1
0.01	1	0.00384835002478212	1	73	NA	123.706888267014	0	0.58	1.18	1	119.099932006997	119.103780357022	"5"	201707.668539567	201700.694144546	1.5	0.1
0.01	1	0.00403289298992604	1	73	NA	123.706888267014	0	0.58	1.18	1	119.333690360014	119.337723253004	"5"	201707.668539567	201700.694144546	1.5	0.1
0.01	1	0.514226350001991	1	73	NA	123.706888267014	0	0.58	1.18	1	119.567443809996	120.081670159998	"5"	201707.668539567	201700.694144546	1.5	0.1
0.01	1	0.00470086501445621	1	73	NA	123.706888267014	0	0.58	1.18	1	120.318661174999	120.323362040013	"5"	201707.668539567	201700.694144546	1.5	0.1
0.01	1	0.00368052799603902	1	73	NA	123.706888267014	0	0.58	1.18	1	120.552430005017	120.556110533013	"5"	201707.668539567	201700.694144546	1.5	0.1
0.01	1	0.00404132201219909	1	73	NA	123.706888267014	0	0.58	1.18	1	120.786089617002	120.790130939014	"5"	201707.668539567	201700.694144546	1.5	0.1
0.01	1	0.0377609400020447	1	73	NA	123.706888267014	0	0.58	1.18	1	121.01991024302	121.057671183022	"5"	201707.668539567	201700.694144546	1.5	0.1
0.01	1	0.00408067798707634	1	73	NA	123.706888267014	0	0.58	1.18	1	121.287063827011	121.291144504998	"5"	201707.668539567	201700.694144546	1.5	0.1
0.01	1	0.0020652590028476	1	73	NA	123.706888267014	0	0.58	1.18	1	121.520754252007	121.52281951101	"5"	201707.668539567	201700.694144546	1.5	0.1
0.01	1	0.00424712401581928	1	73	NA	123.706888267014	0	0.58	1.18	1	121.754443101003	121.758690225019	"5"	201707.668539567	201700.694144546	1.5	0.1
0.01	1	0.0138296220102347	1	73	NA	123.706888267014	0	0.58	1.18	1	121.988231130003	122.002060752013	"5"	201707.668539567	201700.694144546	1.5	0.1
0.01	1	0.810166176990606	1	73	NA	123.706888267014	0	0.58	1.18	1	122.238576352014	123.048742529005	"5"	201707.668539567	201700.694144546	1.5	0.1
0.01	1	0.431559655000456	2	73	NA	123.706888267014	0	0.58	1.18	1	123.273653605022	123.705213260022	"5"	201707.668539567	201700.694144546	1.5	0.1
0.01	1	0.390910223009996	1	45	137.583994950022	NA	1	0	1.18	1	125.761174090003	126.152084313013	"6"	201707.668539567	201700.694144546	1.5	0.1
0.01	1	0.134122137009399	1	45	137.583994950022	NA	1	0	1.18	1	126.378846514999	126.512968652009	"6"	201707.668539567	201700.694144546	1.5	0.1
0.01	1	0.0157603300176561	1	45	137.583994950022	NA	1	0	1.18	1	126.746305195004	126.762065525021	"6"	201707.668539567	201700.694144546	1.5	0.1
0.01	1	0.0352242549997754	1	45	137.583994950022	NA	1	0	1.18	1	126.996642045007	127.031866300007	"6"	201707.668539567	201700.694144546	1.5	0.1
0.01	1	0.0328064589994028	1	45	137.583994950022	NA	1	0	1.18	1	127.263747220015	127.296553679014	"6"	201707.668539567	201700.694144546	1.5	0.1
0.01	1	0.00383217501803301	1	45	137.583994950022	NA	1	0	1.18	1	127.530799592001	127.534631767019	"6"	201707.668539567	201700.694144546	1.5	0.1
0.01	1	0.0193612299917731	1	45	137.583994950022	NA	1	0	1.18	1	127.764595325018	127.783956555009	"6"	201707.668539567	201700.694144546	1.5	0.1
0.01	1	0.0263091069937218	1	45	137.583994950022	NA	1	0	1.18	1	128.015017782018	128.041326889012	"6"	201707.668539567	201700.694144546	1.5	0.1
0.01	1	0.0233823230082635	1	45	137.583994950022	NA	1	0	1.18	1	128.265473498002	128.288855821011	"6"	201707.668539567	201700.694144546	1.5	0.1
0.01	1	0.0297451819933485	1	45	137.583994950022	NA	1	0	1.18	1	128.515849510004	128.545594691997	"6"	201707.668539567	201700.694144546	1.5	0.1
0.01	1	0.074529703008011	1	45	137.583994950022	NA	1	0	1.18	1	128.782974050002	128.85750375301	"6"	201707.668539567	201700.694144546	1.5	0.1
0.01	1	0.0285798030090518	1	45	137.583994950022	NA	1	0	1.18	1	129.083443715004	129.112023518013	"6"	201707.668539567	201700.694144546	1.5	0.1
0.01	1	0.00374199301586486	1	45	137.583994950022	NA	1	0	1.18	1	129.350594949996	129.354336943012	"6"	201707.668539567	201700.694144546	1.5	0.1
0.01	1	0.00396624501445331	1	45	137.583994950022	NA	1	0	1.18	1	129.584367870004	129.588334115018	"6"	201707.668539567	201700.694144546	1.5	0.1
0.01	1	0.0038207070028875	1	45	137.583994950022	NA	1	0	1.18	1	129.818048592017	129.821869299019	"6"	201707.668539567	201700.694144546	1.5	0.1
0.01	1	0.0450449549825862	1	45	137.583994950022	NA	1	0	1.18	1	130.051931140013	130.096976094996	"6"	201707.668539567	201700.694144546	1.5	0.1
0.01	1	0.0650324479793198	1	45	137.583994950022	NA	1	0	1.18	1	130.335541082022	130.400573530002	"6"	201707.668539567	201700.694144546	1.5	0.1
0.01	1	0.0209992390009575	1	45	137.583994950022	NA	1	0	1.18	1	130.636155490007	130.657154729008	"6"	201707.668539567	201700.694144546	1.5	0.1
0.01	1	0.0344091090082657	1	45	137.583994950022	NA	1	0	1.18	1	130.886595279997	130.921004389005	"6"	201707.668539567	201700.694144546	1.5	0.1
0.01	1	0.0870891429949552	1	45	137.583994950022	NA	1	0	1.18	1	131.153495837003	131.240584979998	"6"	201707.668539567	201700.694144546	1.5	0.1
0.01	1	0.0892912929994054	1	45	137.583994950022	NA	1	0	1.18	1	131.470911450015	131.560202743014	"6"	201707.668539567	201700.694144546	1.5	0.1
0.01	1	0.0688870350131765	1	45	137.583994950022	NA	1	0	1.18	1	131.787967890006	131.856854925019	"6"	201707.668539567	201700.694144546	1.5	0.1
0.01	1	0.0393320969888009	1	45	137.583994950022	NA	1	0	1.18	1	132.088564692007	132.127896788996	"6"	201707.668539567	201700.694144546	1.5	0.1
0.01	1	0.0364811799954623	1	45	137.583994950022	NA	1	0	1.18	1	132.355728302005	132.392209482001	"6"	201707.668539567	201700.694144546	1.5	0.1
0.01	1	0.0251483480096795	1	45	137.583994950022	NA	1	0	1.18	1	132.622728905	132.64787725301	"6"	201707.668539567	201700.694144546	1.5	0.1
0.01	1	0.0324779699731153	1	45	137.583994950022	NA	1	0	1.18	1	132.873060922022	132.905538891995	"6"	201707.668539567	201700.694144546	1.5	0.1
0.01	1	0.00423443701583892	1	45	137.583994950022	NA	1	0	1.18	1	133.140343631996	133.144578069012	"6"	201707.668539567	201700.694144546	1.5	0.1
0.01	1	0.00405271601630375	1	45	137.583994950022	NA	1	0	1.18	1	133.374201697006	133.378254413023	"6"	201707.668539567	201700.694144546	1.5	0.1
0.01	1	0.0097068969917018	1	45	137.583994950022	NA	1	0	1.18	1	133.607692585007	133.617399481998	"6"	201707.668539567	201700.694144546	1.5	0.1
0.01	1	0.00367095798719674	1	45	137.583994950022	NA	1	0	1.18	1	133.841333075019	133.845004033006	"6"	201707.668539567	201700.694144546	1.5	0.1
0.01	1	0.0212946760002524	1	45	137.583994950022	NA	1	0	1.18	1	134.075276335003	134.096571011003	"6"	201707.668539567	201700.694144546	1.5	0.1
0.01	1	0.00441893501556478	1	45	137.583994950022	NA	1	0	1.18	1	134.325729067001	134.330148002016	"6"	201707.668539567	201700.694144546	1.5	0.1
0.01	1	0.00398290500743315	1	45	137.583994950022	NA	1	0	1.18	1	134.559265890013	134.563248795021	"6"	201707.668539567	201700.694144546	1.5	0.1
0.01	1	0.00383177300682291	1	45	137.583994950022	NA	1	0	1.18	1	134.793146742013	134.79697851502	"6"	201707.668539567	201700.694144546	1.5	0.1
0.01	1	0.00703346900991164	1	45	137.583994950022	NA	1	0	1.18	1	135.026870820002	135.033904289012	"6"	201707.668539567	201700.694144546	1.5	0.1
0.01	1	0.00745943500078283	1	45	137.583994950022	NA	1	0	1.18	1	135.260550238017	135.268009673018	"6"	201707.668539567	201700.694144546	1.5	0.1
0.01	1	0.0040589649870526	1	45	137.583994950022	NA	1	0	1.18	1	135.494243752008	135.498302716995	"6"	201707.668539567	201700.694144546	1.5	0.1
0.01	1	0.00392023398308083	1	45	137.583994950022	NA	1	0	1.18	1	135.728030307015	135.731950540998	"6"	201707.668539567	201700.694144546	1.5	0.1
0.01	1	0.00396278899279423	1	45	137.583994950022	NA	1	0	1.18	1	135.961747270019	135.965710059012	"6"	201707.668539567	201700.694144546	1.5	0.1
0.01	1	0.00363611301872879	1	45	137.583994950022	NA	1	0	1.18	1	136.195401520003	136.199037633021	"6"	201707.668539567	201700.694144546	1.5	0.1
0.01	1	0.0514427659800276	1	45	137.583994950022	NA	1	0	1.18	1	136.429114977014	136.480557742994	"6"	201707.668539567	201700.694144546	1.5	0.1
0.01	1	0.00361264098319225	1	45	137.583994950022	NA	1	0	1.18	1	136.712905120017	136.716517761	"6"	201707.668539567	201700.694144546	1.5	0.1
0.01	1	0.0303142410120927	1	45	137.583994950022	NA	1	0	1.18	1	136.946677939995	136.976992181008	"6"	201707.668539567	201700.694144546	1.5	0.1
0.01	1	0.0113109789963346	1	45	137.583994950022	NA	1	0	1.18	1	137.213790880021	137.225101859018	"6"	201707.668539567	201700.694144546	1.5	0.1
0.01	1	0.0175044049974531	1	45	137.583994950022	NA	1	0	1.18	1	137.447465855017	137.464970260015	"6"	201707.668539567	201700.694144546	1.5	0.1
0.01	1	0.445695372007322	1	10	146.38213826	NA	1	0	1.18	1	139.634565237007	140.080260609015	"7"	201707.668539567	201700.694144546	1.5	0.1
0.01	1	0.00404422098654322	1	10	146.38213826	NA	1	0	1.18	1	140.318943610007	140.322987830994	"7"	201707.668539567	201700.694144546	1.5	0.1
0.01	1	0.0231183969881386	1	10	146.38213826	NA	1	0	1.18	1	140.552815372008	140.575933768996	"7"	201707.668539567	201700.694144546	1.5	0.1
0.01	1	0.0545411579951178	1	10	146.38213826	NA	1	0	1.18	1	140.803165922	140.857707079995	"7"	201707.668539567	201700.694144546	1.5	0.1
0.01	1	3.12156356000924	1	10	146.38213826	NA	1	0	1.18	1	141.087047909998	144.208611470007	"7"	201707.668539567	201700.694144546	1.5	0.1
0.01	1	0.142449195001973	1	10	146.38213826	NA	1	0	1.18	1	144.442595839995	144.585045034997	"7"	201707.668539567	201700.694144546	1.5	0.1
0.01	1	0.175320189999184	1	10	146.38213826	NA	1	0	1.18	1	144.809825652017	144.985145842016	"7"	201707.668539567	201700.694144546	1.5	0.1
0.01	1	0.166386392986169	1	10	146.38213826	NA	1	0	1.18	1	145.210625897016	145.377012290002	"7"	201707.668539567	201700.694144546	1.5	0.1
0.01	1	0.228550897998502	1	10	146.38213826	NA	1	0	1.18	1	145.611304482009	145.839855380007	"7"	201707.668539567	201700.694144546	1.5	0.1
0.01	1	0.202019721007673	1	10	146.38213826	NA	1	0	1.18	1	146.061953672004	146.263973393012	"7"	201707.668539567	201700.694144546	1.5	0.1
0.01	1	0.271486990997801	1	37	158.836339116999	NA	1	0	1.18	1	148.432639035018	148.704126026016	"8"	201707.668539567	201700.694144546	1.5	0.1
0.01	1	0.0513158539833967	1	37	158.836339116999	NA	1	0	1.18	1	148.933650440013	148.984966293996	"8"	201707.668539567	201700.694144546	1.5	0.1
0.01	1	0.0553366189997178	1	37	158.836339116999	NA	1	0	1.18	1	149.217283055012	149.272619674011	"8"	201707.668539567	201700.694144546	1.5	0.1
0.01	1	0.0279585199896246	1	37	158.836339116999	NA	1	0	1.18	1	149.501116740023	149.529075260012	"8"	201707.668539567	201700.694144546	1.5	0.1
0.01	1	0.011170273006428	1	37	158.836339116999	NA	1	0	1.18	1	149.751557414012	149.762727687019	"8"	201707.668539567	201700.694144546	1.5	0.1
0.01	1	0.0405657339724712	1	37	158.836339116999	NA	1	0	1.18	1	149.985238745023	150.025804478995	"8"	201707.668539567	201700.694144546	1.5	0.1
0.01	1	0.0118189099885058	1	37	158.836339116999	NA	1	0	1.18	1	150.252385710017	150.264204620005	"8"	201707.668539567	201700.694144546	1.5	0.1
0.01	1	0.0108338260033634	1	37	158.836339116999	NA	1	0	1.18	1	150.502791951003	150.513625777006	"8"	201707.668539567	201700.694144546	1.5	0.1
0.01	1	0.0251670870056842	1	37	158.836339116999	NA	1	0	1.18	1	150.736471234995	150.761638322001	"8"	201707.668539567	201700.694144546	1.5	0.1
0.01	1	0.0141793249931652	1	37	158.836339116999	NA	1	0	1.18	1	150.986970930011	151.001150255004	"8"	201707.668539567	201700.694144546	1.5	0.1
0.01	1	0.203875454986701	1	37	158.836339116999	NA	1	0	1.18	1	151.237330625008	151.441206079995	"8"	201707.668539567	201700.694144546	1.5	0.1
0.01	1	0.00923007298843004	1	37	158.836339116999	NA	1	0	1.18	1	151.671459432022	151.68068950501	"8"	201707.668539567	201700.694144546	1.5	0.1
0.01	1	0.0232370650046505	1	37	158.836339116999	NA	1	0	1.18	1	151.905118316994	151.928355381999	"8"	201707.668539567	201700.694144546	1.5	0.1
0.01	1	0.00346923602046445	1	37	158.836339116999	NA	1	0	1.18	1	152.155552835	152.15902207102	"8"	201707.668539567	201700.694144546	1.5	0.1
0.01	1	0.00337645600666292	1	37	158.836339116999	NA	1	0	1.18	1	152.389349623001	152.392726079008	"8"	201707.668539567	201700.694144546	1.5	0.1
0.01	1	0.00395754998316988	1	37	158.836339116999	NA	1	0	1.18	1	152.62299448502	152.626952035003	"8"	201707.668539567	201700.694144546	1.5	0.1
0.01	1	0.00396287298644893	1	37	158.836339116999	NA	1	0	1.18	1	152.85675835202	152.860721225006	"8"	201707.668539567	201700.694144546	1.5	0.1
0.01	1	0.00388116700924002	1	37	158.836339116999	NA	1	0	1.18	1	153.090522990009	153.094404157018	"8"	201707.668539567	201700.694144546	1.5	0.1
0.01	1	0.117191365978215	1	37	158.836339116999	NA	1	0	1.18	1	153.32421039202	153.441401757998	"8"	201707.668539567	201700.694144546	1.5	0.1
0.01	1	0.36553801302216	1	37	158.836339116999	NA	1	0	1.18	1	153.674811511999	154.040349525021	"8"	201707.668539567	201700.694144546	1.5	0.1
0.01	1	0.00370182999176905	1	37	158.836339116999	NA	1	0	1.18	1	154.275874375016	154.279576205008	"8"	201707.668539567	201700.694144546	1.5	0.1
0.01	1	0.00384901202050969	1	37	158.836339116999	NA	1	0	1.18	1	154.509529856994	154.513378869015	"8"	201707.668539567	201700.694144546	1.5	0.1
0.01	1	0.00230555297457613	1	37	158.836339116999	NA	1	0	1.18	1	154.743262960023	154.745568512997	"8"	201707.668539567	201700.694144546	1.5	0.1
0.01	1	0.00448974201572128	1	37	158.836339116999	NA	1	0	1.18	1	154.977073179994	154.98156292201	"8"	201707.668539567	201700.694144546	1.5	0.1
0.01	1	0.126733765995596	1	37	158.836339116999	NA	1	0	1.18	1	155.210724065022	155.337457831018	"8"	201707.668539567	201700.694144546	1.5	0.1
0.01	1	0.00460697500966489	1	37	158.836339116999	NA	1	0	1.18	1	155.561365925008	155.565972900018	"8"	201707.668539567	201700.694144546	1.5	0.1
0.01	1	0.0035403200017754	1	37	158.836339116999	NA	1	0	1.18	1	155.795013015013	155.798553335015	"8"	201707.668539567	201700.694144546	1.5	0.1
0.01	1	0.00377270299941301	1	37	158.836339116999	NA	1	0	1.18	1	156.028726962017	156.032499665016	"8"	201707.668539567	201700.694144546	1.5	0.1
0.01	1	0.457439981983043	1	37	158.836339116999	NA	1	0	1.18	1	156.262503285019	156.719943267002	"8"	201707.668539567	201700.694144546	1.5	0.1
0.01	1	0.00363116801599972	1	37	158.836339116999	NA	1	0	1.18	1	156.946985176997	156.950616345013	"8"	201707.668539567	201700.694144546	1.5	0.1
0.01	1	0.00357087401789613	1	37	158.836339116999	NA	1	0	1.18	1	157.180761397001	157.184332271019	"8"	201707.668539567	201700.694144546	1.5	0.1
0.01	1	0.00373948799096979	1	37	158.836339116999	NA	1	0	1.18	1	157.414515147015	157.418254635006	"8"	201707.668539567	201700.694144546	1.5	0.1
0.01	1	0.135830739018274	1	37	158.836339116999	NA	1	0	1.18	1	157.648072181997	157.783902921015	"8"	201707.668539567	201700.694144546	1.5	0.1
0.01	1	0.00379493998480029	1	37	158.836339116999	NA	1	0	1.18	1	158.01551297502	158.019307915005	"8"	201707.668539567	201700.694144546	1.5	0.1
0.01	1	0.00386548301321454	1	37	158.836339116999	NA	1	0	1.18	1	158.249135671998	158.253001155012	"8"	201707.668539567	201700.694144546	1.5	0.1
0.01	1	0.00379345298279077	1	37	158.836339116999	NA	1	0	1.18	1	158.482903562021	158.486697015003	"8"	201707.668539567	201700.694144546	1.5	0.1
0.01	1	0.00460871201357804	1	37	158.836339116999	NA	1	0	1.18	1	158.716656764998	158.721265477012	"8"	201707.668539567	201700.694144546	1.5	0.1
0.01	1	0.417744312988361	1	108	NA	176.818181857001	0	0.52	1.7	1	160.870152417017	161.287896730006	"9"	201707.668539567	201700.694144546	1.5	0.1
0.01	1	0.0039462799904868	1	108	NA	176.818181857001	0	0.52	1.7	1	161.521307415009	161.525253694999	"9"	201707.668539567	201700.694144546	1.5	0.1
0.01	1	0.00407227099640295	1	108	NA	176.818181857001	0	0.52	1.7	1	161.755079900002	161.759152170998	"9"	201707.668539567	201700.694144546	1.5	0.1
0.01	1	0.00422945301397704	1	108	NA	176.818181857001	0	0.52	1.7	1	161.988765260001	161.992994713015	"9"	201707.668539567	201700.694144546	1.5	0.1
0.01	1	0.00281648500822484	1	108	NA	176.818181857001	0	0.52	1.7	1	162.222486985003	162.225303470012	"9"	201707.668539567	201700.694144546	1.5	0.1
0.01	1	0.00390315099502914	1	108	NA	176.818181857001	0	0.52	1.7	1	162.456203930022	162.460107081017	"9"	201707.668539567	201700.694144546	1.5	0.1
0.01	1	0.00461823199293576	1	108	NA	176.818181857001	0	0.52	1.7	1	162.689907060005	162.694525291998	"9"	201707.668539567	201700.694144546	1.5	0.1
0.01	1	0.0045568410132546	1	108	NA	176.818181857001	0	0.52	1.7	1	162.923725361004	162.928282202018	"9"	201707.668539567	201700.694144546	1.5	0.1
0.01	1	0.0985540770052467	1	108	NA	176.818181857001	0	0.52	1.7	1	163.157406200015	163.25596027702	"9"	201707.668539567	201700.694144546	1.5	0.1
0.01	1	0.101204494014382	1	108	NA	176.818181857001	0	0.52	1.7	1	163.491321570007	163.592526064022	"9"	201707.668539567	201700.694144546	1.5	0.1
0.01	1	0.00396782899042591	1	108	NA	176.818181857001	0	0.52	1.7	1	163.825255920005	163.829223748995	"9"	201707.668539567	201700.694144546	1.5	0.1
0.01	1	0.00402727001346648	1	108	NA	176.818181857001	0	0.52	1.7	1	164.058949655009	164.062976925023	"9"	201707.668539567	201700.694144546	1.5	0.1
0.01	1	0.0040442309982609	1	108	NA	176.818181857001	0	0.52	1.7	1	164.292640002008	164.296684233006	"9"	201707.668539567	201700.694144546	1.5	0.1
0.01	1	0.0982857869821601	1	108	NA	176.818181857001	0	0.52	1.7	1	164.526342582016	164.624628368998	"9"	201707.668539567	201700.694144546	1.5	0.1
0.01	1	0.00437649199739099	1	108	NA	176.818181857001	0	0.52	1.7	1	164.860282280017	164.864658772014	"9"	201707.668539567	201700.694144546	1.5	0.1
0.01	1	0.00459042401053011	1	108	NA	176.818181857001	0	0.52	1.7	1	165.094071030995	165.098661455006	"9"	201707.668539567	201700.694144546	1.5	0.1
0.01	1	0.129003112990176	1	108	NA	176.818181857001	0	0.52	1.7	1	165.327698750014	165.456701863004	"9"	201707.668539567	201700.694144546	1.5	0.1
0.01	1	0.282954410009552	1	108	NA	176.818181857001	0	0.52	1.7	1	165.695072686998	165.978027097008	"9"	201707.668539567	201700.694144546	1.5	0.1
0.01	1	0.00331716000800952	1	108	NA	176.818181857001	0	0.52	1.7	1	166.212582684995	166.215899845003	"9"	201707.668539567	201700.694144546	1.5	0.1
0.01	1	0.00463301202398725	1	108	NA	176.818181857001	0	0.52	1.7	1	166.446365409996	166.45099842202	"9"	201707.668539567	201700.694144546	1.5	0.1
0.01	1	0.00462236299063079	1	108	NA	176.818181857001	0	0.52	1.7	1	166.680117742013	166.684740105004	"9"	201707.668539567	201700.694144546	1.5	0.1
0.01	1	0.0951992599875666	1	108	NA	176.818181857001	0	0.52	1.7	1	166.913845380011	167.009044639999	"9"	201707.668539567	201700.694144546	1.5	0.1
0.01	1	0.00384355100686662	1	108	NA	176.818181857001	0	0.52	1.7	1	167.247548779997	167.251392331003	"9"	201707.668539567	201700.694144546	1.5	0.1
0.01	1	0.00460542700602673	1	108	NA	176.818181857001	0	0.52	1.7	1	167.481406570005	167.486011997011	"9"	201707.668539567	201700.694144546	1.5	0.1
0.01	1	0.003907910984708	1	108	NA	176.818181857001	0	0.52	1.7	1	167.715067592013	167.718975502998	"9"	201707.668539567	201700.694144546	1.5	0.1
0.01	1	0.46704841699102	1	108	NA	176.818181857001	0	0.52	1.7	1	167.948827000015	168.415875417006	"9"	201707.668539567	201700.694144546	1.5	0.1
0.01	1	0.00372936998610385	1	108	NA	176.818181857001	0	0.52	1.7	1	168.650043955015	168.653773325001	"9"	201707.668539567	201700.694144546	1.5	0.1
0.01	1	0.00351511102053337	1	108	NA	176.818181857001	0	0.52	1.7	1	168.883700631995	168.887215743016	"9"	201707.668539567	201700.694144546	1.5	0.1
0.01	1	0.00464962000842206	1	108	NA	176.818181857001	0	0.52	1.7	1	169.117381235003	169.122030855011	"9"	201707.668539567	201700.694144546	1.5	0.1
0.01	1	0.00407003500731662	1	108	NA	176.818181857001	0	0.52	1.7	1	169.351137512014	169.355207547022	"9"	201707.668539567	201700.694144546	1.5	0.1
0.01	1	0.136199989006855	1	108	NA	176.818181857001	0	0.52	1.7	1	169.584855224006	169.721055213013	"9"	201707.668539567	201700.694144546	1.5	0.1
0.01	1	0.00372459398931824	1	108	NA	176.818181857001	0	0.52	1.7	1	169.952131957019	169.955856551009	"9"	201707.668539567	201700.694144546	1.5	0.1
0.01	1	0.00467303200275637	1	108	NA	176.818181857001	0	0.52	1.7	1	170.185880300007	170.19055333201	"9"	201707.668539567	201700.694144546	1.5	0.1
0.01	1	0.445395443006419	1	108	NA	176.818181857001	0	0.52	1.7	1	170.419573349995	170.864968793001	"9"	201707.668539567	201700.694144546	1.5	0.1
0.01	1	0.00378726300550625	1	108	NA	176.818181857001	0	0.52	1.7	1	171.087323109998	171.091110373003	"9"	201707.668539567	201700.694144546	1.5	0.1
0.01	1	0.00349781999830157	1	108	NA	176.818181857001	0	0.52	1.7	1	171.321137295017	171.324635115016	"9"	201707.668539567	201700.694144546	1.5	0.1
0.01	1	0.00394947599852458	1	108	NA	176.818181857001	0	0.52	1.7	1	171.554899597017	171.558849073015	"9"	201707.668539567	201700.694144546	1.5	0.1
0.01	1	0.00461964498390444	1	108	NA	176.818181857001	0	0.52	1.7	1	171.788588220021	171.793207865005	"9"	201707.668539567	201700.694144546	1.5	0.1
0.01	1	0.113868991000345	1	108	NA	176.818181857001	0	0.52	1.7	1	172.022329603002	172.136198594002	"9"	201707.668539567	201700.694144546	1.5	0.1
0.01	1	0.00465382699621841	1	108	NA	176.818181857001	0	0.52	1.7	1	172.372889730002	172.377543556999	"9"	201707.668539567	201700.694144546	1.5	0.1
0.01	1	0.00398198599577881	1	108	NA	176.818181857001	0	0.52	1.7	1	172.60671406702	172.610696053016	"9"	201707.668539567	201700.694144546	1.5	0.1
0.01	1	0.00397197299753316	1	108	NA	176.818181857001	0	0.52	1.7	1	172.840363960015	172.844335933012	"9"	201707.668539567	201700.694144546	1.5	0.1
0.01	1	0.239447824016679	1	108	NA	176.818181857001	0	0.52	1.7	1	173.074064576998	173.313512401015	"9"	201707.668539567	201700.694144546	1.5	0.1
0.01	1	0.00459398000384681	1	108	NA	176.818181857001	0	0.52	1.7	1	173.541540000006	173.546133980009	"9"	201707.668539567	201700.694144546	1.5	0.1
0.01	1	0.00353356800042093	1	108	NA	176.818181857001	0	0.52	1.7	1	173.775256916997	173.778790484997	"9"	201707.668539567	201700.694144546	1.5	0.1
0.01	1	0.00405638598022051	1	108	NA	176.818181857001	0	0.52	1.7	1	174.008954325021	174.013010711002	"9"	201707.668539567	201700.694144546	1.5	0.1
0.01	1	0.0541650140075944	1	108	NA	176.818181857001	0	0.52	1.7	1	174.242789990007	174.296955004014	"9"	201707.668539567	201700.694144546	1.5	0.1
0.01	1	0.138297441997565	1	108	NA	176.818181857001	0	0.52	1.7	1	174.526532050018	174.664829492016	"9"	201707.668539567	201700.694144546	1.5	0.1
0.01	1	0.0910050719976425	1	108	NA	176.818181857001	0	0.52	1.7	1	174.893841595011	174.984846667008	"9"	201707.668539567	201700.694144546	1.5	0.1
0.01	1	0.0851136069977656	1	108	NA	176.818181857001	0	0.52	1.7	1	175.210964230006	175.296077837003	"9"	201707.668539567	201700.694144546	1.5	0.1
0.01	1	0.0804989199968986	1	108	NA	176.818181857001	0	0.52	1.7	1	175.528247950017	175.608746870013	"9"	201707.668539567	201700.694144546	1.5	0.1
0.01	1	0.371553001983557	1	108	NA	176.818181857001	0	0.52	1.7	1	175.845418892015	176.216971893999	"9"	201707.668539567	201700.694144546	1.5	0.1
0.01	1	0.370093128993176	2	108	NA	176.818181857001	0	0.52	1.7	1	176.446407420008	176.816500549001	"9"	201707.668539567	201700.694144546	1.5	0.1
0.01	1	0.870124010980362	1	18	185.898672322015	NA	1	0	1.7	1	178.867058710021	179.737182721001	"10"	201707.668539567	201700.694144546	1.5	0.1
0.01	1	0.183579503995134	1	18	185.898672322015	NA	1	0	1.7	1	179.969063940021	180.152643444017	"10"	201707.668539567	201700.694144546	1.5	0.1
0.01	1	0.143483645020751	1	18	185.898672322015	NA	1	0	1.7	1	180.386432733998	180.529916379019	"10"	201707.668539567	201700.694144546	1.5	0.1
0.01	1	0.134747980016982	1	18	185.898672322015	NA	1	0	1.7	1	180.753663089999	180.888411070016	"10"	201707.668539567	201700.694144546	1.5	0.1
0.01	1	0.0882890179927927	1	18	185.898672322015	NA	1	0	1.7	1	181.120989395014	181.209278413007	"10"	201707.668539567	201700.694144546	1.5	0.1
0.01	1	0.0976852269959636	1	18	185.898672322015	NA	1	0	1.7	1	181.438185010018	181.535870237014	"10"	201707.668539567	201700.694144546	1.5	0.1
0.01	1	0.124926105985651	1	18	185.898672322015	NA	1	0	1.7	1	181.772128695011	181.897054800997	"10"	201707.668539567	201700.694144546	1.5	0.1
0.01	1	0.135137460019905	1	18	185.898672322015	NA	1	0	1.7	1	182.122625001997	182.257762462017	"10"	201707.668539567	201700.694144546	1.5	0.1
0.01	1	0.159604243992362	1	18	185.898672322015	NA	1	0	1.7	1	182.489969962015	182.649574206007	"10"	201707.668539567	201700.694144546	1.5	0.1
0.01	1	0.215847110986942	1	18	185.898672322015	NA	1	0	1.7	1	182.87398236501	183.089829475997	"10"	201707.668539567	201700.694144546	1.5	0.1
0.01	1	0.389002209005412	1	18	185.898672322015	NA	1	0	1.7	1	183.324737602001	183.713739811006	"10"	201707.668539567	201700.694144546	1.5	0.1
0.01	1	0.129554543993436	1	18	185.898672322015	NA	1	0	1.7	1	183.942379620014	184.071934164007	"10"	201707.668539567	201700.694144546	1.5	0.1
0.01	1	0.0749751950206701	1	18	185.898672322015	NA	1	0	1.7	1	184.309629224997	184.384604420018	"10"	201707.668539567	201700.694144546	1.5	0.1
0.01	1	0.0787234449817333	1	18	185.898672322015	NA	1	0	1.7	1	184.610254335013	184.688977779995	"10"	201707.668539567	201700.694144546	1.5	0.1
0.01	1	0.0500282490102109	1	18	185.898672322015	NA	1	0	1.7	1	184.927390872006	184.977419121016	"10"	201707.668539567	201700.694144546	1.5	0.1
0.01	1	0.061570985999424	1	18	185.898672322015	NA	1	0	1.7	1	185.211132366996	185.272703352995	"10"	201707.668539567	201700.694144546	1.5	0.1
0.01	1	0.0336025620053988	1	18	185.898672322015	NA	1	0	1.7	1	185.494922450016	185.528525012021	"10"	201707.668539567	201700.694144546	1.5	0.1
0.01	1	0.0155156120017637	1	18	185.898672322015	NA	1	0	1.7	1	185.762127099995	185.777642711997	"10"	201707.668539567	201700.694144546	1.5	0.1
0.01	1	4.23705265900935	1	2	192.609744595014	NA	1	0	1.7	1	187.932349309995	192.169401969004	"11"	201707.668539567	201700.694144546	1.5	0.1
0.01	1	0.0896597630053293	1	2	192.609744595014	NA	1	0	1.7	1	192.406555260008	192.496215023013	"11"	201707.668539567	201700.694144546	1.5	0.1
0.01	1	0.40498926199507	1	107	NA	216.019571120996	0	0.6	2.3	1	194.660400950001	195.065390211996	"12"	201707.668539567	201700.694144546	1.5	0.1
0.01	1	0.178235928993672	1	107	NA	216.019571120996	0	0.6	2.3	1	195.294841630006	195.473077559	"12"	201707.668539567	201700.694144546	1.5	0.1
0.01	1	0.055772899009753	1	107	NA	216.019571120996	0	0.6	2.3	1	195.712120870012	195.767893769022	"12"	201707.668539567	201700.694144546	1.5	0.1
0.01	1	0.0775864490133245	1	107	NA	216.019571120996	0	0.6	2.3	1	195.996110515	196.073696964013	"12"	201707.668539567	201700.694144546	1.5	0.1
0.01	1	0.0732055320113432	1	107	NA	216.019571120996	0	0.6	2.3	1	196.296300198999	196.369505731011	"12"	201707.668539567	201700.694144546	1.5	0.1
0.01	1	0.028636770992307	1	107	NA	216.019571120996	0	0.6	2.3	1	196.596895840019	196.625532611011	"12"	201707.668539567	201700.694144546	1.5	0.1
0.01	1	0.0168064339959528	1	107	NA	216.019571120996	0	0.6	2.3	1	196.864164900006	196.880971334002	"12"	201707.668539567	201700.694144546	1.5	0.1
0.01	1	0.0149974240048323	1	107	NA	216.019571120996	0	0.6	2.3	1	197.114565015014	197.129562439019	"12"	201707.668539567	201700.694144546	1.5	0.1
0.01	1	0.0283548090083059	1	107	NA	216.019571120996	0	0.6	2.3	1	197.364902695001	197.393257504009	"12"	201707.668539567	201700.694144546	1.5	0.1
0.01	1	0.0584118080150802	1	107	NA	216.019571120996	0	0.6	2.3	1	197.615284441999	197.673696250014	"12"	201707.668539567	201700.694144546	1.5	0.1
0.01	1	0.349987319001229	1	107	NA	216.019571120996	0	0.6	2.3	1	197.899140580004	198.249127899006	"12"	201707.668539567	201700.694144546	1.5	0.1
0.01	1	0.0935759050189517	1	107	NA	216.019571120996	0	0.6	2.3	1	198.483573270001	198.57714917502	"12"	201707.668539567	201700.694144546	1.5	0.1
0.01	1	0.0961319379857741	1	107	NA	216.019571120996	0	0.6	2.3	1	198.817438132013	198.913570069999	"12"	201707.668539567	201700.694144546	1.5	0.1
0.01	1	0.0816549360170029	1	107	NA	216.019571120996	0	0.6	2.3	1	199.151384294004	199.233039230021	"12"	201707.668539567	201700.694144546	1.5	0.1
0.01	1	0.084968671988463	1	107	NA	216.019571120996	0	0.6	2.3	1	199.468534330023	199.553503002011	"12"	201707.668539567	201700.694144546	1.5	0.1
0.01	1	0.0477017459925264	1	107	NA	216.019571120996	0	0.6	2.3	1	199.785727185023	199.833428931015	"12"	201707.668539567	201700.694144546	1.5	0.1
0.01	1	0.0524315599759575	1	107	NA	216.019571120996	0	0.6	2.3	1	200.069478970021	200.121910529997	"12"	201707.668539567	201700.694144546	1.5	0.1
0.01	1	0.0478335430088919	1	107	NA	216.019571120996	0	0.6	2.3	1	200.353300079994	200.401133623003	"12"	201707.668539567	201700.694144546	1.5	0.1
0.01	1	0.0354132679931354	1	107	NA	216.019571120996	0	0.6	2.3	1	200.637167492008	200.672580760001	"12"	201707.668539567	201700.694144546	1.5	0.1
0.01	1	0.112617063015932	1	107	NA	216.019571120996	0	0.6	2.3	1	200.904235675	201.016852738016	"12"	201707.668539567	201700.694144546	1.5	0.1
0.01	1	0.665532404003898	1	107	NA	216.019571120996	0	0.6	2.3	1	201.254894595011	201.920426999015	"12"	201707.668539567	201700.694144546	1.5	0.1
0.01	1	0.0440270350081846	1	107	NA	216.019571120996	0	0.6	2.3	1	202.156392075005	202.200419110013	"12"	201707.668539567	201700.694144546	1.5	0.1
0.01	1	0.0495769609988201	1	107	NA	216.019571120996	0	0.6	2.3	1	202.423434482014	202.473011443013	"12"	201707.668539567	201700.694144546	1.5	0.1
0.01	1	0.00352189000113867	1	107	NA	216.019571120996	0	0.6	2.3	1	202.707307667006	202.710829557007	"12"	201707.668539567	201700.694144546	1.5	0.1
0.01	1	0.0113176900194958	1	107	NA	216.019571120996	0	0.6	2.3	1	202.940976501995	202.952294192015	"12"	201707.668539567	201700.694144546	1.5	0.1
0.01	1	0.0340122880006675	1	107	NA	216.019571120996	0	0.6	2.3	1	203.174697242008	203.208709530008	"12"	201707.668539567	201700.694144546	1.5	0.1
0.01	1	0.00366956600919366	1	107	NA	216.019571120996	0	0.6	2.3	1	203.441843784996	203.445513351006	"12"	201707.668539567	201700.694144546	1.5	0.1
0.01	1	0.00802760801161639	1	107	NA	216.019571120996	0	0.6	2.3	1	203.675644186995	203.683671795006	"12"	201707.668539567	201700.694144546	1.5	0.1
0.01	1	0.0359148900024593	1	107	NA	216.019571120996	0	0.6	2.3	1	203.90922774002	203.945142630022	"12"	201707.668539567	201700.694144546	1.5	0.1
0.01	1	0.335946064005839	1	107	NA	216.019571120996	0	0.6	2.3	1	204.176448459999	204.512394524005	"12"	201707.668539567	201700.694144546	1.5	0.1
0.01	1	0.360590102995047	1	107	NA	216.019571120996	0	0.6	2.3	1	204.744060430006	205.104650533001	"12"	201707.668539567	201700.694144546	1.5	0.1
0.01	1	0.0035286929924041	1	107	NA	216.019571120996	0	0.6	2.3	1	205.344927180005	205.348455872998	"12"	201707.668539567	201700.694144546	1.5	0.1
0.01	1	0.0306249109853525	1	107	NA	216.019571120996	0	0.6	2.3	1	205.578795552021	205.609420463006	"12"	201707.668539567	201700.694144546	1.5	0.1
0.01	1	0.00348147100885399	1	107	NA	216.019571120996	0	0.6	2.3	1	205.845876342006	205.849357813015	"12"	201707.668539567	201700.694144546	1.5	0.1
0.01	1	0.00397584500024095	1	107	NA	216.019571120996	0	0.6	2.3	1	206.079599060002	206.083574905002	"12"	201707.668539567	201700.694144546	1.5	0.1
0.01	1	0.00392931498936377	1	107	NA	216.019571120996	0	0.6	2.3	1	206.313265592005	206.317194906995	"12"	201707.668539567	201700.694144546	1.5	0.1
0.01	1	0.00390700498246588	1	107	NA	216.019571120996	0	0.6	2.3	1	206.547054810013	206.550961814995	"12"	201707.668539567	201700.694144546	1.5	0.1
0.01	1	0.00397287899977528	1	107	NA	216.019571120996	0	0.6	2.3	1	206.780689302017	206.784662181017	"12"	201707.668539567	201700.694144546	1.5	0.1
0.01	1	0.0040837700071279	1	107	NA	216.019571120996	0	0.6	2.3	1	207.014461885003	207.01854565501	"12"	201707.668539567	201700.694144546	1.5	0.1
0.01	1	0.432507468009135	1	107	NA	216.019571120996	0	0.6	2.3	1	207.248268391995	207.680775860004	"12"	201707.668539567	201700.694144546	1.5	0.1
0.01	1	0.564607754000463	1	107	NA	216.019571120996	0	0.6	2.3	1	207.915966440021	208.480574194022	"12"	201707.668539567	201700.694144546	1.5	0.1
0.01	1	0.156460413010791	1	107	NA	216.019571120996	0	0.6	2.3	1	208.717328597995	208.873789011006	"12"	201707.668539567	201700.694144546	1.5	0.1
0.01	1	0.114692703005858	1	107	NA	216.019571120996	0	0.6	2.3	1	209.101375997008	209.216068700014	"12"	201707.668539567	201700.694144546	1.5	0.1
0.01	1	0.0921165999898221	1	107	NA	216.019571120996	0	0.6	2.3	1	209.451830977021	209.543947577011	"12"	201707.668539567	201700.694144546	1.5	0.1
0.01	1	0.0631410079950001	1	107	NA	216.019571120996	0	0.6	2.3	1	209.769194485008	209.832335493003	"12"	201707.668539567	201700.694144546	1.5	0.1
0.01	1	0.0359078310139012	1	107	NA	216.019571120996	0	0.6	2.3	1	210.069683720008	210.105591551022	"12"	201707.668539567	201700.694144546	1.5	0.1
0.01	1	0.0648220580187626	1	107	NA	216.019571120996	0	0.6	2.3	1	210.336635654996	210.401457713015	"12"	201707.668539567	201700.694144546	1.5	0.1
0.01	1	0.0587404730031267	1	107	NA	216.019571120996	0	0.6	2.3	1	210.637211877009	210.695952350012	"12"	201707.668539567	201700.694144546	1.5	0.1
0.01	1	0.0554871520143934	1	107	NA	216.019571120996	0	0.6	2.3	1	210.921035617997	210.976522770012	"12"	201707.668539567	201700.694144546	1.5	0.1
0.01	1	0.0920173889899161	1	107	NA	216.019571120996	0	0.6	2.3	1	211.204919270007	211.296936658997	"12"	201707.668539567	201700.694144546	1.5	0.1
0.01	1	0.631295300001511	1	107	NA	216.019571120996	0	0.6	2.3	1	211.52201741701	212.153312717011	"12"	201707.668539567	201700.694144546	1.5	0.1
0.01	1	0.0662388580094557	1	107	NA	216.019571120996	0	0.6	2.3	1	212.390182764997	212.456421623006	"12"	201707.668539567	201700.694144546	1.5	0.1
0.01	1	0.0695825750008225	1	107	NA	216.019571120996	0	0.6	2.3	1	212.690667175018	212.760249750019	"12"	201707.668539567	201700.694144546	1.5	0.1
0.01	1	0.0421783930214588	1	107	NA	216.019571120996	0	0.6	2.3	1	212.991272896994	213.033451290015	"12"	201707.668539567	201700.694144546	1.5	0.1
0.01	1	0.0550303109921515	1	107	NA	216.019571120996	0	0.6	2.3	1	213.258334532002	213.313364842994	"12"	201707.668539567	201700.694144546	1.5	0.1
0.01	1	0.0515355399984401	1	107	NA	216.019571120996	0	0.6	2.3	1	213.542133765004	213.593669305003	"12"	201707.668539567	201700.694144546	1.5	0.1
0.01	1	0.0474636680155527	1	107	NA	216.019571120996	0	0.6	2.3	1	213.826018655003	213.873482323019	"12"	201707.668539567	201700.694144546	1.5	0.1
0.01	1	0.0585179679910652	1	107	NA	216.019571120996	0	0.6	2.3	1	214.109763882007	214.168281849998	"12"	201707.668539567	201700.694144546	1.5	0.1
0.01	1	0.110767917009071	1	107	NA	216.019571120996	0	0.6	2.3	1	214.393595844012	214.504363761022	"12"	201707.668539567	201700.694144546	1.5	0.1
0.01	1	0.10514229699038	1	107	NA	216.019571120996	0	0.6	2.3	1	214.744074075017	214.849216372008	"12"	201707.668539567	201700.694144546	1.5	0.1
0.01	1	0.939834527001949	2	107	NA	216.019571120996	0	0.6	2.3	1	215.07804581002	216.017880337022	"12"	201707.668539567	201700.694144546	1.5	0.1
0.01	1	0.526953730004607	1	119	NA	239.514869405015	0	0.6	2.9	1	218.066353277012	218.593307007017	"13"	201707.668539567	201700.694144546	1.5	0.1
0.01	1	0.158694525976898	1	119	NA	239.514869405015	0	0.6	2.9	1	218.817693795019	218.976388320996	"13"	201707.668539567	201700.694144546	1.5	0.1
0.01	1	0.0864533240091987	1	119	NA	239.514869405015	0	0.6	2.9	1	219.201617985003	219.288071309013	"13"	201707.668539567	201700.694144546	1.5	0.1
0.01	1	0.057235740008764	1	119	NA	239.514869405015	0	0.6	2.9	1	219.518853629997	219.576089370006	"13"	201707.668539567	201700.694144546	1.5	0.1
0.01	1	0.109352922008839	1	119	NA	239.514869405015	0	0.6	2.9	1	219.802704130008	219.912057052017	"13"	201707.668539567	201700.694144546	1.5	0.1
0.01	1	0.0640097710129339	1	119	NA	239.514869405015	0	0.6	2.9	1	220.136678759998	220.200688531011	"13"	201707.668539567	201700.694144546	1.5	0.1
0.01	1	0.0918053509958554	1	119	NA	239.514869405015	0	0.6	2.9	1	220.43709259	220.528897940996	"13"	201707.668539567	201700.694144546	1.5	0.1
0.01	1	0.0775236269982997	1	119	NA	239.514869405015	0	0.6	2.9	1	220.754289595003	220.831813222001	"13"	201707.668539567	201700.694144546	1.5	0.1
0.01	1	0.0971613730071113	1	119	NA	239.514869405015	0	0.6	2.9	1	221.054807005014	221.151968378021	"13"	201707.668539567	201700.694144546	1.5	0.1
0.01	1	0.060006287007127	1	119	NA	239.514869405015	0	0.6	2.9	1	221.388619239995	221.448625527002	"13"	201707.668539567	201700.694144546	1.5	0.1
0.01	1	0.75227512899437	1	119	NA	239.514869405015	0	0.6	2.9	1	221.67254030201	222.424815431004	"13"	201707.668539567	201700.694144546	1.5	0.1
0.01	1	0.00399588001891971	1	119	NA	239.514869405015	0	0.6	2.9	1	222.657814186998	222.661810067017	"13"	201707.668539567	201700.694144546	1.5	0.1
0.01	1	0.0857322189840488	1	119	NA	239.514869405015	0	0.6	2.9	1	222.891223005019	222.976955224003	"13"	201707.668539567	201700.694144546	1.5	0.1
0.01	1	0.113401031994727	1	119	NA	239.514869405015	0	0.6	2.9	1	223.208344245009	223.321745277004	"13"	201707.668539567	201700.694144546	1.5	0.1
0.01	1	0.0741428589972202	1	119	NA	239.514869405015	0	0.6	2.9	1	223.558989250014	223.633132109011	"13"	201707.668539567	201700.694144546	1.5	0.1
0.01	1	0.0455685909837484	1	119	NA	239.514869405015	0	0.6	2.9	1	223.859477072023	223.905045663007	"13"	201707.668539567	201700.694144546	1.5	0.1
0.01	1	0.0344127360149287	1	119	NA	239.514869405015	0	0.6	2.9	1	224.143346230005	224.17775896602	"13"	201707.668539567	201700.694144546	1.5	0.1
0.01	1	0.045407472003717	1	119	NA	239.514869405015	0	0.6	2.9	1	224.410429300013	224.455836772016	"13"	201707.668539567	201700.694144546	1.5	0.1
0.01	1	0.0748199289955664	1	119	NA	239.514869405015	0	0.6	2.9	1	224.677486961999	224.752306890994	"13"	201707.668539567	201700.694144546	1.5	0.1
0.01	1	0.103313122002874	1	119	NA	239.514869405015	0	0.6	2.9	1	224.978027177014	225.081340299017	"13"	201707.668539567	201700.694144546	1.5	0.1
0.01	1	0.577453936013626	1	119	NA	239.514869405015	0	0.6	2.9	1	225.311835795001	225.889289731014	"13"	201707.668539567	201700.694144546	1.5	0.1
0.01	1	0.104487522999989	1	119	NA	239.514869405015	0	0.6	2.9	1	226.11330545001	226.21779297301	"13"	201707.668539567	201700.694144546	1.5	0.1
0.01	1	0.0328225649718661	1	119	NA	239.514869405015	0	0.6	2.9	1	226.447141705023	226.479964269995	"13"	201707.668539567	201700.694144546	1.5	0.1
0.01	1	0.0081930450105574	1	119	NA	239.514869405015	0	0.6	2.9	1	226.714340039995	226.722533085005	"13"	201707.668539567	201700.694144546	1.5	0.1
0.01	1	0.0600141239992809	1	119	NA	239.514869405015	0	0.6	2.9	1	226.947967470012	227.007981594012	"13"	201707.668539567	201700.694144546	1.5	0.1
0.01	1	0.0571890179999173	1	119	NA	239.514869405015	0	0.6	2.9	1	227.231761190022	227.288950208022	"13"	201707.668539567	201700.694144546	1.5	0.1
0.01	1	0.0456677850161213	1	119	NA	239.514869405015	0	0.6	2.9	1	227.515708891995	227.561376677011	"13"	201707.668539567	201700.694144546	1.5	0.1
0.01	1	0.00976756500313058	1	119	NA	239.514869405015	0	0.6	2.9	1	227.799448495003	227.809216060006	"13"	201707.668539567	201700.694144546	1.5	0.1
0.01	1	0.0564286260050721	1	119	NA	239.514869405015	0	0.6	2.9	1	228.033079770015	228.08950839602	"13"	201707.668539567	201700.694144546	1.5	0.1
0.01	1	0.0683280939992983	1	119	NA	239.514869405015	0	0.6	2.9	1	228.316965492006	228.385293586005	"13"	201707.668539567	201700.694144546	1.5	0.1
0.01	1	0.455265017983038	1	119	NA	239.514869405015	0	0.6	2.9	1	228.617417315021	229.072682333004	"13"	201707.668539567	201700.694144546	1.5	0.1
0.01	1	0.0592748509952798	1	119	NA	239.514869405015	0	0.6	2.9	1	229.301967352018	229.361242203013	"13"	201707.668539567	201700.694144546	1.5	0.1
0.01	1	0.0541966129967477	1	119	NA	239.514869405015	0	0.6	2.9	1	229.602508692013	229.656705305009	"13"	201707.668539567	201700.694144546	1.5	0.1
0.01	1	0.0421789730025921	1	119	NA	239.514869405015	0	0.6	2.9	1	229.886276000994	229.928454973997	"13"	201707.668539567	201700.694144546	1.5	0.1
0.01	1	0.0635683410218917	1	119	NA	239.514869405015	0	0.6	2.9	1	230.1533834	230.216951741022	"13"	201707.668539567	201700.694144546	1.5	0.1
0.01	1	0.0261142590024974	1	119	NA	239.514869405015	0	0.6	2.9	1	230.45394047501	230.480054734013	"13"	201707.668539567	201700.694144546	1.5	0.1
0.01	1	0.0236808429763187	1	119	NA	239.514869405015	0	0.6	2.9	1	230.704343400022	230.728024242999	"13"	201707.668539567	201700.694144546	1.5	0.1
0.01	1	0.0626946870179381	1	119	NA	239.514869405015	0	0.6	2.9	1	230.954658773	231.017353460018	"13"	201707.668539567	201700.694144546	1.5	0.1
0.01	1	0.066194795013871	1	119	NA	239.514869405015	0	0.6	2.9	1	231.255298144999	231.321492940013	"13"	201707.668539567	201700.694144546	1.5	0.1
0.01	1	0.0778028370114043	1	119	NA	239.514869405015	0	0.6	2.9	1	231.555750875006	231.633553712018	"13"	201707.668539567	201700.694144546	1.5	0.1
0.01	1	0.425708087015664	1	119	NA	239.514869405015	0	0.6	2.9	1	231.856185807002	232.281893894018	"13"	201707.668539567	201700.694144546	1.5	0.1
0.01	1	0.0854730650025886	1	119	NA	239.514869405015	0	0.6	2.9	1	232.507329265005	232.592802330008	"13"	201707.668539567	201700.694144546	1.5	0.1
0.01	1	0.0487748149898835	1	119	NA	239.514869405015	0	0.6	2.9	1	232.824527540011	232.873302355001	"13"	201707.668539567	201700.694144546	1.5	0.1
0.01	1	0.0515103369834833	1	119	NA	239.514869405015	0	0.6	2.9	1	233.108401482023	233.159911819006	"13"	201707.668539567	201700.694144546	1.5	0.1
0.01	1	0.0489312300051097	1	119	NA	239.514869405015	0	0.6	2.9	1	233.392147150007	233.441078380012	"13"	201707.668539567	201700.694144546	1.5	0.1
0.01	1	0.0458926630089991	1	119	NA	239.514869405015	0	0.6	2.9	1	233.675965536997	233.721858200006	"13"	201707.668539567	201700.694144546	1.5	0.1
0.01	1	0.0402376599959098	1	119	NA	239.514869405015	0	0.6	2.9	1	233.959884250013	234.000121910009	"13"	201707.668539567	201700.694144546	1.5	0.1
0.01	1	0.0384447420074139	1	119	NA	239.514869405015	0	0.6	2.9	1	234.226941780013	234.26538652202	"13"	201707.668539567	201700.694144546	1.5	0.1
0.01	1	0.0837613129988313	1	119	NA	239.514869405015	0	0.6	2.9	1	234.494053580012	234.577814893011	"13"	201707.668539567	201700.694144546	1.5	0.1
0.01	1	0.0775780210096855	1	119	NA	239.514869405015	0	0.6	2.9	1	234.811187301995	234.888765323005	"13"	201707.668539567	201700.694144546	1.5	0.1
0.01	1	0.473554885014892	1	119	NA	239.514869405015	0	0.6	2.9	1	235.111713204999	235.585268090013	"13"	201707.668539567	201700.694144546	1.5	0.1
0.01	1	0.0437149799836334	1	119	NA	239.514869405015	0	0.6	2.9	1	235.812981415016	235.856696395	"13"	201707.668539567	201700.694144546	1.5	0.1
0.01	1	0.0877417300071102	1	119	NA	239.514869405015	0	0.6	2.9	1	236.096767234994	236.184508965001	"13"	201707.668539567	201700.694144546	1.5	0.1
0.01	1	0.0421772820118349	1	119	NA	239.514869405015	0	0.6	2.9	1	236.413886155002	236.456063437014	"13"	201707.668539567	201700.694144546	1.5	0.1
0.01	1	0.0155315309821162	1	119	NA	239.514869405015	0	0.6	2.9	1	236.681050102023	236.696581633005	"13"	201707.668539567	201700.694144546	1.5	0.1
0.01	1	0.0371728629979771	1	119	NA	239.514869405015	0	0.6	2.9	1	236.931455640006	236.968628503004	"13"	201707.668539567	201700.694144546	1.5	0.1
0.01	1	0.0903430990001652	1	119	NA	239.514869405015	0	0.6	2.9	1	237.198664615018	237.289007714018	"13"	201707.668539567	201700.694144546	1.5	0.1
0.01	1	0.133687838009791	1	119	NA	239.514869405015	0	0.6	2.9	1	237.515787835	237.64947567301	"13"	201707.668539567	201700.694144546	1.5	0.1
0.01	1	0.278233594988706	1	119	NA	239.514869405015	0	0.6	2.9	1	237.883069480013	238.161303075001	"13"	201707.668539567	201700.694144546	1.5	0.1
0.01	1	0.256256637017941	1	119	NA	239.514869405015	0	0.6	2.9	1	238.383839977003	238.640096614021	"13"	201707.668539567	201700.694144546	1.5	0.1
0.01	1	0.645207888999721	2	119	NA	239.514869405015	0	0.6	2.9	1	238.86799631	239.513204199	"13"	201707.668539567	201700.694144546	1.5	0.1
0.01	1	0.397136902000057	1	71	NA	262.010318567016	0	0.6	3.5	1	241.572534797015	241.969671699015	"14"	201707.668539567	201700.694144546	1.5	0.1
0.01	1	0.106489149009576	1	71	NA	262.010318567016	0	0.6	3.5	1	242.207032884995	242.313522034005	"14"	201707.668539567	201700.694144546	1.5	0.1
0.01	1	0.116708975023357	1	71	NA	262.010318567016	0	0.6	3.5	1	242.540957004996	242.657665980019	"14"	201707.668539567	201700.694144546	1.5	0.1
0.01	1	0.0382558479905128	1	71	NA	262.010318567016	0	0.6	3.5	1	242.891473435011	242.929729283002	"14"	201707.668539567	201700.694144546	1.5	0.1
0.01	1	0.075036533002276	1	71	NA	262.010318567016	0	0.6	3.5	1	243.158595340006	243.233631873009	"14"	201707.668539567	201700.694144546	1.5	0.1
0.01	1	0.0548471910005901	1	71	NA	262.010318567016	0	0.6	3.5	1	243.459131120006	243.513978311006	"14"	201707.668539567	201700.694144546	1.5	0.1
0.01	1	0.0493004909949377	1	71	NA	262.010318567016	0	0.6	3.5	1	243.742978112015	243.79227860301	"14"	201707.668539567	201700.694144546	1.5	0.1
0.01	1	0.00824444199679419	1	71	NA	262.010318567016	0	0.6	3.5	1	244.026719425019	244.034963867016	"14"	201707.668539567	201700.694144546	1.5	0.1
0.01	1	0.0605164199951105	1	71	NA	262.010318567016	0	0.6	3.5	1	244.260503685015	244.32102010501	"14"	201707.668539567	201700.694144546	1.5	0.1
0.01	1	0.0641591530002188	1	71	NA	262.010318567016	0	0.6	3.5	1	244.544196122006	244.608355275006	"14"	201707.668539567	201700.694144546	1.5	0.1
0.01	1	0.476640993001638	1	71	NA	262.010318567016	0	0.6	3.5	1	244.844719660003	245.321360653004	"14"	201707.668539567	201700.694144546	1.5	0.1
0.01	1	0.0772520620084833	1	71	NA	262.010318567016	0	0.6	3.5	1	245.562639854994	245.639891917002	"14"	201707.668539567	201700.694144546	1.5	0.1
0.01	1	0.0502509320212994	1	71	NA	262.010318567016	0	0.6	3.5	1	245.863172584999	245.91342351702	"14"	201707.668539567	201700.694144546	1.5	0.1
0.01	1	0.0785599059890956	1	71	NA	262.010318567016	0	0.6	3.5	1	246.146884679009	246.225444584998	"14"	201707.668539567	201700.694144546	1.5	0.1
0.01	1	0.0485564970003907	1	71	NA	262.010318567016	0	0.6	3.5	1	246.447483772004	246.496040269005	"14"	201707.668539567	201700.694144546	1.5	0.1
0.01	1	0.0542612349963747	1	71	NA	262.010318567016	0	0.6	3.5	1	246.731443295022	246.785704530019	"14"	201707.668539567	201700.694144546	1.5	0.1
0.01	1	0.0179289740044624	1	71	NA	262.010318567016	0	0.6	3.5	1	247.015072525013	247.033001499018	"14"	201707.668539567	201700.694144546	1.5	0.1
0.01	1	0.0556205890025012	1	71	NA	262.010318567016	0	0.6	3.5	1	247.26555141501	247.321172004013	"14"	201707.668539567	201700.694144546	1.5	0.1
0.01	1	0.0598007080261596	1	71	NA	262.010318567016	0	0.6	3.5	1	247.549418484996	247.609219193022	"14"	201707.668539567	201700.694144546	1.5	0.1
0.01	1	0.127856802981114	1	71	NA	262.010318567016	0	0.6	3.5	1	247.833032112016	247.960888914997	"14"	201707.668539567	201700.694144546	1.5	0.1
0.01	1	0.416855694988044	1	71	NA	262.010318567016	0	0.6	3.5	1	248.183723477006	248.600579171994	"14"	201707.668539567	201700.694144546	1.5	0.1
0.01	1	0.125526766001713	1	71	NA	262.010318567016	0	0.6	3.5	1	248.834856485017	248.960383251018	"14"	201707.668539567	201700.694144546	1.5	0.1
0.01	1	0.0791387379867956	1	71	NA	262.010318567016	0	0.6	3.5	1	249.185398782021	249.264537520008	"14"	201707.668539567	201700.694144546	1.5	0.1
0.01	1	0.0101546630030498	1	71	NA	262.010318567016	0	0.6	3.5	1	249.502542380011	249.512697043014	"14"	201707.668539567	201700.694144546	1.5	0.1
0.01	1	0.0566603869956452	1	71	NA	262.010318567016	0	0.6	3.5	1	249.736321305012	249.792981692008	"14"	201707.668539567	201700.694144546	1.5	0.1
0.01	1	0.0375858950137626	1	71	NA	262.010318567016	0	0.6	3.5	1	250.020160804997	250.057746700011	"14"	201707.668539567	201700.694144546	1.5	0.1
0.01	1	0.00979330099653453	1	71	NA	262.010318567016	0	0.6	3.5	1	250.287221881998	250.297015182994	"14"	201707.668539567	201700.694144546	1.5	0.1
0.01	1	0.0479895150056109	1	71	NA	262.010318567016	0	0.6	3.5	1	250.521056280006	250.569045795011	"14"	201707.668539567	201700.694144546	1.5	0.1
0.01	1	0.0290440339886118	1	71	NA	262.010318567016	0	0.6	3.5	1	250.804827595013	250.833871629002	"14"	201707.668539567	201700.694144546	1.5	0.1
0.01	1	0.104725244018482	1	71	NA	262.010318567016	0	0.6	3.5	1	251.071903389995	251.176628634013	"14"	201707.668539567	201700.694144546	1.5	0.1
0.01	1	0.4668070510088	1	71	NA	262.010318567016	0	0.6	3.5	1	251.405758570007	251.872565621015	"14"	201707.668539567	201700.694144546	1.5	0.1
0.01	1	0.062727147975238	1	71	NA	262.010318567016	0	0.6	3.5	1	252.106940145022	252.169667292997	"14"	201707.668539567	201700.694144546	1.5	0.1
0.01	1	0.0421867410186678	1	71	NA	262.010318567016	0	0.6	3.5	1	252.40748527	252.449672011018	"14"	201707.668539567	201700.694144546	1.5	0.1
0.01	1	0.0466770469793119	1	71	NA	262.010318567016	0	0.6	3.5	1	252.674629022018	252.721306068997	"14"	201707.668539567	201700.694144546	1.5	0.1
0.01	1	0.0420332100184169	1	71	NA	262.010318567016	0	0.6	3.5	1	252.958334953	253.000368163019	"14"	201707.668539567	201700.694144546	1.5	0.1
0.01	1	0.0231284369947389	1	71	NA	262.010318567016	0	0.6	3.5	1	253.225524555019	253.248652992013	"14"	201707.668539567	201700.694144546	1.5	0.1
0.01	1	0.0440104549925309	1	71	NA	262.010318567016	0	0.6	3.5	1	253.475893405004	253.519903859997	"14"	201707.668539567	201700.694144546	1.5	0.1
0.01	1	0.0496076929848641	1	71	NA	262.010318567016	0	0.6	3.5	1	253.743016662018	253.792624355003	"14"	201707.668539567	201700.694144546	1.5	0.1
0.01	1	0.0457827490172349	1	71	NA	262.010318567016	0	0.6	3.5	1	254.026826379995	254.072609129013	"14"	201707.668539567	201700.694144546	1.5	0.1
0.01	1	0.0822676109964959	1	71	NA	262.010318567016	0	0.6	3.5	1	254.31066035002	254.392927961017	"14"	201707.668539567	201700.694144546	1.5	0.1
0.01	1	0.477437321009347	1	71	NA	262.010318567016	0	0.6	3.5	1	254.62792059101	255.10535791202	"14"	201707.668539567	201700.694144546	1.5	0.1
0.01	1	0.0627464140125085	1	71	NA	262.010318567016	0	0.6	3.5	1	255.345857370005	255.408603784017	"14"	201707.668539567	201700.694144546	1.5	0.1
0.01	1	0.0510976299992763	1	71	NA	262.010318567016	0	0.6	3.5	1	255.646295585	255.697393214999	"14"	201707.668539567	201700.694144546	1.5	0.1
0.01	1	0.0304718629922718	1	71	NA	262.010318567016	0	0.6	3.5	1	255.930014712008	255.960486575001	"14"	201707.668539567	201700.694144546	1.5	0.1
0.01	1	0.0439434630097821	1	71	NA	262.010318567016	0	0.6	3.5	1	256.197193355008	256.241136818018	"14"	201707.668539567	201700.694144546	1.5	0.1
0.01	1	0.0556809279951267	1	71	NA	262.010318567016	0	0.6	3.5	1	256.464258181019	256.519939109014	"14"	201707.668539567	201700.694144546	1.5	0.1
0.01	1	0.052824326994596	1	71	NA	262.010318567016	0	0.6	3.5	1	256.748147655017	256.800971982011	"14"	201707.668539567	201700.694144546	1.5	0.1
0.01	1	0.0177837740047835	1	71	NA	262.010318567016	0	0.6	3.5	1	257.031970317999	257.049754092004	"14"	201707.668539567	201700.694144546	1.5	0.1
0.01	1	0.0948729779920541	1	71	NA	262.010318567016	0	0.6	3.5	1	257.282351535017	257.377224513009	"14"	201707.668539567	201700.694144546	1.5	0.1
0.01	1	0.0886072079883888	1	71	NA	262.010318567016	0	0.6	3.5	1	257.59949198502	257.688099193008	"14"	201707.668539567	201700.694144546	1.5	0.1
0.01	1	0.539154423982836	1	71	NA	262.010318567016	0	0.6	3.5	1	257.916800105013	258.455954528996	"14"	201707.668539567	201700.694144546	1.5	0.1
0.01	1	0.124865852994844	1	71	NA	262.010318567016	0	0.6	3.5	1	258.684671177005	258.80953703	"14"	201707.668539567	201700.694144546	1.5	0.1
0.01	1	0.142171745013911	1	71	NA	262.010318567016	0	0.6	3.5	1	259.035245484003	259.177417229017	"14"	201707.668539567	201700.694144546	1.5	0.1
0.01	1	0.0786151490174234	1	71	NA	262.010318567016	0	0.6	3.5	1	259.402572505001	259.481187654019	"14"	201707.668539567	201700.694144546	1.5	0.1
0.01	1	0.0414260109828319	1	71	NA	262.010318567016	0	0.6	3.5	1	259.719690562022	259.761116573005	"14"	201707.668539567	201700.694144546	1.5	0.1
0.01	1	0.054321578994859	1	71	NA	262.010318567016	0	0.6	3.5	1	259.986858992022	260.041180571017	"14"	201707.668539567	201700.694144546	1.5	0.1
0.01	1	0.0575127970078029	1	71	NA	262.010318567016	0	0.6	3.5	1	260.270709455013	260.328222252021	"14"	201707.668539567	201700.694144546	1.5	0.1
0.01	1	0.0549872160190716	1	71	NA	262.010318567016	0	0.6	3.5	1	260.554428144998	260.609415361017	"14"	201707.668539567	201700.694144546	1.5	0.1
0.01	1	0.033828352985438	1	71	NA	262.010318567016	0	0.6	3.5	1	260.838294842019	260.872123195004	"14"	201707.668539567	201700.694144546	1.5	0.1
0.01	1	0.0864269710145891	1	71	NA	262.010318567016	0	0.6	3.5	1	261.105416050006	261.191843021021	"14"	201707.668539567	201700.694144546	1.5	0.1
0.01	1	0.585997079004301	2	71	NA	262.010318567016	0	0.6	3.5	1	261.422643040016	262.00864011902	"14"	201707.668539567	201700.694144546	1.5	0.1
0.01	1	0.436181116994703	1	32	274.447979197023	NA	1	0	3.5	1	264.060416884022	264.496598001017	"15"	201707.668539567	201700.694144546	1.5	0.1
0.01	1	0.136140842019813	1	32	274.447979197023	NA	1	0	3.5	1	264.728232872003	264.864373714023	"15"	201707.668539567	201700.694144546	1.5	0.1
0.01	1	0.0578909100149758	1	32	274.447979197023	NA	1	0	3.5	1	265.095519549999	265.153410460014	"15"	201707.668539567	201700.694144546	1.5	0.1
0.01	1	0.0460272199998144	1	32	274.447979197023	NA	1	0	3.5	1	265.379213356995	265.425240576995	"15"	201707.668539567	201700.694144546	1.5	0.1
0.01	1	0.0569364580151159	1	32	274.447979197023	NA	1	0	3.5	1	265.663108609995	265.72004506801	"15"	201707.668539567	201700.694144546	1.5	0.1
0.01	1	0.0868316780251916	1	32	274.447979197023	NA	1	0	3.5	1	265.946900234994	266.033731913019	"15"	201707.668539567	201700.694144546	1.5	0.1
0.01	1	0.0571429329866078	1	32	274.447979197023	NA	1	0	3.5	1	266.264138852013	266.321281785	"15"	201707.668539567	201700.694144546	1.5	0.1
0.01	1	0.0363191460201051	1	32	274.447979197023	NA	1	0	3.5	1	266.547873361997	266.584192508017	"15"	201707.668539567	201700.694144546	1.5	0.1
0.01	1	0.0573621680086944	1	32	274.447979197023	NA	1	0	3.5	1	266.815028262004	266.872390430013	"15"	201707.668539567	201700.694144546	1.5	0.1
0.01	1	0.0947804900060873	1	32	274.447979197023	NA	1	0	3.5	1	267.098978402006	267.193758892012	"15"	201707.668539567	201700.694144546	1.5	0.1
0.01	1	0.584693287004484	1	32	274.447979197023	NA	1	0	3.5	1	267.415986270003	268.000679557008	"15"	201707.668539567	201700.694144546	1.5	0.1
0.01	1	0.0221531399874948	1	32	274.447979197023	NA	1	0	3.5	1	268.234104955016	268.256258095003	"15"	201707.668539567	201700.694144546	1.5	0.1
0.01	1	0.0363302500045393	1	32	274.447979197023	NA	1	0	3.5	1	268.484518940008	268.520849190012	"15"	201707.668539567	201700.694144546	1.5	0.1
0.01	1	0.00998238101601601	1	32	274.447979197023	NA	1	0	3.5	1	268.751655080006	268.761637461022	"15"	201707.668539567	201700.694144546	1.5	0.1
0.01	1	0.0096851569833234	1	32	274.447979197023	NA	1	0	3.5	1	268.98544243502	268.995127592003	"15"	201707.668539567	201700.694144546	1.5	0.1
0.01	1	0.0135825949837454	1	32	274.447979197023	NA	1	0	3.5	1	269.219046770013	269.232629364997	"15"	201707.668539567	201700.694144546	1.5	0.1
0.01	1	0.0270809089997783	1	32	274.447979197023	NA	1	0	3.5	1	269.469463771995	269.496544680995	"15"	201707.668539567	201700.694144546	1.5	0.1
0.01	1	0.0565706089837477	1	32	274.447979197023	NA	1	0	3.5	1	269.719940500014	269.776511108998	"15"	201707.668539567	201700.694144546	1.5	0.1
0.01	1	0.0285779380064923	1	32	274.447979197023	NA	1	0	3.5	1	270.003807875008	270.032385813014	"15"	201707.668539567	201700.694144546	1.5	0.1
0.01	1	0.0741082369931974	1	32	274.447979197023	NA	1	0	3.5	1	270.270895430003	270.345003666996	"15"	201707.668539567	201700.694144546	1.5	0.1
0.01	1	0.413443527999334	1	32	274.447979197023	NA	1	0	3.5	1	270.57133964001	270.984783168009	"15"	201707.668539567	201700.694144546	1.5	0.1
0.01	1	0.0271189490158577	1	32	274.447979197023	NA	1	0	3.5	1	271.222519489995	271.249638439011	"15"	201707.668539567	201700.694144546	1.5	0.1
0.01	1	0.0553201450093184	1	32	274.447979197023	NA	1	0	3.5	1	271.472791312	271.52811145701	"15"	201707.668539567	201700.694144546	1.5	0.1
0.01	1	0.0288351479975972	1	32	274.447979197023	NA	1	0	3.5	1	271.756694277021	271.785529425018	"15"	201707.668539567	201700.694144546	1.5	0.1
0.01	1	0.00861332600470632	1	32	274.447979197023	NA	1	0	3.5	1	272.023826045013	272.032439371018	"15"	201707.668539567	201700.694144546	1.5	0.1
0.01	1	0.0228086800198071	1	32	274.447979197023	NA	1	0	3.5	1	272.257553639996	272.280362320016	"15"	201707.668539567	201700.694144546	1.5	0.1
0.01	1	0.0287018069939222	1	32	274.447979197023	NA	1	0	3.5	1	272.508024205017	272.536726012011	"15"	201707.668539567	201700.694144546	1.5	0.1
0.01	1	0.0248706510174088	1	32	274.447979197023	NA	1	0	3.5	1	272.775025381998	272.799896033015	"15"	201707.668539567	201700.694144546	1.5	0.1
0.01	1	0.024193496996304	1	32	274.447979197023	NA	1	0	3.5	1	273.02549419002	273.049687687017	"15"	201707.668539567	201700.694144546	1.5	0.1
0.01	1	0.0136049240245484	1	32	274.447979197023	NA	1	0	3.5	1	273.275869589997	273.289474514022	"15"	201707.668539567	201700.694144546	1.5	0.1
0.01	1	0.531182283011731	1	32	274.447979197023	NA	1	0	3.5	1	273.526322680002	274.057504963013	"15"	201707.668539567	201700.694144546	1.5	0.1
0.01	1	0.0345622799941339	1	32	274.447979197023	NA	1	0	3.5	1	274.294238480012	274.328800760006	"15"	201707.668539567	201700.694144546	1.5	0.1
0.01	1	0.551147118996596	1	7	278.822016820021	NA	1	0	3.5	1	276.481193292013	277.032340411009	"16"	201707.668539567	201700.694144546	1.5	0.1
0.01	1	0.151229520997731	1	7	278.822016820021	NA	1	0	3.5	1	277.265918865014	277.417148386012	"16"	201707.668539567	201700.694144546	1.5	0.1
0.01	1	0.046903382986784	1	7	278.822016820021	NA	1	0	3.5	1	277.649953198008	277.696856580995	"16"	201707.668539567	201700.694144546	1.5	0.1
0.01	1	0.0271161750133615	1	7	278.822016820021	NA	1	0	3.5	1	277.933777097001	277.960893272015	"16"	201707.668539567	201700.694144546	1.5	0.1
0.01	1	0.00402416501310654	1	7	278.822016820021	NA	1	0	3.5	1	278.184127090004	278.188151255017	"16"	201707.668539567	201700.694144546	1.5	0.1
0.01	1	0.023413345013978	1	7	278.822016820021	NA	1	0	3.5	1	278.418000345002	278.441413690016	"16"	201707.668539567	201700.694144546	1.5	0.1
0.01	1	0.045335717004491	1	7	278.822016820021	NA	1	0	3.5	1	278.668312955007	278.713648672012	"16"	201707.668539567	201700.694144546	1.5	0.1
0.01	1	0.304754520009737	1	49	296.868425177003	NA	1	0	3.5	1	280.872003060009	281.176757580019	"17"	201707.668539567	201700.694144546	1.5	0.1
0.01	1	0.0354077400115784	1	49	296.868425177003	NA	1	0	3.5	1	281.406316170003	281.441723910015	"17"	201707.668539567	201700.694144546	1.5	0.1
0.01	1	0.0231258859857917	1	49	296.868425177003	NA	1	0	3.5	1	281.673335985019	281.696461871004	"17"	201707.668539567	201700.694144546	1.5	0.1
0.01	1	0.0213573180080857	1	49	296.868425177003	NA	1	0	3.5	1	281.923792877002	281.94515019501	"17"	201707.668539567	201700.694144546	1.5	0.1
0.01	1	0.0260230069980025	1	49	296.868425177003	NA	1	0	3.5	1	282.174270902004	282.200293909002	"17"	201707.668539567	201700.694144546	1.5	0.1
0.01	1	0.0249245390004944	1	49	296.868425177003	NA	1	0	3.5	1	282.424645004998	282.449569543998	"17"	201707.668539567	201700.694144546	1.5	0.1
0.01	1	0.0302486020082142	1	49	296.868425177003	NA	1	0	3.5	1	282.67499005	282.705238652008	"17"	201707.668539567	201700.694144546	1.5	0.1
0.01	1	0.00402121999650262	1	49	296.868425177003	NA	1	0	3.5	1	282.94221152502	282.946232745016	"17"	201707.668539567	201700.694144546	1.5	0.1
0.01	1	0.0323711469827686	1	49	296.868425177003	NA	1	0	3.5	1	283.175897002016	283.208268148999	"17"	201707.668539567	201700.694144546	1.5	0.1
0.01	1	0.00666289697983302	1	49	296.868425177003	NA	1	0	3.5	1	283.443033720017	283.449696616997	"17"	201707.668539567	201700.694144546	1.5	0.1
0.01	1	1.21122961299261	1	49	296.868425177003	NA	1	0	3.5	1	283.676734042005	284.887963654997	"17"	201707.668539567	201700.694144546	1.5	0.1
0.01	1	0.0789597909897566	1	49	296.868425177003	NA	1	0	3.5	1	285.129194772016	285.208154563006	"17"	201707.668539567	201700.694144546	1.5	0.1
0.01	1	0.00352540999301709	1	49	296.868425177003	NA	1	0	3.5	1	285.446309895022	285.449835305015	"17"	201707.668539567	201700.694144546	1.5	0.1
0.01	1	0.00395571297849528	1	49	296.868425177003	NA	1	0	3.5	1	285.680126512016	285.684082224994	"17"	201707.668539567	201700.694144546	1.5	0.1
0.01	1	0.0042081749998033	1	49	296.868425177003	NA	1	0	3.5	1	285.913884870009	285.918093045009	"17"	201707.668539567	201700.694144546	1.5	0.1
0.01	1	0.0137087829934899	1	49	296.868425177003	NA	1	0	3.5	1	286.147588010004	286.161296792998	"17"	201707.668539567	201700.694144546	1.5	0.1
0.01	1	0.0275091069925111	1	49	296.868425177003	NA	1	0	3.5	1	286.397902780009	286.425411887001	"17"	201707.668539567	201700.694144546	1.5	0.1
0.01	1	0.0157338000135496	1	49	296.868425177003	NA	1	0	3.5	1	286.648385214998	286.664119015011	"17"	201707.668539567	201700.694144546	1.5	0.1
0.01	1	0.0137011540064123	1	49	296.868425177003	NA	1	0	3.5	1	286.898799677001	286.912500831007	"17"	201707.668539567	201700.694144546	1.5	0.1
0.01	1	0.0126549410051666	1	49	296.868425177003	NA	1	0	3.5	1	287.149238604004	287.16189354501	"17"	201707.668539567	201700.694144546	1.5	0.1
0.01	1	0.664366810990032	1	49	296.868425177003	NA	1	0	3.5	1	287.399636005022	288.064002816012	"17"	201707.668539567	201700.694144546	1.5	0.1
0.01	1	0.0365061320189852	1	49	296.868425177003	NA	1	0	3.5	1	288.301267931995	288.337774064014	"17"	201707.668539567	201700.694144546	1.5	0.1
0.01	1	0.0176263070025016	1	49	296.868425177003	NA	1	0	3.5	1	288.56818363702	288.585809944023	"17"	201707.668539567	201700.694144546	1.5	0.1
0.01	1	0.00819924299139529	1	49	296.868425177003	NA	1	0	3.5	1	288.818830874021	288.827030117012	"17"	201707.668539567	201700.694144546	1.5	0.1
0.01	1	0.0213534969952889	1	49	296.868425177003	NA	1	0	3.5	1	289.05243141501	289.073784912005	"17"	201707.668539567	201700.694144546	1.5	0.1
0.01	1	0.0490393950021826	1	49	296.868425177003	NA	1	0	3.5	1	289.302791235008	289.35183063001	"17"	201707.668539567	201700.694144546	1.5	0.1
0.01	1	0.030407665995881	1	49	296.868425177003	NA	1	0	3.5	1	289.586650195008	289.617057861004	"17"	201707.668539567	201700.694144546	1.5	0.1
0.01	1	0.0112021979875863	1	49	296.868425177003	NA	1	0	3.5	1	289.853715005011	289.864917202998	"17"	201707.668539567	201700.694144546	1.5	0.1
0.01	1	0.0732817240059376	1	49	296.868425177003	NA	1	0	3.5	1	290.087463689997	290.160745414003	"17"	201707.668539567	201700.694144546	1.5	0.1
0.01	1	0.0530592720024288	1	49	296.868425177003	NA	1	0	3.5	1	290.387978620012	290.441037892015	"17"	201707.668539567	201700.694144546	1.5	0.1
0.01	1	0.713101086992538	1	49	296.868425177003	NA	1	0	3.5	1	290.671895052015	291.384996139008	"17"	201707.668539567	201700.694144546	1.5	0.1
