"payoff.level"	"balloon"	"rt"	"resp"	"explode.trial"	"explode.time"	"finish.time"	"exploded"	"trial.total"	"cumulative.total"	"finished"	"trial.start"	"trial.end"	"trial.num"	"secs"	"start.time"	"iti"	"isi"
0.01	1	0.922385132995259	1	64	NA	31.6607299370007	0	0.2	0.2	1	0.0158782450016588	0.938263377996918	"1"	50314.074314294	50308.793950313	1.5	0.1
0.01	1	1.06914424300339	1	64	NA	31.6607299370007	0	0.2	0.2	1	1.28474646199902	2.35389070500241	"1"	50314.074314294	50308.793950313	1.5	0.1
0.01	1	1.08839844999602	1	64	NA	31.6607299370007	0	0.2	0.2	1	2.5868880420021	3.67528649199812	"1"	50314.074314294	50308.793950313	1.5	0.1
0.01	1	1.15196780400584	1	64	NA	31.6607299370007	0	0.2	0.2	1	3.90584622499591	5.05781402900175	"1"	50314.074314294	50308.793950313	1.5	0.1
0.01	1	1.27821851499903	1	64	NA	31.6607299370007	0	0.2	0.2	1	5.29167815500114	6.56989667000016	"1"	50314.074314294	50308.793950313	1.5	0.1
0.01	1	1.32829403800133	1	64	NA	31.6607299370007	0	0.2	0.2	1	6.79399992599792	8.12229396399925	"1"	50314.074314294	50308.793950313	1.5	0.1
0.01	1	1.47166878599819	1	64	NA	31.6607299370007	0	0.2	0.2	1	8.36334609999903	9.83501488599723	"1"	50314.074314294	50308.793950313	1.5	0.1
0.01	1	1.48094560699974	1	64	NA	31.6607299370007	0	0.2	0.2	1	10.0663402499995	11.5472858569992	"1"	50314.074314294	50308.793950313	1.5	0.1
0.01	1	1.40160792999814	1	64	NA	31.6607299370007	0	0.2	0.2	1	11.7857540269979	13.187361956996	"1"	50314.074314294	50308.793950313	1.5	0.1
0.01	1	1.47749900700001	1	64	NA	31.6607299370007	0	0.2	0.2	1	13.4218357599966	14.8993347669966	"1"	50314.074314294	50308.793950313	1.5	0.1
0.01	1	1.42117208799755	1	64	NA	31.6607299370007	0	0.2	0.2	1	15.12476264	16.5459347279975	"1"	50314.074314294	50308.793950313	1.5	0.1
0.01	1	1.44005515400204	1	64	NA	31.6607299370007	0	0.2	0.2	1	16.7774188749972	18.2174740289993	"1"	50314.074314294	50308.793950313	1.5	0.1
0.01	1	1.38720462899801	1	64	NA	31.6607299370007	0	0.2	0.2	1	18.4469556690019	19.8341602979999	"1"	50314.074314294	50308.793950313	1.5	0.1
0.01	1	1.20817601299495	1	64	NA	31.6607299370007	0	0.2	0.2	1	20.0664499580016	21.2746259709966	"1"	50314.074314294	50308.793950313	1.5	0.1
0.01	1	1.41268539000157	1	64	NA	31.6607299370007	0	0.2	0.2	1	21.5020917649963	22.9147771549979	"1"	50314.074314294	50308.793950313	1.5	0.1
0.01	1	1.26439430799655	1	64	NA	31.6607299370007	0	0.2	0.2	1	23.1550136020014	24.419407909998	"1"	50314.074314294	50308.793950313	1.5	0.1
0.01	1	1.32946947600431	1	64	NA	31.6607299370007	0	0.2	0.2	1	24.6574204419958	25.9868899180001	"1"	50314.074314294	50308.793950313	1.5	0.1
0.01	1	1.32797778199892	1	64	NA	31.6607299370007	0	0.2	0.2	1	26.2267739219969	27.5547517039959	"1"	50314.074314294	50308.793950313	1.5	0.1
0.01	1	1.39172822899855	1	64	NA	31.6607299370007	0	0.2	0.2	1	27.7792817270019	29.1710099560005	"1"	50314.074314294	50308.793950313	1.5	0.1
0.01	1	0.99664727900381	1	64	NA	31.6607299370007	0	0.2	0.2	1	29.3986318899988	30.3952791690026	"1"	50314.074314294	50308.793950313	1.5	0.1
0.01	1	1.02485516000161	2	64	NA	31.6607299370007	0	0.2	0.2	1	30.6341843359987	31.6590394960003	"1"	50314.074314294	50308.793950313	1.5	0.1
0.01	1	0.376398514999892	1	22	52.9246724350014	NA	1	0	0.2	1	33.7060273219977	34.0824258369976	"2"	50314.074314294	50308.793950313	1.5	0.1
0.01	1	0.800160976999905	1	22	52.9246724350014	NA	1	0	0.2	1	34.3069223799976	35.1070833569975	"2"	50314.074314294	50308.793950313	1.5	0.1
0.01	1	0.699647066001489	1	22	52.9246724350014	NA	1	0	0.2	1	35.3420075819959	36.0416546479973	"2"	50314.074314294	50308.793950313	1.5	0.1
0.01	1	0.821826086001238	1	22	52.9246724350014	NA	1	0	0.2	1	36.2769821649999	37.0988082510012	"2"	50314.074314294	50308.793950313	1.5	0.1
0.01	1	0.785009103004995	1	22	52.9246724350014	NA	1	0	0.2	1	37.3287211459974	38.1137302490024	"2"	50314.074314294	50308.793950313	1.5	0.1
0.01	1	0.686761486998876	1	22	52.9246724350014	NA	1	0	0.2	1	38.3471474019971	39.0339088889959	"2"	50314.074314294	50308.793950313	1.5	0.1
0.01	1	0.689995603999705	1	22	52.9246724350014	NA	1	0	0.2	1	39.2652908000018	39.9552864040015	"2"	50314.074314294	50308.793950313	1.5	0.1
0.01	1	0.650941462998162	1	22	52.9246724350014	NA	1	0	0.2	1	40.1834806170009	40.8344220799991	"2"	50314.074314294	50308.793950313	1.5	0.1
0.01	1	0.669848265002656	1	22	52.9246724350014	NA	1	0	0.2	1	41.0683178449981	41.7381661100007	"2"	50314.074314294	50308.793950313	1.5	0.1
0.01	1	0.633309745004226	1	22	52.9246724350014	NA	1	0	0.2	1	41.9698101569957	42.6031199019999	"2"	50314.074314294	50308.793950313	1.5	0.1
0.01	1	0.644942611994338	1	22	52.9246724350014	NA	1	0	0.2	1	42.8380406150027	43.482983226997	"2"	50314.074314294	50308.793950313	1.5	0.1
0.01	1	0.615760363994923	1	22	52.9246724350014	NA	1	0	0.2	1	43.7061291950013	44.3218895589962	"2"	50314.074314294	50308.793950313	1.5	0.1
0.01	1	0.589084875995468	1	22	52.9246724350014	NA	1	0	0.2	1	44.5575480600019	45.1466329359973	"2"	50314.074314294	50308.793950313	1.5	0.1
0.01	1	0.603200887999265	1	22	52.9246724350014	NA	1	0	0.2	1	45.3755545550011	45.9787554430004	"2"	50314.074314294	50308.793950313	1.5	0.1
0.01	1	0.623896257995511	1	22	52.9246724350014	NA	1	0	0.2	1	46.2102343320003	46.8341305899958	"2"	50314.074314294	50308.793950313	1.5	0.1
0.01	1	0.620665346003079	1	22	52.9246724350014	NA	1	0	0.2	1	47.061757286996	47.6824226329991	"2"	50314.074314294	50308.793950313	1.5	0.1
0.01	1	0.706249465001747	1	22	52.9246724350014	NA	1	0	0.2	1	47.9132133599996	48.6194628250014	"2"	50314.074314294	50308.793950313	1.5	0.1
0.01	1	0.611102627997752	1	22	52.9246724350014	NA	1	0	0.2	1	48.8481225819996	49.4592252099974	"2"	50314.074314294	50308.793950313	1.5	0.1
0.01	1	0.574806149998039	1	22	52.9246724350014	NA	1	0	0.2	1	49.6995223150006	50.2743284649987	"2"	50314.074314294	50308.793950313	1.5	0.1
0.01	1	0.613958456000546	1	22	52.9246724350014	NA	1	0	0.2	1	50.5007947420017	51.1147531980023	"2"	50314.074314294	50308.793950313	1.5	0.1
0.01	1	0.625783537005191	1	22	52.9246724350014	NA	1	0	0.2	1	51.3522178619969	51.9780013990021	"2"	50314.074314294	50308.793950313	1.5	0.1
0.01	1	0.606564657995477	1	22	52.9246724350014	NA	1	0	0.2	1	52.2038212670013	52.8103859249968	"2"	50314.074314294	50308.793950313	1.5	0.1
0.01	1	0.540253961000417	1	115	NA	65.9476139269973	0	0.19	0.39	1	54.9751067329998	55.5153606940003	"3"	50314.074314294	50308.793950313	1.5	0.1
0.01	1	0.523497160000261	1	115	NA	65.9476139269973	0	0.19	0.39	1	55.742969936	56.2664670960003	"3"	50314.074314294	50308.793950313	1.5	0.1
0.01	1	0.437097343994537	1	115	NA	65.9476139269973	0	0.19	0.39	1	56.4941918300028	56.9312891739974	"3"	50314.074314294	50308.793950313	1.5	0.1
0.01	1	0.176954242000647	1	115	NA	65.9476139269973	0	0.19	0.39	1	57.1620958849962	57.3390501269969	"3"	50314.074314294	50308.793950313	1.5	0.1
0.01	1	0.0470724749975489	1	115	NA	65.9476139269973	0	0.19	0.39	1	57.5626823470011	57.6097548219986	"3"	50314.074314294	50308.793950313	1.5	0.1
0.01	1	0.00381124999694293	1	115	NA	65.9476139269973	0	0.19	0.39	1	57.8465020200019	57.8503132699989	"3"	50314.074314294	50308.793950313	1.5	0.1
0.01	1	0.0990949469996849	1	115	NA	65.9476139269973	0	0.19	0.39	1	58.0801994099966	58.1792943569963	"3"	50314.074314294	50308.793950313	1.5	0.1
0.01	1	0.0039158649960882	1	115	NA	65.9476139269973	0	0.19	0.39	1	58.4141683449998	58.4180842099959	"3"	50314.074314294	50308.793950313	1.5	0.1
0.01	1	0.441714412001602	1	115	NA	65.9476139269973	0	0.19	0.39	1	58.647981064998	59.0896954769996	"3"	50314.074314294	50308.793950313	1.5	0.1
0.01	1	0.262955897997017	1	115	NA	65.9476139269973	0	0.19	0.39	1	59.3156605300028	59.5786164279998	"3"	50314.074314294	50308.793950313	1.5	0.1
0.01	1	0.346067553000466	1	115	NA	65.9476139269973	0	0.19	0.39	1	59.8165112419956	60.1625787949961	"3"	50314.074314294	50308.793950313	1.5	0.1
0.01	1	0.482573054003296	1	115	NA	65.9476139269973	0	0.19	0.39	1	60.400816399997	60.8833894540003	"3"	50314.074314294	50308.793950313	1.5	0.1
0.01	1	0.324395607000042	1	115	NA	65.9476139269973	0	0.19	0.39	1	61.1187256299963	61.4431212369964	"3"	50314.074314294	50308.793950313	1.5	0.1
0.01	1	0.349677061996772	1	115	NA	65.9476139269973	0	0.19	0.39	1	61.6696569449996	62.0193340069964	"3"	50314.074314294	50308.793950313	1.5	0.1
0.01	1	0.340397984000447	1	115	NA	65.9476139269973	0	0.19	0.39	1	62.2539623799967	62.5943603639971	"3"	50314.074314294	50308.793950313	1.5	0.1
0.01	1	0.445256977996905	1	115	NA	65.9476139269973	0	0.19	0.39	1	62.82156502	63.2668219979969	"3"	50314.074314294	50308.793950313	1.5	0.1
0.01	1	0.359886754005856	1	115	NA	65.9476139269973	0	0.19	0.39	1	63.5061308219956	63.8660175760015	"3"	50314.074314294	50308.793950313	1.5	0.1
0.01	1	0.703237300003821	1	115	NA	65.9476139269973	0	0.19	0.39	1	64.0903242849963	64.7935615850001	"3"	50314.074314294	50308.793950313	1.5	0.1
0.01	1	0.472849188001419	1	115	NA	65.9476139269973	0	0.19	0.39	1	65.0252288299962	65.4980780179976	"3"	50314.074314294	50308.793950313	1.5	0.1
0.01	1	0.219404312003462	2	115	NA	65.9476139269973	0	0.19	0.39	1	65.7265051899958	65.9459095019993	"3"	50314.074314294	50308.793950313	1.5	0.1
0.01	1	0.00365071399573935	1	31	NA	76.6833013979995	0	0.18	0.57	1	67.9969128320008	68.0005635459966	"4"	50314.074314294	50308.793950313	1.5	0.1
0.01	1	0.30842567000218	1	31	NA	76.6833013979995	0	0.18	0.57	1	68.2307234649998	68.5391491350019	"4"	50314.074314294	50308.793950313	1.5	0.1
0.01	1	0.0223998479996226	1	31	NA	76.6833013979995	0	0.18	0.57	1	68.7649037969968	68.7873036449964	"4"	50314.074314294	50308.793950313	1.5	0.1
0.01	1	0.00398619900079211	1	31	NA	76.6833013979995	0	0.18	0.57	1	69.0154917449981	69.0194779439989	"4"	50314.074314294	50308.793950313	1.5	0.1
0.01	1	0.0404179660035879	1	31	NA	76.6833013979995	0	0.18	0.57	1	69.2491058849992	69.2895238510027	"4"	50314.074314294	50308.793950313	1.5	0.1
0.01	1	0.0790343889966607	1	31	NA	76.6833013979995	0	0.18	0.57	1	69.5160731270007	69.5951075159974	"4"	50314.074314294	50308.793950313	1.5	0.1
0.01	1	0.0810938290014747	1	31	NA	76.6833013979995	0	0.18	0.57	1	69.8333688999992	69.9144627290007	"4"	50314.074314294	50308.793950313	1.5	0.1
0.01	1	0.00386010099464329	1	31	NA	76.6833013979995	0	0.18	0.57	1	70.1505122070012	70.1543723079958	"4"	50314.074314294	50308.793950313	1.5	0.1
0.01	1	0.297364459001983	1	31	NA	76.6833013979995	0	0.18	0.57	1	70.3843474919995	70.6817119510015	"4"	50314.074314294	50308.793950313	1.5	0.1
0.01	1	0.188789366999117	1	31	NA	76.6833013979995	0	0.18	0.57	1	70.9185842099978	71.1073735769969	"4"	50314.074314294	50308.793950313	1.5	0.1
0.01	1	0.106407450002735	1	31	NA	76.6833013979995	0	0.18	0.57	1	71.3359094999978	71.4423169500005	"4"	50314.074314294	50308.793950313	1.5	0.1
0.01	1	0.396247596996545	1	31	NA	76.6833013979995	0	0.18	0.57	1	71.6698403100017	72.0660879069983	"4"	50314.074314294	50308.793950313	1.5	0.1
0.01	1	0.274008492997382	1	31	NA	76.6833013979995	0	0.18	0.57	1	72.3042369850009	72.5782454779983	"4"	50314.074314294	50308.793950313	1.5	0.1
0.01	1	0.260904267001024	1	31	NA	76.6833013979995	0	0.18	0.57	1	72.8051294620018	73.0660337290028	"4"	50314.074314294	50308.793950313	1.5	0.1
0.01	1	0.8820469209968	1	31	NA	76.6833013979995	0	0.18	0.57	1	73.2891725070003	74.1712194279971	"4"	50314.074314294	50308.793950313	1.5	0.1
0.01	1	0.00380050200328697	1	31	NA	76.6833013979995	0	0.18	0.57	1	74.4077009499961	74.4115014519994	"4"	50314.074314294	50308.793950313	1.5	0.1
0.01	1	0.584967631002655	1	31	NA	76.6833013979995	0	0.18	0.57	1	74.6413780169969	75.2263456479996	"4"	50314.074314294	50308.793950313	1.5	0.1
0.01	1	0.535736936995818	1	31	NA	76.6833013979995	0	0.18	0.57	1	75.4594819949998	75.9952189319956	"4"	50314.074314294	50308.793950313	1.5	0.1
0.01	1	0.454151707999699	2	31	NA	76.6833013979995	0	0.18	0.57	1	76.2274491099961	76.6816008179958	"4"	50314.074314294	50308.793950313	1.5	0.1
0.01	1	0.480466221997631	1	96	NA	87.8358330560004	0	0.25	0.82	1	78.7149613220026	79.1954275440003	"5"	50314.074314294	50308.793950313	1.5	0.1
0.01	1	0.0253168709969032	1	96	NA	87.8358330560004	0	0.25	0.82	1	79.4328879349996	79.4582048059965	"5"	50314.074314294	50308.793950313	1.5	0.1
0.01	1	0.00384277999546612	1	96	NA	87.8358330560004	0	0.25	0.82	1	79.6832847620026	79.6871275419981	"5"	50314.074314294	50308.793950313	1.5	0.1
0.01	1	0.0378339730013977	1	96	NA	87.8358330560004	0	0.25	0.82	1	79.9170324719962	79.9548664449976	"5"	50314.074314294	50308.793950313	1.5	0.1
0.01	1	0.00391112500074087	1	96	NA	87.8358330560004	0	0.25	0.82	1	80.1841096549979	80.1880207799986	"5"	50314.074314294	50308.793950313	1.5	0.1
0.01	1	0.0800257999944733	1	96	NA	87.8358330560004	0	0.25	0.82	1	80.4178275770028	80.4978533769972	"5"	50314.074314294	50308.793950313	1.5	0.1
0.01	1	0.0918994480016408	1	96	NA	87.8358330560004	0	0.25	0.82	1	80.7349641969995	80.8268636450011	"5"	50314.074314294	50308.793950313	1.5	0.1
0.01	1	0.00386558099853573	1	96	NA	87.8358330560004	0	0.25	0.82	1	81.0522099669979	81.0560755479964	"5"	50314.074314294	50308.793950313	1.5	0.1
0.01	1	0.0924443490002886	1	96	NA	87.8358330560004	0	0.25	0.82	1	81.2860326949958	81.3784770439961	"5"	50314.074314294	50308.793950313	1.5	0.1
0.01	1	0.0045928149993415	1	96	NA	87.8358330560004	0	0.25	0.82	1	81.6032112350003	81.6078040499997	"5"	50314.074314294	50308.793950313	1.5	0.1
0.01	1	0.0851192870031809	1	96	NA	87.8358330560004	0	0.25	0.82	1	81.8368308099962	81.9219500969994	"5"	50314.074314294	50308.793950313	1.5	0.1
0.01	1	0.00396766899939394	1	96	NA	87.8358330560004	0	0.25	0.82	1	82.1541654969988	82.1581331659982	"5"	50314.074314294	50308.793950313	1.5	0.1
0.01	1	0.0540434650029056	1	96	NA	87.8358330560004	0	0.25	0.82	1	82.3878866149971	82.44193008	"5"	50314.074314294	50308.793950313	1.5	0.1
0.01	1	0.1939838219987	1	96	NA	87.8358330560004	0	0.25	0.82	1	82.671642235	82.8656260569987	"5"	50314.074314294	50308.793950313	1.5	0.1
0.01	1	0.0408301249990473	1	96	NA	87.8358330560004	0	0.25	0.82	1	83.1056473200006	83.1464774449996	"5"	50314.074314294	50308.793950313	1.5	0.1
0.01	1	0.0213716729995213	1	96	NA	87.8358330560004	0	0.25	0.82	1	83.3728655000014	83.3942371730009	"5"	50314.074314294	50308.793950313	1.5	0.1
0.01	1	0.00460434699925827	1	96	NA	87.8358330560004	0	0.25	0.82	1	83.6232886150028	83.6278929620021	"5"	50314.074314294	50308.793950313	1.5	0.1
0.01	1	0.00387104599940358	1	96	NA	87.8358330560004	0	0.25	0.82	1	83.8569272899986	83.860798335998	"5"	50314.074314294	50308.793950313	1.5	0.1
0.01	1	0.600352009001654	1	96	NA	87.8358330560004	0	0.25	0.82	1	84.0907140799973	84.6910660889989	"5"	50314.074314294	50308.793950313	1.5	0.1
0.01	1	0.0283742620013072	1	96	NA	87.8358330560004	0	0.25	0.82	1	84.9253858049997	84.953760067001	"5"	50314.074314294	50308.793950313	1.5	0.1
0.01	1	0.0266805830033263	1	96	NA	87.8358330560004	0	0.25	0.82	1	85.1757821549982	85.2024627380015	"5"	50314.074314294	50308.793950313	1.5	0.1
0.01	1	0.00202356399677228	1	96	NA	87.8358330560004	0	0.25	0.82	1	85.4263417990005	85.4283653629973	"5"	50314.074314294	50308.793950313	1.5	0.1
0.01	1	0.00394284399953904	1	96	NA	87.8358330560004	0	0.25	0.82	1	85.6599684100001	85.6639112539997	"5"	50314.074314294	50308.793950313	1.5	0.1
0.01	1	0.525917368999217	1	96	NA	87.8358330560004	0	0.25	0.82	1	85.8936708170004	86.4195881859996	"5"	50314.074314294	50308.793950313	1.5	0.1
0.01	1	0.700539022000157	1	96	NA	87.8358330560004	0	0.25	0.82	1	86.6449535560023	87.3454925780024	"5"	50314.074314294	50308.793950313	1.5	0.1
0.01	1	0.254337455000496	2	96	NA	87.8358330560004	0	0.25	0.82	1	87.5799184299976	87.8342558849981	"5"	50314.074314294	50308.793950313	1.5	0.1
0.01	1	0.174819125997601	1	43	NA	96.5471352449968	0	0.18	1	1	89.8670393200009	90.0418584459985	"6"	50314.074314294	50308.793950313	1.5	0.1
0.01	1	0.0461978320017806	1	43	NA	96.5471352449968	0	0.18	1	1	90.2677141169988	90.3139119490006	"6"	50314.074314294	50308.793950313	1.5	0.1
0.01	1	0.00381158999516629	1	43	NA	96.5471352449968	0	0.18	1	1	90.5515277500017	90.5553393399969	"6"	50314.074314294	50308.793950313	1.5	0.1
0.01	1	0.090068664001592	1	43	NA	96.5471352449968	0	0.18	1	1	90.7852893550007	90.8753580190023	"6"	50314.074314294	50308.793950313	1.5	0.1
0.01	1	0.108516125997994	1	43	NA	96.5471352449968	0	0.18	1	1	91.10248116	91.210997285998	"6"	50314.074314294	50308.793950313	1.5	0.1
0.01	1	0.00383999099722132	1	43	NA	96.5471352449968	0	0.18	1	1	91.4364017769985	91.4402417679958	"6"	50314.074314294	50308.793950313	1.5	0.1
0.01	1	0.0602030500012916	1	43	NA	96.5471352449968	0	0.18	1	1	91.6701298249973	91.7303328749986	"6"	50314.074314294	50308.793950313	1.5	0.1
0.01	1	0.00244266400113702	1	43	NA	96.5471352449968	0	0.18	1	1	91.9538580500011	91.9563007140023	"6"	50314.074314294	50308.793950313	1.5	0.1
0.01	1	0.447093237002264	1	43	NA	96.5471352449968	0	0.18	1	1	92.1877005569986	92.6347937940009	"6"	50314.074314294	50308.793950313	1.5	0.1
0.01	1	0.0334888640063582	1	43	NA	96.5471352449968	0	0.18	1	1	92.872111824996	92.9056006890023	"6"	50314.074314294	50308.793950313	1.5	0.1
0.01	1	0.00252380900201388	1	43	NA	96.5471352449968	0	0.18	1	1	93.1393150939984	93.1418389030005	"6"	50314.074314294	50308.793950313	1.5	0.1
0.01	1	0.00379906300076982	1	43	NA	96.5471352449968	0	0.18	1	1	93.3729551069991	93.3767541699999	"6"	50314.074314294	50308.793950313	1.5	0.1
0.01	1	0.00384627599851228	1	43	NA	96.5471352449968	0	0.18	1	1	93.6065939399996	93.6104402159981	"6"	50314.074314294	50308.793950313	1.5	0.1
0.01	1	0.403108840997447	1	43	NA	96.5471352449968	0	0.18	1	1	93.8404544770019	94.2435633179994	"6"	50314.074314294	50308.793950313	1.5	0.1
0.01	1	0.00220496900146827	1	43	NA	96.5471352449968	0	0.18	1	1	94.4748679679979	94.4770729369993	"6"	50314.074314294	50308.793950313	1.5	0.1
0.01	1	0.517486384997028	1	43	NA	96.5471352449968	0	0.18	1	1	94.7084832399996	95.2259696249967	"6"	50314.074314294	50308.793950313	1.5	0.1
0.01	1	0.00362970699643483	1	43	NA	96.5471352449968	0	0.18	1	1	95.4598161370013	95.4634458439978	"6"	50314.074314294	50308.793950313	1.5	0.1
0.01	1	0.333623275000718	1	43	NA	96.5471352449968	0	0.18	1	1	95.6935042999976	96.0271275749983	"6"	50314.074314294	50308.793950313	1.5	0.1
0.01	1	0.28449391999311	2	43	NA	96.5471352449968	0	0.18	1	1	96.2610643450025	96.5455582649956	"6"	50314.074314294	50308.793950313	1.5	0.1
0.01	1	0.00382373100001132	1	100	NA	112.412696063999	0	0.29	1.29	1	98.5817284270015	98.5855521580015	"7"	50314.074314294	50308.793950313	1.5	0.1
0.01	1	0.140049159999762	1	100	NA	112.412696063999	0	0.29	1.29	1	98.8154312769984	98.9554804369982	"7"	50314.074314294	50308.793950313	1.5	0.1
0.01	1	0.116490600004909	1	100	NA	112.412696063999	0	0.29	1.29	1	99.1827497799968	99.2992403800017	"7"	50314.074314294	50308.793950313	1.5	0.1
0.01	1	0.00459985999623314	1	100	NA	112.412696063999	0	0.29	1.29	1	99.5332720700026	99.5378719299988	"7"	50314.074314294	50308.793950313	1.5	0.1
0.01	1	0.0824953740011551	1	100	NA	112.412696063999	0	0.29	1.29	1	99.7671861950002	99.8496815690014	"7"	50314.074314294	50308.793950313	1.5	0.1
0.01	1	0.119170570003917	1	100	NA	112.412696063999	0	0.29	1.29	1	100.084205886997	100.203376457001	"7"	50314.074314294	50308.793950313	1.5	0.1
0.01	1	0.0037974490041961	1	100	NA	112.412696063999	0	0.29	1.29	1	100.434881654997	100.438679104001	"7"	50314.074314294	50308.793950313	1.5	0.1
0.01	1	0.0614609589974862	1	100	NA	112.412696063999	0	0.29	1.29	1	100.668657725	100.730118683998	"7"	50314.074314294	50308.793950313	1.5	0.1
0.01	1	0.00382827099383576	1	100	NA	112.412696063999	0	0.29	1.29	1	100.952324985003	100.956153255996	"7"	50314.074314294	50308.793950313	1.5	0.1
0.01	1	0.00395112700061873	1	100	NA	112.412696063999	0	0.29	1.29	1	101.186157967	101.190109094001	"7"	50314.074314294	50308.793950313	1.5	0.1
0.01	1	0.00377344400476431	1	100	NA	112.412696063999	0	0.29	1.29	1	101.419785849997	101.423559294002	"7"	50314.074314294	50308.793950313	1.5	0.1
0.01	1	0.109913511005288	1	100	NA	112.412696063999	0	0.29	1.29	1	101.653557234997	101.763470746002	"7"	50314.074314294	50308.793950313	1.5	0.1
0.01	1	0.00459142999898177	1	100	NA	112.412696063999	0	0.29	1.29	1	101.987449640001	101.99204107	"7"	50314.074314294	50308.793950313	1.5	0.1
0.01	1	0.0703558079985669	1	100	NA	112.412696063999	0	0.29	1.29	1	102.221124367003	102.291480175001	"7"	50314.074314294	50308.793950313	1.5	0.1
0.01	1	0.304704968999431	1	100	NA	112.412696063999	0	0.29	1.29	1	102.521713326998	102.826418295997	"7"	50314.074314294	50308.793950313	1.5	0.1
0.01	1	0.234107935000793	1	100	NA	112.412696063999	0	0.29	1.29	1	103.055919466999	103.290027401999	"7"	50314.074314294	50308.793950313	1.5	0.1
0.01	1	0.264075104001677	1	100	NA	112.412696063999	0	0.29	1.29	1	103.523444594997	103.787519698999	"7"	50314.074314294	50308.793950313	1.5	0.1
0.01	1	0.250645079002425	1	100	NA	112.412696063999	0	0.29	1.29	1	104.024253069998	104.274898149	"7"	50314.074314294	50308.793950313	1.5	0.1
0.01	1	0.285470130998874	1	100	NA	112.412696063999	0	0.29	1.29	1	104.508304912	104.793775042999	"7"	50314.074314294	50308.793950313	1.5	0.1
0.01	1	0.632460497006832	1	100	NA	112.412696063999	0	0.29	1.29	1	105.025901577996	105.658362075003	"7"	50314.074314294	50308.793950313	1.5	0.1
0.01	1	0.348697544999595	1	100	NA	112.412696063999	0	0.29	1.29	1	105.894065230001	106.242762775	"7"	50314.074314294	50308.793950313	1.5	0.1
0.01	1	0.325161611996009	1	100	NA	112.412696063999	0	0.29	1.29	1	106.478289225	106.803450836996	"7"	50314.074314294	50308.793950313	1.5	0.1
0.01	1	0.405178467997757	1	100	NA	112.412696063999	0	0.29	1.29	1	107.029273355001	107.434451822999	"7"	50314.074314294	50308.793950313	1.5	0.1
0.01	1	0.370059524997487	1	100	NA	112.412696063999	0	0.29	1.29	1	107.663681500002	108.033741024999	"7"	50314.074314294	50308.793950313	1.5	0.1
0.01	1	0.593040213003405	1	100	NA	112.412696063999	0	0.29	1.29	1	108.264740366998	108.857780580001	"7"	50314.074314294	50308.793950313	1.5	0.1
0.01	1	0.384453070997552	1	100	NA	112.412696063999	0	0.29	1.29	1	109.082724580003	109.467177651	"7"	50314.074314294	50308.793950313	1.5	0.1
0.01	1	0.390884945001744	1	100	NA	112.412696063999	0	0.29	1.29	1	109.700418809996	110.091303754998	"7"	50314.074314294	50308.793950313	1.5	0.1
0.01	1	0.461195329000475	1	100	NA	112.412696063999	0	0.29	1.29	1	110.318074816998	110.779270145998	"7"	50314.074314294	50308.793950313	1.5	0.1
0.01	1	0.448238962999312	1	100	NA	112.412696063999	0	0.29	1.29	1	111.002621382002	111.450860345001	"7"	50314.074314294	50308.793950313	1.5	0.1
0.01	1	0.72398709999834	2	100	NA	112.412696063999	0	0.29	1.29	1	111.68716596	112.411153059998	"7"	50314.074314294	50308.793950313	1.5	0.1
0.01	1	0.351492084999336	1	65	NA	137.181008997999	0	0.47	1.76	1	114.458462919996	114.809955004996	"8"	50314.074314294	50308.793950313	1.5	0.1
0.01	1	0.0720548460012651	1	65	NA	137.181008997999	0	0.47	1.76	1	115.042719425001	115.114774271002	"8"	50314.074314294	50308.793950313	1.5	0.1
0.01	1	0.00458563499705633	1	65	NA	137.181008997999	0	0.47	1.76	1	115.343272600003	115.347858235	"8"	50314.074314294	50308.793950313	1.5	0.1
0.01	1	0.00376406400027918	1	65	NA	137.181008997999	0	0.47	1.76	1	115.576899309999	115.580663373999	"8"	50314.074314294	50308.793950313	1.5	0.1
0.01	1	0.0634186739989673	1	65	NA	137.181008997999	0	0.47	1.76	1	115.810651977001	115.874070651	"8"	50314.074314294	50308.793950313	1.5	0.1
0.01	1	0.00233010500232922	1	65	NA	137.181008997999	0	0.47	1.76	1	116.111265519998	116.113595625	"8"	50314.074314294	50308.793950313	1.5	0.1
0.01	1	0.0038035339966882	1	65	NA	137.181008997999	0	0.47	1.76	1	116.344928320003	116.348731853999	"8"	50314.074314294	50308.793950313	1.5	0.1
0.01	1	0.112735034999787	1	65	NA	137.181008997999	0	0.47	1.76	1	116.578574325002	116.691309360001	"8"	50314.074314294	50308.793950313	1.5	0.1
0.01	1	0.00209114499739371	1	65	NA	137.181008997999	0	0.47	1.76	1	116.929224553998	116.931315698996	"8"	50314.074314294	50308.793950313	1.5	0.1
0.01	1	0.00216792200080818	1	65	NA	137.181008997999	0	0.47	1.76	1	117.162914	117.165081922001	"8"	50314.074314294	50308.793950313	1.5	0.1
0.01	1	0.0624976320032147	1	65	NA	137.181008997999	0	0.47	1.76	1	117.396600799999	117.459098432002	"8"	50314.074314294	50308.793950313	1.5	0.1
0.01	1	0.00308461999520659	1	65	NA	137.181008997999	0	0.47	1.76	1	117.697193086002	117.700277705997	"8"	50314.074314294	50308.793950313	1.5	0.1
0.01	1	0.00374104200454894	1	65	NA	137.181008997999	0	0.47	1.76	1	117.931010369997	117.934751412002	"8"	50314.074314294	50308.793950313	1.5	0.1
0.01	1	0.100937432005594	1	65	NA	137.181008997999	0	0.47	1.76	1	118.164642801996	118.265580234001	"8"	50314.074314294	50308.793950313	1.5	0.1
0.01	1	0.0020366489989101	1	65	NA	137.181008997999	0	0.47	1.76	1	118.498540966	118.500577614999	"8"	50314.074314294	50308.793950313	1.5	0.1
0.01	1	0.00388135800312739	1	65	NA	137.181008997999	0	0.47	1.76	1	118.732225319996	118.736106677999	"8"	50314.074314294	50308.793950313	1.5	0.1
0.01	1	0.003961618996982	1	65	NA	137.181008997999	0	0.47	1.76	1	118.966032557	118.969994175997	"8"	50314.074314294	50308.793950313	1.5	0.1
0.01	1	0.00402948899863986	1	65	NA	137.181008997999	0	0.47	1.76	1	119.199660644997	119.203690133996	"8"	50314.074314294	50308.793950313	1.5	0.1
0.01	1	0.00396894999721553	1	65	NA	137.181008997999	0	0.47	1.76	1	119.433466679999	119.437435629996	"8"	50314.074314294	50308.793950313	1.5	0.1
0.01	1	0.00363895099872025	1	65	NA	137.181008997999	0	0.47	1.76	1	119.667144915002	119.670783866	"8"	50314.074314294	50308.793950313	1.5	0.1
0.01	1	0.108623821004585	1	65	NA	137.181008997999	0	0.47	1.76	1	119.900881529997	120.009505351001	"8"	50314.074314294	50308.793950313	1.5	0.1
0.01	1	0.168414079998911	1	65	NA	137.181008997999	0	0.47	1.76	1	120.234787100002	120.403201180001	"8"	50314.074314294	50308.793950313	1.5	0.1
0.01	1	0.158116350998171	1	65	NA	137.181008997999	0	0.47	1.76	1	120.635447394998	120.793563745996	"8"	50314.074314294	50308.793950313	1.5	0.1
0.01	1	0.143063062001602	1	65	NA	137.181008997999	0	0.47	1.76	1	121.0195332	121.162596262002	"8"	50314.074314294	50308.793950313	1.5	0.1
0.01	1	0.158425703004468	1	65	NA	137.181008997999	0	0.47	1.76	1	121.403384594996	121.561810298001	"8"	50314.074314294	50308.793950313	1.5	0.1
0.01	1	0.101981007996073	1	65	NA	137.181008997999	0	0.47	1.76	1	121.787500630002	121.889481637998	"8"	50314.074314294	50308.793950313	1.5	0.1
0.01	1	0.137787839994417	1	65	NA	137.181008997999	0	0.47	1.76	1	122.121293855002	122.259081694996	"8"	50314.074314294	50308.793950313	1.5	0.1
0.01	1	0.113673878004192	1	65	NA	137.181008997999	0	0.47	1.76	1	122.488641944998	122.602315823002	"8"	50314.074314294	50308.793950313	1.5	0.1
0.01	1	0.131845083000371	1	65	NA	137.181008997999	0	0.47	1.76	1	122.839189614999	122.971034697999	"8"	50314.074314294	50308.793950313	1.5	0.1
0.01	1	0.163964796003711	1	65	NA	137.181008997999	0	0.47	1.76	1	123.206508614996	123.370473411	"8"	50314.074314294	50308.793950313	1.5	0.1
0.01	1	0.298918710999715	1	65	NA	137.181008997999	0	0.47	1.76	1	123.607210757997	123.906129468996	"8"	50314.074314294	50308.793950313	1.5	0.1
0.01	1	0.277206493999984	1	65	NA	137.181008997999	0	0.47	1.76	1	124.141405009999	124.418611503999	"8"	50314.074314294	50308.793950313	1.5	0.1
0.01	1	0.399916034999478	1	65	NA	137.181008997999	0	0.47	1.76	1	124.658920344998	125.058836379998	"8"	50314.074314294	50308.793950313	1.5	0.1
0.01	1	0.428359368001111	1	65	NA	137.181008997999	0	0.47	1.76	1	125.293363227	125.721722595001	"8"	50314.074314294	50308.793950313	1.5	0.1
0.01	1	0.563008686003741	1	65	NA	137.181008997999	0	0.47	1.76	1	125.944385648996	126.507394335	"8"	50314.074314294	50308.793950313	1.5	0.1
0.01	1	0.393422835004458	1	65	NA	137.181008997999	0	0.47	1.76	1	126.745734076998	127.139156912002	"8"	50314.074314294	50308.793950313	1.5	0.1
0.01	1	0.519104216000414	1	65	NA	137.181008997999	0	0.47	1.76	1	127.363483674999	127.882587890999	"8"	50314.074314294	50308.793950313	1.5	0.1
0.01	1	0.519767699996009	1	65	NA	137.181008997999	0	0.47	1.76	1	128.114725325002	128.634493024998	"8"	50314.074314294	50308.793950313	1.5	0.1
0.01	1	0.56019335900055	1	65	NA	137.181008997999	0	0.47	1.76	1	128.866047627002	129.426240986002	"8"	50314.074314294	50308.793950313	1.5	0.1
0.01	1	0.656409176001034	1	65	NA	137.181008997999	0	0.47	1.76	1	129.650664964996	130.307074140997	"8"	50314.074314294	50308.793950313	1.5	0.1
0.01	1	0.642496961998404	1	65	NA	137.181008997999	0	0.47	1.76	1	130.535523744998	131.178020706997	"8"	50314.074314294	50308.793950313	1.5	0.1
0.01	1	0.567403009001282	1	65	NA	137.181008997999	0	0.47	1.76	1	131.403645580001	131.971048589003	"8"	50314.074314294	50308.793950313	1.5	0.1
0.01	1	0.709733905001485	1	65	NA	137.181008997999	0	0.47	1.76	1	132.205025614996	132.914759519997	"8"	50314.074314294	50308.793950313	1.5	0.1
0.01	1	0.927219773999241	1	65	NA	137.181008997999	0	0.47	1.76	1	133.139902743002	134.067122517001	"8"	50314.074314294	50308.793950313	1.5	0.1
0.01	1	0.830198812000162	1	65	NA	137.181008997999	0	0.47	1.76	1	134.29183355	135.122032362	"8"	50314.074314294	50308.793950313	1.5	0.1
0.01	1	0.361322823002411	1	65	NA	137.181008997999	0	0.47	1.76	1	135.360321874999	135.721644698002	"8"	50314.074314294	50308.793950313	1.5	0.1
0.01	1	0.417505829995207	1	65	NA	137.181008997999	0	0.47	1.76	1	135.944585917001	136.362091746996	"8"	50314.074314294	50308.793950313	1.5	0.1
0.01	1	0.583817061997252	2	65	NA	137.181008997999	0	0.47	1.76	1	136.59562308	137.179440141997	"8"	50314.074314294	50308.793950313	1.5	0.1
0.01	1	1.00912946900644	1	102	NA	162.581063694997	0	0.57	2.33	1	139.233372459996	140.242501929002	"9"	50314.074314294	50308.793950313	1.5	0.1
0.01	1	0.00457512000139104	1	102	NA	162.581063694997	0	0.57	2.33	1	140.468786425001	140.473361545002	"9"	50314.074314294	50308.793950313	1.5	0.1
0.01	1	0.0838673180041951	1	102	NA	162.581063694997	0	0.57	2.33	1	140.702563006998	140.786430325003	"9"	50314.074314294	50308.793950313	1.5	0.1
0.01	1	0.00200661300186766	1	102	NA	162.581063694997	0	0.57	2.33	1	141.019678320001	141.021684933003	"9"	50314.074314294	50308.793950313	1.5	0.1
0.01	1	0.0931914929969935	1	102	NA	162.581063694997	0	0.57	2.33	1	141.253519425001	141.346710917998	"9"	50314.074314294	50308.793950313	1.5	0.1
0.01	1	0.00429904399788938	1	102	NA	162.581063694997	0	0.57	2.33	1	141.570716358001	141.575015401999	"9"	50314.074314294	50308.793950313	1.5	0.1
0.01	1	0.0776545850021648	1	102	NA	162.581063694997	0	0.57	2.33	1	141.804386739997	141.882041325	"9"	50314.074314294	50308.793950313	1.5	0.1
0.01	1	0.00214123600017047	1	102	NA	162.581063694997	0	0.57	2.33	1	142.105010462001	142.107151698001	"9"	50314.074314294	50308.793950313	1.5	0.1
0.01	1	0.00436946200352395	1	102	NA	162.581063694997	0	0.57	2.33	1	142.338710504999	142.343079967002	"9"	50314.074314294	50308.793950313	1.5	0.1
0.01	1	0.0534878039979958	1	102	NA	162.581063694997	0	0.57	2.33	1	142.572336240002	142.625824044	"9"	50314.074314294	50308.793950313	1.5	0.1
0.01	1	0.00199219999922207	1	102	NA	162.581063694997	0	0.57	2.33	1	142.856174619003	142.858166819002	"9"	50314.074314294	50308.793950313	1.5	0.1
0.01	1	0.00264541399519658	1	102	NA	162.581063694997	0	0.57	2.33	1	143.089944478001	143.092589891996	"9"	50314.074314294	50308.793950313	1.5	0.1
0.01	1	0.00275052699726075	1	102	NA	162.581063694997	0	0.57	2.33	1	143.323735662001	143.326486188998	"9"	50314.074314294	50308.793950313	1.5	0.1
0.01	1	0.00437154199607903	1	102	NA	162.581063694997	0	0.57	2.33	1	143.557405378	143.561776919996	"9"	50314.074314294	50308.793950313	1.5	0.1
0.01	1	0.00457221199758351	1	102	NA	162.581063694997	0	0.57	2.33	1	143.791145875002	143.795718087	"9"	50314.074314294	50308.793950313	1.5	0.1
0.01	1	0.00392791299964301	1	102	NA	162.581063694997	0	0.57	2.33	1	144.024831287003	144.028759200002	"9"	50314.074314294	50308.793950313	1.5	0.1
0.01	1	0.0724754440016113	1	102	NA	162.581063694997	0	0.57	2.33	1	144.258474164999	144.330949609001	"9"	50314.074314294	50308.793950313	1.5	0.1
0.01	1	0.00455592500657076	1	102	NA	162.581063694997	0	0.57	2.33	1	144.559068279996	144.563624205002	"9"	50314.074314294	50308.793950313	1.5	0.1
0.01	1	0.00458270699891727	1	102	NA	162.581063694997	0	0.57	2.33	1	144.792966950001	144.797549657	"9"	50314.074314294	50308.793950313	1.5	0.1
0.01	1	0.00247690499963937	1	102	NA	162.581063694997	0	0.57	2.33	1	145.026498022002	145.028974927001	"9"	50314.074314294	50308.793950313	1.5	0.1
0.01	1	0.0139177520031808	1	102	NA	162.581063694997	0	0.57	2.33	1	145.260261149997	145.274178902	"9"	50314.074314294	50308.793950313	1.5	0.1
0.01	1	0.0356370840017917	1	102	NA	162.581063694997	0	0.57	2.33	1	145.510696361998	145.546333446	"9"	50314.074314294	50308.793950313	1.5	0.1
0.01	1	0.112322105997009	1	102	NA	162.581063694997	0	0.57	2.33	1	145.777821349999	145.890143455996	"9"	50314.074314294	50308.793950313	1.5	0.1
0.01	1	0.0994089579980937	1	102	NA	162.581063694997	0	0.57	2.33	1	146.111716070001	146.211125028	"9"	50314.074314294	50308.793950313	1.5	0.1
0.01	1	0.31744245900336	1	102	NA	162.581063694997	0	0.57	2.33	1	146.445545989998	146.762988449002	"9"	50314.074314294	50308.793950313	1.5	0.1
0.01	1	0.0548018089975812	1	102	NA	162.581063694997	0	0.57	2.33	1	146.996472006998	147.051273815996	"9"	50314.074314294	50308.793950313	1.5	0.1
0.01	1	0.0573984419970657	1	102	NA	162.581063694997	0	0.57	2.33	1	147.280257480001	147.337655921998	"9"	50314.074314294	50308.793950313	1.5	0.1
0.01	1	0.0306360129980021	1	102	NA	162.581063694997	0	0.57	2.33	1	147.564061855002	147.594697868	"9"	50314.074314294	50308.793950313	1.5	0.1
0.01	1	0.0182781299954513	1	102	NA	162.581063694997	0	0.57	2.33	1	147.831198845	147.849476974996	"9"	50314.074314294	50308.793950313	1.5	0.1
0.01	1	0.0413832949998323	1	102	NA	162.581063694997	0	0.57	2.33	1	148.081764071998	148.123147366998	"9"	50314.074314294	50308.793950313	1.5	0.1
0.01	1	0.189477247004106	1	102	NA	162.581063694997	0	0.57	2.33	1	148.348796924998	148.538274172002	"9"	50314.074314294	50308.793950313	1.5	0.1
0.01	1	0.13309511999978	1	102	NA	162.581063694997	0	0.57	2.33	1	148.766069486999	148.899164606999	"9"	50314.074314294	50308.793950313	1.5	0.1
0.01	1	0.133161250996636	1	102	NA	162.581063694997	0	0.57	2.33	1	149.133478445001	149.266639695998	"9"	50314.074314294	50308.793950313	1.5	0.1
0.01	1	0.18274122600269	1	102	NA	162.581063694997	0	0.57	2.33	1	149.5006316	149.683372826003	"9"	50314.074314294	50308.793950313	1.5	0.1
0.01	1	0.172441695001908	1	102	NA	162.581063694997	0	0.57	2.33	1	149.918114034997	150.090555729999	"9"	50314.074314294	50308.793950313	1.5	0.1
0.01	1	0.0997985200010589	1	102	NA	162.581063694997	0	0.57	2.33	1	150.318740841998	150.418539361999	"9"	50314.074314294	50308.793950313	1.5	0.1
0.01	1	0.119022744001995	1	102	NA	162.581063694997	0	0.57	2.33	1	150.652616724998	150.771639469	"9"	50314.074314294	50308.793950313	1.5	0.1
0.01	1	0.110899831001007	1	102	NA	162.581063694997	0	0.57	2.33	1	151.003300129996	151.114199960997	"9"	50314.074314294	50308.793950313	1.5	0.1
0.01	1	0.122187686996767	1	102	NA	162.581063694997	0	0.57	2.33	1	151.33703327	151.459220956996	"9"	50314.074314294	50308.793950313	1.5	0.1
0.01	1	0.346460779997869	1	102	NA	162.581063694997	0	0.57	2.33	1	151.687810069998	152.034270849996	"9"	50314.074314294	50308.793950313	1.5	0.1
0.01	1	0.346905280995998	1	102	NA	162.581063694997	0	0.57	2.33	1	152.271968747002	152.618874027998	"9"	50314.074314294	50308.793950313	1.5	0.1
0.01	1	0.321322928997688	1	102	NA	162.581063694997	0	0.57	2.33	1	152.856345674998	153.177668603996	"9"	50314.074314294	50308.793950313	1.5	0.1
0.01	1	0.266748964000726	1	102	NA	162.581063694997	0	0.57	2.33	1	153.40721931	153.673968274001	"9"	50314.074314294	50308.793950313	1.5	0.1
0.01	1	0.311305725001148	1	102	NA	162.581063694997	0	0.57	2.33	1	153.908167109999	154.219472835	"9"	50314.074314294	50308.793950313	1.5	0.1
0.01	1	0.223739888999262	1	102	NA	162.581063694997	0	0.57	2.33	1	154.442381433	154.666121322	"9"	50314.074314294	50308.793950313	1.5	0.1
0.01	1	0.270568944004481	1	102	NA	162.581063694997	0	0.57	2.33	1	154.893096444997	155.163665389002	"9"	50314.074314294	50308.793950313	1.5	0.1
0.01	1	0.457540567003889	1	102	NA	162.581063694997	0	0.57	2.33	1	155.393952469996	155.851493037	"9"	50314.074314294	50308.793950313	1.5	0.1
0.01	1	0.299284016000456	1	102	NA	162.581063694997	0	0.57	2.33	1	156.078460719997	156.377744735997	"9"	50314.074314294	50308.793950313	1.5	0.1
0.01	1	0.334142927997163	1	102	NA	162.581063694997	0	0.57	2.33	1	156.612692996001	156.946835923998	"9"	50314.074314294	50308.793950313	1.5	0.1
0.01	1	0.309673753996321	1	102	NA	162.581063694997	0	0.57	2.33	1	157.180232967003	157.489906720999	"9"	50314.074314294	50308.793950313	1.5	0.1
0.01	1	0.320936775002338	1	102	NA	162.581063694997	0	0.57	2.33	1	157.714570336997	158.035507111999	"9"	50314.074314294	50308.793950313	1.5	0.1
0.01	1	0.386158451001393	1	102	NA	162.581063694997	0	0.57	2.33	1	158.265458003996	158.651616454998	"9"	50314.074314294	50308.793950313	1.5	0.1
0.01	1	0.342474099001265	1	102	NA	162.581063694997	0	0.57	2.33	1	158.883218349998	159.225692448999	"9"	50314.074314294	50308.793950313	1.5	0.1
0.01	1	0.280298568002763	1	102	NA	162.581063694997	0	0.57	2.33	1	159.450879361997	159.73117793	"9"	50314.074314294	50308.793950313	1.5	0.1
0.01	1	0.571248731001106	1	102	NA	162.581063694997	0	0.57	2.33	1	159.968248564997	160.539497295998	"9"	50314.074314294	50308.793950313	1.5	0.1
0.01	1	0.553406778999488	1	102	NA	162.581063694997	0	0.57	2.33	1	160.769545966999	161.322952745999	"9"	50314.074314294	50308.793950313	1.5	0.1
0.01	1	0.328891643002862	1	102	NA	162.581063694997	0	0.57	2.33	1	161.554303081997	161.883194725	"9"	50314.074314294	50308.793950313	1.5	0.1
0.01	1	0.474277116001758	2	102	NA	162.581063694997	0	0.57	2.33	1	162.105246542	162.579523658002	"9"	50314.074314294	50308.793950313	1.5	0.1
0.01	1	0.626104777002183	1	104	NA	183.724389641997	0	0.51	2.84	1	164.609377854998	165.235482632001	"10"	50314.074314294	50308.793950313	1.5	0.1
0.01	1	0.00392330899921944	1	104	NA	183.724389641997	0	0.51	2.84	1	165.460852744996	165.464776053996	"10"	50314.074314294	50308.793950313	1.5	0.1
0.01	1	0.0764449700000114	1	104	NA	183.724389641997	0	0.51	2.84	1	165.694607174999	165.771052144999	"10"	50314.074314294	50308.793950313	1.5	0.1
0.01	1	0.00460906000080286	1	104	NA	183.724389641997	0	0.51	2.84	1	165.995155470002	165.999764530003	"10"	50314.074314294	50308.793950313	1.5	0.1
0.01	1	0.0942797789975884	1	104	NA	183.724389641997	0	0.51	2.84	1	166.228776215001	166.323055993998	"10"	50314.074314294	50308.793950313	1.5	0.1
0.01	1	0.00201264499628451	1	104	NA	183.724389641997	0	0.51	2.84	1	166.546028719	166.548041363996	"10"	50314.074314294	50308.793950313	1.5	0.1
0.01	1	0.00357736500154715	1	104	NA	183.724389641997	0	0.51	2.84	1	166.779744157	166.783321522002	"10"	50314.074314294	50308.793950313	1.5	0.1
0.01	1	0.00387123599648476	1	104	NA	183.724389641997	0	0.51	2.84	1	167.013434740002	167.017305975998	"10"	50314.074314294	50308.793950313	1.5	0.1
0.01	1	0.0915670760005014	1	104	NA	183.724389641997	0	0.51	2.84	1	167.24717047	167.338737546001	"10"	50314.074314294	50308.793950313	1.5	0.1
0.01	1	0.00268179699924076	1	104	NA	183.724389641997	0	0.51	2.84	1	167.564409252001	167.567091049001	"10"	50314.074314294	50308.793950313	1.5	0.1
0.01	1	0.00391999300336465	1	104	NA	183.724389641997	0	0.51	2.84	1	167.798199274999	167.802119268003	"10"	50314.074314294	50308.793950313	1.5	0.1
0.01	1	0.00460700500116218	1	104	NA	183.724389641997	0	0.51	2.84	1	168.03202151	168.036628515001	"10"	50314.074314294	50308.793950313	1.5	0.1
0.01	1	0.0897363779949956	1	104	NA	183.724389641997	0	0.51	2.84	1	168.265525087001	168.355261464996	"10"	50314.074314294	50308.793950313	1.5	0.1
0.01	1	0.0114886930023204	1	104	NA	183.724389641997	0	0.51	2.84	1	168.582755274998	168.594243968	"10"	50314.074314294	50308.793950313	1.5	0.1
0.01	1	0.00221825300104683	1	104	NA	183.724389641997	0	0.51	2.84	1	168.833168015	168.835386268001	"10"	50314.074314294	50308.793950313	1.5	0.1
0.01	1	0.00396830999670783	1	104	NA	183.724389641997	0	0.51	2.84	1	169.067036471999	169.071004781996	"10"	50314.074314294	50308.793950313	1.5	0.1
0.01	1	0.00386446100310422	1	104	NA	183.724389641997	0	0.51	2.84	1	169.300613564999	169.304478026002	"10"	50314.074314294	50308.793950313	1.5	0.1
0.01	1	0.00432406899926718	1	104	NA	183.724389641997	0	0.51	2.84	1	169.534387886	169.538711955	"10"	50314.074314294	50308.793950313	1.5	0.1
0.01	1	0.00382867000007536	1	104	NA	183.724389641997	0	0.51	2.84	1	169.768019761999	169.771848431999	"10"	50314.074314294	50308.793950313	1.5	0.1
0.01	1	0.00380484299967065	1	104	NA	183.724389641997	0	0.51	2.84	1	170.001773566997	170.005578409997	"10"	50314.074314294	50308.793950313	1.5	0.1
0.01	1	0.00394081099511823	1	104	NA	183.724389641997	0	0.51	2.84	1	170.235607087001	170.239547897996	"10"	50314.074314294	50308.793950313	1.5	0.1
0.01	1	0.102096110000275	1	104	NA	183.724389641997	0	0.51	2.84	1	170.469339564996	170.571435674996	"10"	50314.074314294	50308.793950313	1.5	0.1
0.01	1	0.00943096799892373	1	104	NA	183.724389641997	0	0.51	2.84	1	170.803261859997	170.812692827996	"10"	50314.074314294	50308.793950313	1.5	0.1
0.01	1	0.0022100939968368	1	104	NA	183.724389641997	0	0.51	2.84	1	171.036809295001	171.039019388998	"10"	50314.074314294	50308.793950313	1.5	0.1
0.01	1	0.00306304200057639	1	104	NA	183.724389641997	0	0.51	2.84	1	171.270601103999	171.273664146	"10"	50314.074314294	50308.793950313	1.5	0.1
0.01	1	0.00239830400096253	1	104	NA	183.724389641997	0	0.51	2.84	1	171.504390950002	171.506789254003	"10"	50314.074314294	50308.793950313	1.5	0.1
0.01	1	0.00211507900530705	1	104	NA	183.724389641997	0	0.51	2.84	1	171.738164076996	171.740279156002	"10"	50314.074314294	50308.793950313	1.5	0.1
0.01	1	0.0225048339998466	1	104	NA	183.724389641997	0	0.51	2.84	1	171.971778815001	171.994283649001	"10"	50314.074314294	50308.793950313	1.5	0.1
0.01	1	0.0599934240017319	1	104	NA	183.724389641997	0	0.51	2.84	1	172.222208430001	172.282201854003	"10"	50314.074314294	50308.793950313	1.5	0.1
0.01	1	0.313325994997285	1	104	NA	183.724389641997	0	0.51	2.84	1	172.506040312001	172.819366306998	"10"	50314.074314294	50308.793950313	1.5	0.1
0.01	1	0.218127341999207	1	104	NA	183.724389641997	0	0.51	2.84	1	173.056928186998	173.275055528997	"10"	50314.074314294	50308.793950313	1.5	0.1
0.01	1	0.182869071002642	1	104	NA	183.724389641997	0	0.51	2.84	1	173.507705956996	173.690575027998	"10"	50314.074314294	50308.793950313	1.5	0.1
0.01	1	0.189639324999007	1	104	NA	183.724389641997	0	0.51	2.84	1	173.925031594998	174.114670919997	"10"	50314.074314294	50308.793950313	1.5	0.1
0.01	1	0.140500051005802	1	104	NA	183.724389641997	0	0.51	2.84	1	174.342421429996	174.482921481002	"10"	50314.074314294	50308.793950313	1.5	0.1
0.01	1	0.197844002999773	1	104	NA	183.724389641997	0	0.51	2.84	1	174.709733506999	174.907577509999	"10"	50314.074314294	50308.793950313	1.5	0.1
0.01	1	0.186185006001324	1	104	NA	183.724389641997	0	0.51	2.84	1	175.143830939996	175.330015945998	"10"	50314.074314294	50308.793950313	1.5	0.1
0.01	1	0.161596279998776	1	104	NA	183.724389641997	0	0.51	2.84	1	175.561111078998	175.722707358997	"10"	50314.074314294	50308.793950313	1.5	0.1
0.01	1	0.138300774997333	1	104	NA	183.724389641997	0	0.51	2.84	1	175.945143673001	176.083444447999	"10"	50314.074314294	50308.793950313	1.5	0.1
0.01	1	0.170588191998831	1	104	NA	183.724389641997	0	0.51	2.84	1	176.312429516001	176.483017708	"10"	50314.074314294	50308.793950313	1.5	0.1
0.01	1	0.208884423002019	1	104	NA	183.724389641997	0	0.51	2.84	1	176.713146094997	176.922030517999	"10"	50314.074314294	50308.793950313	1.5	0.1
0.01	1	0.158887739999045	1	104	NA	183.724389641997	0	0.51	2.84	1	177.147242680003	177.306130420002	"10"	50314.074314294	50308.793950313	1.5	0.1
0.01	1	0.19192296500114	1	104	NA	183.724389641997	0	0.51	2.84	1	177.531148369999	177.723071335	"10"	50314.074314294	50308.793950313	1.5	0.1
0.01	1	0.286104769002122	1	104	NA	183.724389641997	0	0.51	2.84	1	177.948593084999	178.234697854001	"10"	50314.074314294	50308.793950313	1.5	0.1
0.01	1	0.320916574004514	1	104	NA	183.724389641997	0	0.51	2.84	1	178.466130296998	178.787046871003	"10"	50314.074314294	50308.793950313	1.5	0.1
0.01	1	0.320947145002719	1	104	NA	183.724389641997	0	0.51	2.84	1	179.017025914996	179.337973059999	"10"	50314.074314294	50308.793950313	1.5	0.1
0.01	1	0.507358380004007	1	104	NA	183.724389641997	0	0.51	2.84	1	179.567916481996	180.075274862	"10"	50314.074314294	50308.793950313	1.5	0.1
0.01	1	0.403022403996147	1	104	NA	183.724389641997	0	0.51	2.84	1	180.302457102	180.705479505996	"10"	50314.074314294	50308.793950313	1.5	0.1
0.01	1	0.321176260003995	1	104	NA	183.724389641997	0	0.51	2.84	1	180.936840044997	181.258016305001	"10"	50314.074314294	50308.793950313	1.5	0.1
0.01	1	0.362221495000995	1	104	NA	183.724389641997	0	0.51	2.84	1	181.487771025	181.849992520001	"10"	50314.074314294	50308.793950313	1.5	0.1
0.01	1	0.394862266002747	1	104	NA	183.724389641997	0	0.51	2.84	1	182.072132164998	182.466994431001	"10"	50314.074314294	50308.793950313	1.5	0.1
0.01	1	0.321123319001344	1	104	NA	183.724389641997	0	0.51	2.84	1	182.689788509997	183.010911828998	"10"	50314.074314294	50308.793950313	1.5	0.1
0.01	1	0.482117229999858	2	104	NA	183.724389641997	0	0.51	2.84	1	183.240703438998	183.722820668998	"10"	50314.074314294	50308.793950313	1.5	0.1
0.01	1	0.481763525996939	1	116	NA	215.859538885001	0	0.73	3.57	1	185.761609415	186.243372940997	"11"	50314.074314294	50308.793950313	1.5	0.1
0.01	1	0.00418512199394172	1	116	NA	215.859538885001	0	0.73	3.57	1	186.479495915002	186.483681036996	"11"	50314.074314294	50308.793950313	1.5	0.1
0.01	1	0.00363701000605943	1	116	NA	215.859538885001	0	0.73	3.57	1	186.713216359996	186.716853370002	"11"	50314.074314294	50308.793950313	1.5	0.1
0.01	1	0.0405829549999908	1	116	NA	215.859538885001	0	0.73	3.57	1	186.947065166998	186.987648121998	"11"	50314.074314294	50308.793950313	1.5	0.1
0.01	1	0.0927492069968139	1	116	NA	215.859538885001	0	0.73	3.57	1	187.214110715002	187.306859921999	"11"	50314.074314294	50308.793950313	1.5	0.1
0.01	1	0.00225594200310297	1	116	NA	215.859538885001	0	0.73	3.57	1	187.531226164996	187.533482106999	"11"	50314.074314294	50308.793950313	1.5	0.1
0.01	1	0.00241328099946259	1	116	NA	215.859538885001	0	0.73	3.57	1	187.765055115997	187.767468396996	"11"	50314.074314294	50308.793950313	1.5	0.1
0.01	1	0.00202794300275855	1	116	NA	215.859538885001	0	0.73	3.57	1	187.998720049996	188.000747992999	"11"	50314.074314294	50308.793950313	1.5	0.1
0.01	1	0.0039324419994955	1	116	NA	215.859538885001	0	0.73	3.57	1	188.232499391997	188.236431833997	"11"	50314.074314294	50308.793950313	1.5	0.1
0.01	1	0.119889969006181	1	116	NA	215.859538885001	0	0.73	3.57	1	188.466153741996	188.586043711002	"11"	50314.074314294	50308.793950313	1.5	0.1
0.01	1	0.0256733249989338	1	116	NA	215.859538885001	0	0.73	3.57	1	188.816838052997	188.842511377996	"11"	50314.074314294	50308.793950313	1.5	0.1
0.01	1	0.0472261290051392	1	116	NA	215.859538885001	0	0.73	3.57	1	189.067258716997	189.114484846003	"11"	50314.074314294	50308.793950313	1.5	0.1
0.01	1	0.0115802500004065	1	116	NA	215.859538885001	0	0.73	3.57	1	189.351048607001	189.362628857001	"11"	50314.074314294	50308.793950313	1.5	0.1
0.01	1	0.0030290779977804	1	116	NA	215.859538885001	0	0.73	3.57	1	189.584680241998	189.587709319996	"11"	50314.074314294	50308.793950313	1.5	0.1
0.01	1	0.00204567200125894	1	116	NA	215.859538885001	0	0.73	3.57	1	189.818434854998	189.820480527	"11"	50314.074314294	50308.793950313	1.5	0.1
0.01	1	0.00207253800181206	1	116	NA	215.859538885001	0	0.73	3.57	1	190.052205521999	190.054278060001	"11"	50314.074314294	50308.793950313	1.5	0.1
0.01	1	0.00401325299753807	1	116	NA	215.859538885001	0	0.73	3.57	1	190.285903716998	190.289916969996	"11"	50314.074314294	50308.793950313	1.5	0.1
0.01	1	0.00457747500331607	1	116	NA	215.859538885001	0	0.73	3.57	1	190.519680614998	190.524258090001	"11"	50314.074314294	50308.793950313	1.5	0.1
0.01	1	0.00244862199906493	1	116	NA	215.859538885001	0	0.73	3.57	1	190.753353376	190.755801997999	"11"	50314.074314294	50308.793950313	1.5	0.1
0.01	1	0.00206209300085902	1	116	NA	215.859538885001	0	0.73	3.57	1	190.987194893998	190.989256986999	"11"	50314.074314294	50308.793950313	1.5	0.1
0.01	1	0.00225779199536191	1	116	NA	215.859538885001	0	0.73	3.57	1	191.220893227	191.223151018996	"11"	50314.074314294	50308.793950313	1.5	0.1
0.01	1	0.00246163900010288	1	116	NA	215.859538885001	0	0.73	3.57	1	191.454595007999	191.457056646999	"11"	50314.074314294	50308.793950313	1.5	0.1
0.01	1	0.00206659999821568	1	116	NA	215.859538885001	0	0.73	3.57	1	191.688272728999	191.690339328998	"11"	50314.074314294	50308.793950313	1.5	0.1
0.01	1	0.00238294200244127	1	116	NA	215.859538885001	0	0.73	3.57	1	191.922001393999	191.924384336002	"11"	50314.074314294	50308.793950313	1.5	0.1
0.01	1	0.00373513199883746	1	116	NA	215.859538885001	0	0.73	3.57	1	192.155744832002	192.159479964001	"11"	50314.074314294	50308.793950313	1.5	0.1
0.01	1	0.0440277439993224	1	116	NA	215.859538885001	0	0.73	3.57	1	192.389483469997	192.433511213996	"11"	50314.074314294	50308.793950313	1.5	0.1
0.01	1	0.145791948998522	1	116	NA	215.859538885001	0	0.73	3.57	1	192.656661175002	192.802453124001	"11"	50314.074314294	50308.793950313	1.5	0.1
0.01	1	0.106229229000746	1	116	NA	215.859538885001	0	0.73	3.57	1	193.040586096999	193.146815325999	"11"	50314.074314294	50308.793950313	1.5	0.1
0.01	1	0.228575190994889	1	116	NA	215.859538885001	0	0.73	3.57	1	193.374457557002	193.603032747997	"11"	50314.074314294	50308.793950313	1.5	0.1
0.01	1	0.161863122004434	1	116	NA	215.859538885001	0	0.73	3.57	1	193.825273944996	193.987137067001	"11"	50314.074314294	50308.793950313	1.5	0.1
0.01	1	0.122397799001192	1	116	NA	215.859538885001	0	0.73	3.57	1	194.209172345996	194.331570144997	"11"	50314.074314294	50308.793950313	1.5	0.1
0.01	1	0.123353342001792	1	116	NA	215.859538885001	0	0.73	3.57	1	194.559767865001	194.683121207003	"11"	50314.074314294	50308.793950313	1.5	0.1
0.01	1	0.140274541001418	1	116	NA	215.859538885001	0	0.73	3.57	1	194.910375786996	195.050650327998	"11"	50314.074314294	50308.793950313	1.5	0.1
0.01	1	0.163715522001439	1	116	NA	215.859538885001	0	0.73	3.57	1	195.277735406999	195.441450929	"11"	50314.074314294	50308.793950313	1.5	0.1
0.01	1	0.124342672002967	1	116	NA	215.859538885001	0	0.73	3.57	1	195.678358429999	195.802701102002	"11"	50314.074314294	50308.793950313	1.5	0.1
0.01	1	0.11834052100312	1	116	NA	215.859538885001	0	0.73	3.57	1	196.028964249999	196.147304771002	"11"	50314.074314294	50308.793950313	1.5	0.1
0.01	1	0.111047551996307	1	116	NA	215.859538885001	0	0.73	3.57	1	196.379570395002	196.490617946998	"11"	50314.074314294	50308.793950313	1.5	0.1
0.01	1	0.1460125099984	1	116	NA	215.859538885001	0	0.73	3.57	1	196.71343802	196.859450529999	"11"	50314.074314294	50308.793950313	1.5	0.1
0.01	1	0.0978126970003359	1	116	NA	215.859538885001	0	0.73	3.57	1	197.097413197	197.195225894	"11"	50314.074314294	50308.793950313	1.5	0.1
0.01	1	0.106670524000947	1	116	NA	215.859538885001	0	0.73	3.57	1	197.431415735002	197.538086259003	"11"	50314.074314294	50308.793950313	1.5	0.1
0.01	1	0.116973114003486	1	116	NA	215.859538885001	0	0.73	3.57	1	197.765200069996	197.882173184	"11"	50314.074314294	50308.793950313	1.5	0.1
0.01	1	0.151078080001753	1	116	NA	215.859538885001	0	0.73	3.57	1	198.115803146997	198.266881226999	"11"	50314.074314294	50308.793950313	1.5	0.1
0.01	1	0.125783344999945	1	116	NA	215.859538885001	0	0.73	3.57	1	198.499713386002	198.625496731001	"11"	50314.074314294	50308.793950313	1.5	0.1
0.01	1	0.151294174000213	1	116	NA	215.859538885001	0	0.73	3.57	1	198.850421607	199.001715781	"11"	50314.074314294	50308.793950313	1.5	0.1
0.01	1	0.0964079099940136	1	116	NA	215.859538885001	0	0.73	3.57	1	199.234454632002	199.330862541996	"11"	50314.074314294	50308.793950313	1.5	0.1
0.01	1	0.106921891005186	1	116	NA	215.859538885001	0	0.73	3.57	1	199.568246534996	199.675168426002	"11"	50314.074314294	50308.793950313	1.5	0.1
0.01	1	0.132921644006274	1	116	NA	215.859538885001	0	0.73	3.57	1	199.902277144996	200.035198789003	"11"	50314.074314294	50308.793950313	1.5	0.1
0.01	1	0.124240498997096	1	116	NA	215.859538885001	0	0.73	3.57	1	200.269474825	200.393715323997	"11"	50314.074314294	50308.793950313	1.5	0.1
0.01	1	0.517453262000345	1	116	NA	215.859538885001	0	0.73	3.57	1	200.620101809996	201.137555071997	"11"	50314.074314294	50308.793950313	1.5	0.1
0.01	1	0.214429510000627	1	116	NA	215.859538885001	0	0.73	3.57	1	201.371222782	201.585652292	"11"	50314.074314294	50308.793950313	1.5	0.1
0.01	1	0.220930549003242	1	116	NA	215.859538885001	0	0.73	3.57	1	201.821981059999	202.042911609002	"11"	50314.074314294	50308.793950313	1.5	0.1
0.01	1	0.242475049002678	1	116	NA	215.859538885001	0	0.73	3.57	1	202.272774616999	202.515249666001	"11"	50314.074314294	50308.793950313	1.5	0.1
0.01	1	0.270253786002286	1	116	NA	215.859538885001	0	0.73	3.57	1	202.740390549996	203.010644335998	"11"	50314.074314294	50308.793950313	1.5	0.1
0.01	1	0.321659114000795	1	116	NA	215.859538885001	0	0.73	3.57	1	203.241106900001	203.562766014002	"11"	50314.074314294	50308.793950313	1.5	0.1
0.01	1	0.386918705000426	1	116	NA	215.859538885001	0	0.73	3.57	1	203.791936957001	204.178855662001	"11"	50314.074314294	50308.793950313	1.5	0.1
0.01	1	0.304461282001284	1	116	NA	215.859538885001	0	0.73	3.57	1	204.409762746996	204.714224028998	"11"	50314.074314294	50308.793950313	1.5	0.1
0.01	1	0.315395527999499	1	116	NA	215.859538885001	0	0.73	3.57	1	204.943923655999	205.259319183999	"11"	50314.074314294	50308.793950313	1.5	0.1
0.01	1	0.29996320400096	1	116	NA	215.859538885001	0	0.73	3.57	1	205.495025069999	205.794988273999	"11"	50314.074314294	50308.793950313	1.5	0.1
0.01	1	0.350233735996881	1	116	NA	215.859538885001	0	0.73	3.57	1	206.029131187999	206.379364923996	"11"	50314.074314294	50308.793950313	1.5	0.1
0.01	1	0.26902593900013	1	116	NA	215.859538885001	0	0.73	3.57	1	206.613446705	206.882472644	"11"	50314.074314294	50308.793950313	1.5	0.1
0.01	1	0.304300192998198	1	116	NA	215.859538885001	0	0.73	3.57	1	207.114170266999	207.418470459997	"11"	50314.074314294	50308.793950313	1.5	0.1
0.01	1	0.258365223999135	1	116	NA	215.859538885001	0	0.73	3.57	1	207.648548794998	207.906914018997	"11"	50314.074314294	50308.793950313	1.5	0.1
0.01	1	0.276962509000441	1	116	NA	215.859538885001	0	0.73	3.57	1	208.132667444996	208.409629953996	"11"	50314.074314294	50308.793950313	1.5	0.1
0.01	1	0.273372594005195	1	116	NA	215.859538885001	0	0.73	3.57	1	208.633475201997	208.906847796003	"11"	50314.074314294	50308.793950313	1.5	0.1
0.01	1	0.308766123001988	1	116	NA	215.859538885001	0	0.73	3.57	1	209.134326877	209.443093000002	"11"	50314.074314294	50308.793950313	1.5	0.1
0.01	1	0.317947581002954	1	116	NA	215.859538885001	0	0.73	3.57	1	209.668565834996	209.986513415999	"11"	50314.074314294	50308.793950313	1.5	0.1
0.01	1	0.43929083400144	1	116	NA	215.859538885001	0	0.73	3.57	1	210.219518605001	210.658809439003	"11"	50314.074314294	50308.793950313	1.5	0.1
0.01	1	0.362335280995467	1	116	NA	215.859538885001	0	0.73	3.57	1	210.887243867001	211.249579147996	"11"	50314.074314294	50308.793950313	1.5	0.1
0.01	1	0.459180136000214	1	116	NA	215.859538885001	0	0.73	3.57	1	211.471633296002	211.930813432002	"11"	50314.074314294	50308.793950313	1.5	0.1
0.01	1	0.41448870000022	1	116	NA	215.859538885001	0	0.73	3.57	1	212.156111099997	212.570599799998	"11"	50314.074314294	50308.793950313	1.5	0.1
0.01	1	0.546871239996108	1	116	NA	215.859538885001	0	0.73	3.57	1	212.807131647001	213.354002886997	"11"	50314.074314294	50308.793950313	1.5	0.1
0.01	1	0.443328189998283	1	116	NA	215.859538885001	0	0.73	3.57	1	213.591856929997	214.035185119996	"11"	50314.074314294	50308.793950313	1.5	0.1
0.01	1	0.82248507499753	1	116	NA	215.859538885001	0	0.73	3.57	1	214.259602120001	215.082087194998	"11"	50314.074314294	50308.793950313	1.5	0.1
0.01	1	0.546552829997381	2	116	NA	215.859538885001	0	0.73	3.57	1	215.311385444998	215.857938274996	"11"	50314.074314294	50308.793950313	1.5	0.1
0.01	1	0.608353397998144	1	92	NA	262.668455134	0	0.830000000000001	4.4	1	217.899030362001	218.507383759999	"12"	50314.074314294	50308.793950313	1.5	0.1
0.01	1	0.227941384000587	1	92	NA	262.668455134	0	0.830000000000001	4.4	1	218.733766316996	218.961707700997	"12"	50314.074314294	50308.793950313	1.5	0.1
0.01	1	0.232875273999525	1	92	NA	262.668455134	0	0.830000000000001	4.4	1	219.201219292001	219.434094566001	"12"	50314.074314294	50308.793950313	1.5	0.1
0.01	1	0.205885379000392	1	92	NA	262.668455134	0	0.830000000000001	4.4	1	219.668661365002	219.874546744002	"12"	50314.074314294	50308.793950313	1.5	0.1
0.01	1	0.155140555994876	1	92	NA	262.668455134	0	0.830000000000001	4.4	1	220.102915342002	220.258055897997	"12"	50314.074314294	50308.793950313	1.5	0.1
0.01	1	0.275067250004213	1	92	NA	262.668455134	0	0.830000000000001	4.4	1	220.486770987998	220.761838238002	"12"	50314.074314294	50308.793950313	1.5	0.1
0.01	1	0.198986720002722	1	92	NA	262.668455134	0	0.830000000000001	4.4	1	220.987627215	221.186613935002	"12"	50314.074314294	50308.793950313	1.5	0.1
0.01	1	0.268807303997164	1	92	NA	262.668455134	0	0.830000000000001	4.4	1	221.42171214	221.690519443997	"12"	50314.074314294	50308.793950313	1.5	0.1
0.01	1	0.288812472994323	1	92	NA	262.668455134	0	0.830000000000001	4.4	1	221.922585765002	222.211398237996	"12"	50314.074314294	50308.793950313	1.5	0.1
0.01	1	0.227402656004415	1	92	NA	262.668455134	0	0.830000000000001	4.4	1	222.439940354998	222.667343011002	"12"	50314.074314294	50308.793950313	1.5	0.1
0.01	1	0.255475418998685	1	92	NA	262.668455134	0	0.830000000000001	4.4	1	222.907487144999	223.162962563998	"12"	50314.074314294	50308.793950313	1.5	0.1
0.01	1	0.186106264998671	1	92	NA	262.668455134	0	0.830000000000001	4.4	1	223.391709249998	223.577815514996	"12"	50314.074314294	50308.793950313	1.5	0.1
0.01	1	0.266526907995285	1	92	NA	262.668455134	0	0.830000000000001	4.4	1	223.809011582001	224.075538489997	"12"	50314.074314294	50308.793950313	1.5	0.1
0.01	1	0.284347048997006	1	92	NA	262.668455134	0	0.830000000000001	4.4	1	224.30986994	224.594216988997	"12"	50314.074314294	50308.793950313	1.5	0.1
0.01	1	0.238323835001211	1	92	NA	262.668455134	0	0.830000000000001	4.4	1	224.827384169999	225.065708005	"12"	50314.074314294	50308.793950313	1.5	0.1
0.01	1	0.235219182999572	1	92	NA	262.668455134	0	0.830000000000001	4.4	1	225.294778944997	225.529998127997	"12"	50314.074314294	50308.793950313	1.5	0.1
0.01	1	0.216184347002127	1	92	NA	262.668455134	0	0.830000000000001	4.4	1	225.762271134998	225.978455482	"12"	50314.074314294	50308.793950313	1.5	0.1
0.01	1	0.25394380200305	1	92	NA	262.668455134	0	0.830000000000001	4.4	1	226.212988186999	226.466931989002	"12"	50314.074314294	50308.793950313	1.5	0.1
0.01	1	0.177542348996212	1	92	NA	262.668455134	0	0.830000000000001	4.4	1	226.697216455002	226.874758803999	"12"	50314.074314294	50308.793950313	1.5	0.1
0.01	1	0.224046770999848	1	92	NA	262.668455134	0	0.830000000000001	4.4	1	227.097795306996	227.321842077996	"12"	50314.074314294	50308.793950313	1.5	0.1
0.01	1	0.182138113996189	1	92	NA	262.668455134	0	0.830000000000001	4.4	1	227.548558540002	227.730696653998	"12"	50314.074314294	50308.793950313	1.5	0.1
0.01	1	0.285387607000303	1	92	NA	262.668455134	0	0.830000000000001	4.4	1	227.966080824997	228.251468431998	"12"	50314.074314294	50308.793950313	1.5	0.1
0.01	1	0.22240508399409	1	92	NA	262.668455134	0	0.830000000000001	4.4	1	228.483505905002	228.705910988996	"12"	50314.074314294	50308.793950313	1.5	0.1
0.01	1	0.187232027994469	1	92	NA	262.668455134	0	0.830000000000001	4.4	1	228.934328734002	229.121560761996	"12"	50314.074314294	50308.793950313	1.5	0.1
0.01	1	0.179677675005223	1	92	NA	262.668455134	0	0.830000000000001	4.4	1	229.351666119997	229.531343795003	"12"	50314.074314294	50308.793950313	1.5	0.1
0.01	1	0.218461598997237	1	92	NA	262.668455134	0	0.830000000000001	4.4	1	229.768969145	229.987430743997	"12"	50314.074314294	50308.793950313	1.5	0.1
0.01	1	0.262108768998587	1	92	NA	262.668455134	0	0.830000000000001	4.4	1	230.219800077997	230.481908846996	"12"	50314.074314294	50308.793950313	1.5	0.1
0.01	1	0.210197365995555	1	92	NA	262.668455134	0	0.830000000000001	4.4	1	230.70396626	230.914163625996	"12"	50314.074314294	50308.793950313	1.5	0.1
0.01	1	0.280297814999358	1	92	NA	262.668455134	0	0.830000000000001	4.4	1	231.137928279997	231.418226094996	"12"	50314.074314294	50308.793950313	1.5	0.1
0.01	1	0.16257983000105	1	92	NA	262.668455134	0	0.830000000000001	4.4	1	231.655635529998	231.818215359999	"12"	50314.074314294	50308.793950313	1.5	0.1
0.01	1	0.185540514001332	1	92	NA	262.668455134	0	0.830000000000001	4.4	1	232.056226859997	232.241767373998	"12"	50314.074314294	50308.793950313	1.5	0.1
0.01	1	0.209617971006082	1	92	NA	262.668455134	0	0.830000000000001	4.4	1	232.473615778996	232.683233750002	"12"	50314.074314294	50308.793950313	1.5	0.1
0.01	1	0.277751818997785	1	92	NA	262.668455134	0	0.830000000000001	4.4	1	232.907589244998	233.185341063996	"12"	50314.074314294	50308.793950313	1.5	0.1
0.01	1	0.163009468000382	1	92	NA	262.668455134	0	0.830000000000001	4.4	1	233.408416316997	233.571425784998	"12"	50314.074314294	50308.793950313	1.5	0.1
0.01	1	0.224956802994711	1	92	NA	262.668455134	0	0.830000000000001	4.4	1	233.809152925001	234.034109727996	"12"	50314.074314294	50308.793950313	1.5	0.1
0.01	1	0.182853491001879	1	92	NA	262.668455134	0	0.830000000000001	4.4	1	234.25997331	234.442826801002	"12"	50314.074314294	50308.793950313	1.5	0.1
0.01	1	0.196999252999376	1	92	NA	262.668455134	0	0.830000000000001	4.4	1	234.677298825001	234.874298078001	"12"	50314.074314294	50308.793950313	1.5	0.1
0.01	1	0.155201102999854	1	92	NA	262.668455134	0	0.830000000000001	4.4	1	235.111399021996	235.266600124996	"12"	50314.074314294	50308.793950313	1.5	0.1
0.01	1	0.244167336997634	1	92	NA	262.668455134	0	0.830000000000001	4.4	1	235.495235447001	235.739402783998	"12"	50314.074314294	50308.793950313	1.5	0.1
0.01	1	0.167417724995175	1	92	NA	262.668455134	0	0.830000000000001	4.4	1	235.979500335001	236.146918059996	"12"	50314.074314294	50308.793950313	1.5	0.1
0.01	1	0.22184212099819	1	92	NA	262.668455134	0	0.830000000000001	4.4	1	236.380051542001	236.601893662999	"12"	50314.074314294	50308.793950313	1.5	0.1
0.01	1	0.268376631996944	1	92	NA	262.668455134	0	0.830000000000001	4.4	1	236.830935022001	237.099311653998	"12"	50314.074314294	50308.793950313	1.5	0.1
0.01	1	0.175877530993603	1	92	NA	262.668455134	0	0.830000000000001	4.4	1	237.331676378002	237.507553908996	"12"	50314.074314294	50308.793950313	1.5	0.1
0.01	1	0.205177535004623	1	92	NA	262.668455134	0	0.830000000000001	4.4	1	237.732385709998	237.937563245003	"12"	50314.074314294	50308.793950313	1.5	0.1
0.01	1	0.228818037001474	1	92	NA	262.668455134	0	0.830000000000001	4.4	1	238.166454776998	238.395272813999	"12"	50314.074314294	50308.793950313	1.5	0.1
0.01	1	0.273595908998686	1	92	NA	262.668455134	0	0.830000000000001	4.4	1	238.617228310002	238.890824219001	"12"	50314.074314294	50308.793950313	1.5	0.1
0.01	1	0.252091862996167	1	92	NA	262.668455134	0	0.830000000000001	4.4	1	239.118171852002	239.370263714998	"12"	50314.074314294	50308.793950313	1.5	0.1
0.01	1	0.167412639995746	1	92	NA	262.668455134	0	0.830000000000001	4.4	1	239.602198840003	239.769611479998	"12"	50314.074314294	50308.793950313	1.5	0.1
0.01	1	0.247615541004052	1	92	NA	262.668455134	0	0.830000000000001	4.4	1	240.002958136996	240.250573678	"12"	50314.074314294	50308.793950313	1.5	0.1
0.01	1	0.235996299001272	1	92	NA	262.668455134	0	0.830000000000001	4.4	1	240.487116787001	240.723113086002	"12"	50314.074314294	50308.793950313	1.5	0.1
0.01	1	0.27224580100301	1	92	NA	262.668455134	0	0.830000000000001	4.4	1	240.954448124998	241.226693926001	"12"	50314.074314294	50308.793950313	1.5	0.1
0.01	1	0.25995406400034	1	92	NA	262.668455134	0	0.830000000000001	4.4	1	241.455403861997	241.715357925998	"12"	50314.074314294	50308.793950313	1.5	0.1
0.01	1	0.278201704997628	1	92	NA	262.668455134	0	0.830000000000001	4.4	1	241.939514275	242.217715979998	"12"	50314.074314294	50308.793950313	1.5	0.1
0.01	1	0.313577817993064	1	92	NA	262.668455134	0	0.830000000000001	4.4	1	242.440443122003	242.754020939996	"12"	50314.074314294	50308.793950313	1.5	0.1
0.01	1	0.31434975299635	1	92	NA	262.668455134	0	0.830000000000001	4.4	1	242.991317430002	243.305667182998	"12"	50314.074314294	50308.793950313	1.5	0.1
0.01	1	0.317180300997279	1	92	NA	262.668455134	0	0.830000000000001	4.4	1	243.542129845002	243.859310145999	"12"	50314.074314294	50308.793950313	1.5	0.1
0.01	1	0.213875859997643	1	92	NA	262.668455134	0	0.830000000000001	4.4	1	244.093114294999	244.306990154997	"12"	50314.074314294	50308.793950313	1.5	0.1
0.01	1	0.315098880004371	1	92	NA	262.668455134	0	0.830000000000001	4.4	1	244.543855279997	244.858954160001	"12"	50314.074314294	50308.793950313	1.5	0.1
0.01	1	0.322845948001486	1	92	NA	262.668455134	0	0.830000000000001	4.4	1	245.094792821998	245.417638769999	"12"	50314.074314294	50308.793950313	1.5	0.1
0.01	1	0.00416919199778931	1	92	NA	262.668455134	0	0.830000000000001	4.4	1	245.645771809999	245.649941001997	"12"	50314.074314294	50308.793950313	1.5	0.1
0.01	1	0.0744720400034566	1	92	NA	262.668455134	0	0.830000000000001	4.4	1	245.879419956997	245.953891997	"12"	50314.074314294	50308.793950313	1.5	0.1
0.01	1	0.631105521999416	1	92	NA	262.668455134	0	0.830000000000001	4.4	1	246.179886867998	246.810992389997	"12"	50314.074314294	50308.793950313	1.5	0.1
0.01	1	0.315268514001218	1	92	NA	262.668455134	0	0.830000000000001	4.4	1	247.04809728	247.363365794001	"12"	50314.074314294	50308.793950313	1.5	0.1
0.01	1	0.219886124999903	1	92	NA	262.668455134	0	0.830000000000001	4.4	1	247.598975435001	247.818861560001	"12"	50314.074314294	50308.793950313	1.5	0.1
0.01	1	0.361015635993681	1	92	NA	262.668455134	0	0.830000000000001	4.4	1	248.049811242003	248.410826877996	"12"	50314.074314294	50308.793950313	1.5	0.1
0.01	1	0.263978000999487	1	92	NA	262.668455134	0	0.830000000000001	4.4	1	248.634028697001	248.898006698	"12"	50314.074314294	50308.793950313	1.5	0.1
0.01	1	0.363640092000423	1	92	NA	262.668455134	0	0.830000000000001	4.4	1	249.134985946999	249.498626039	"12"	50314.074314294	50308.793950313	1.5	0.1
0.01	1	0.41023479100113	1	92	NA	262.668455134	0	0.830000000000001	4.4	1	249.73591173	250.146146521001	"12"	50314.074314294	50308.793950313	1.5	0.1
0.01	1	0.543904195001232	1	92	NA	262.668455134	0	0.830000000000001	4.4	1	250.387050019999	250.930954215	"12"	50314.074314294	50308.793950313	1.5	0.1
0.01	1	0.496731921004539	1	92	NA	262.668455134	0	0.830000000000001	4.4	1	251.154924634997	251.651656556001	"12"	50314.074314294	50308.793950313	1.5	0.1
0.01	1	0.513431838000542	1	92	NA	262.668455134	0	0.830000000000001	4.4	1	251.889510902001	252.402942740002	"12"	50314.074314294	50308.793950313	1.5	0.1
0.01	1	0.417402916995343	1	92	NA	262.668455134	0	0.830000000000001	4.4	1	252.640833935002	253.058236851997	"12"	50314.074314294	50308.793950313	1.5	0.1
0.01	1	0.550769034998666	1	92	NA	262.668455134	0	0.830000000000001	4.4	1	253.291861090001	253.842630125	"12"	50314.074314294	50308.793950313	1.5	0.1
0.01	1	0.59884546000103	1	92	NA	262.668455134	0	0.830000000000001	4.4	1	254.07659384	254.675439300001	"12"	50314.074314294	50308.793950313	1.5	0.1
0.01	1	0.618515412003035	1	92	NA	262.668455134	0	0.830000000000001	4.4	1	254.911259529996	255.529774941999	"12"	50314.074314294	50308.793950313	1.5	0.1
0.01	1	0.600249381997855	1	92	NA	262.668455134	0	0.830000000000001	4.4	1	255.762803714999	256.363053096997	"12"	50314.074314294	50308.793950313	1.5	0.1
0.01	1	0.54856120399927	1	92	NA	262.668455134	0	0.830000000000001	4.4	1	256.59753649	257.146097694	"12"	50314.074314294	50308.793950313	1.5	0.1
0.01	1	0.515730828003143	1	92	NA	262.668455134	0	0.830000000000001	4.4	1	257.382150149999	257.897880978002	"12"	50314.074314294	50308.793950313	1.5	0.1
0.01	1	0.613088128004165	1	92	NA	262.668455134	0	0.830000000000001	4.4	1	258.133440156998	258.746528285003	"12"	50314.074314294	50308.793950313	1.5	0.1
0.01	1	0.450381466005638	1	92	NA	262.668455134	0	0.830000000000001	4.4	1	258.984788324997	259.435169791002	"12"	50314.074314294	50308.793950313	1.5	0.1
0.01	1	0.461613152001519	1	92	NA	262.668455134	0	0.830000000000001	4.4	1	259.669358275001	260.130971427003	"12"	50314.074314294	50308.793950313	1.5	0.1
0.01	1	0.624596492001729	1	92	NA	262.668455134	0	0.830000000000001	4.4	1	260.353776889999	260.978373382	"12"	50314.074314294	50308.793950313	1.5	0.1
0.01	1	0.58993787500367	1	92	NA	262.668455134	0	0.830000000000001	4.4	1	261.205184959996	261.795122834999	"12"	50314.074314294	50308.793950313	1.5	0.1
0.01	1	0.643701383000007	2	92	NA	262.668455134	0	0.830000000000001	4.4	1	262.023189061998	262.666890444998	"12"	50314.074314294	50308.793950313	1.5	0.1
0.01	1	0.31580756999756	1	90	302.277319182002	NA	1	0	4.4	1	264.72775228	265.043559849997	"13"	50314.074314294	50308.793950313	1.5	0.1
0.01	1	0.203780426003505	1	90	302.277319182002	NA	1	0	4.4	1	265.278778886997	265.482559313001	"13"	50314.074314294	50308.793950313	1.5	0.1
0.01	1	0.201374374999432	1	90	302.277319182002	NA	1	0	4.4	1	265.712829816999	265.914204191999	"13"	50314.074314294	50308.793950313	1.5	0.1
0.01	1	0.200261022997438	1	90	302.277319182002	NA	1	0	4.4	1	266.146897555001	266.347158577999	"13"	50314.074314294	50308.793950313	1.5	0.1
0.01	1	0.133857266999257	1	90	302.277319182002	NA	1	0	4.4	1	266.580860249	266.714717515999	"13"	50314.074314294	50308.793950313	1.5	0.1
0.01	1	0.118818529997952	1	90	302.277319182002	NA	1	0	4.4	1	266.948233194998	267.067051724996	"13"	50314.074314294	50308.793950313	1.5	0.1
0.01	1	0.0804450180003187	1	90	302.277319182002	NA	1	0	4.4	1	267.298706027002	267.379151045003	"13"	50314.074314294	50308.793950313	1.5	0.1
0.01	1	0.00222133199713426	1	90	302.277319182002	NA	1	0	4.4	1	267.616030438003	267.61825177	"13"	50314.074314294	50308.793950313	1.5	0.1
0.01	1	0.10590592600056	1	90	302.277319182002	NA	1	0	4.4	1	267.849652131998	267.955558057998	"13"	50314.074314294	50308.793950313	1.5	0.1
0.01	1	0.122363572001632	1	90	302.277319182002	NA	1	0	4.4	1	268.183587984997	268.305951556998	"13"	50314.074314294	50308.793950313	1.5	0.1
0.01	1	0.0610825379990274	1	90	302.277319182002	NA	1	0	4.4	1	268.534279826999	268.595362364998	"13"	50314.074314294	50308.793950313	1.5	0.1
0.01	1	0.0718378169985954	1	90	302.277319182002	NA	1	0	4.4	1	268.834769772002	268.906607589	"13"	50314.074314294	50308.793950313	1.5	0.1
0.01	1	0.0914205459994264	1	90	302.277319182002	NA	1	0	4.4	1	269.135242837001	269.226663383	"13"	50314.074314294	50308.793950313	1.5	0.1
0.01	1	0.0694123899957049	1	90	302.277319182002	NA	1	0	4.4	1	269.45246611	269.521878499996	"13"	50314.074314294	50308.793950313	1.5	0.1
0.01	1	0.0823936619999586	1	90	302.277319182002	NA	1	0	4.4	1	269.752889746	269.835283408	"13"	50314.074314294	50308.793950313	1.5	0.1
0.01	1	0.0913051960014855	1	90	302.277319182002	NA	1	0	4.4	1	270.070166696998	270.161471893	"13"	50314.074314294	50308.793950313	1.5	0.1
0.01	1	0.00396438600000693	1	90	302.277319182002	NA	1	0	4.4	1	270.387330922	270.391295308	"13"	50314.074314294	50308.793950313	1.5	0.1
0.01	1	0.0451574350008741	1	90	302.277319182002	NA	1	0	4.4	1	270.621129970001	270.666287405002	"13"	50314.074314294	50308.793950313	1.5	0.1
0.01	1	0.00460973199369619	1	90	302.277319182002	NA	1	0	4.4	1	270.904906235002	270.909515966996	"13"	50314.074314294	50308.793950313	1.5	0.1
0.01	1	0.0245720140010235	1	90	302.277319182002	NA	1	0	4.4	1	271.138645081999	271.163217096	"13"	50314.074314294	50308.793950313	1.5	0.1
0.01	1	0.00200065300305141	1	90	302.277319182002	NA	1	0	4.4	1	271.389058004999	271.391058658002	"13"	50314.074314294	50308.793950313	1.5	0.1
0.01	1	0.0756842000046163	1	90	302.277319182002	NA	1	0	4.4	1	271.622731564996	271.698415765	"13"	50314.074314294	50308.793950313	1.5	0.1
0.01	1	0.00462761700327974	1	90	302.277319182002	NA	1	0	4.4	1	271.939976759997	271.944604377	"13"	50314.074314294	50308.793950313	1.5	0.1
0.01	1	0.0924627119966317	1	90	302.277319182002	NA	1	0	4.4	1	272.173665775001	272.266128486997	"13"	50314.074314294	50308.793950313	1.5	0.1
0.01	1	0.00434227100049611	1	90	302.277319182002	NA	1	0	4.4	1	272.490826998997	272.495169269998	"13"	50314.074314294	50308.793950313	1.5	0.1
0.01	1	0.0695801110050525	1	90	302.277319182002	NA	1	0	4.4	1	272.724614369996	272.794194481001	"13"	50314.074314294	50308.793950313	1.5	0.1
0.01	1	0.00381320100132143	1	90	302.277319182002	NA	1	0	4.4	1	273.025136406999	273.028949608	"13"	50314.074314294	50308.793950313	1.5	0.1
0.01	1	0.112603540001146	1	90	302.277319182002	NA	1	0	4.4	1	273.258885755	273.371489295001	"13"	50314.074314294	50308.793950313	1.5	0.1
0.01	1	0.0036989300060668	1	90	302.277319182002	NA	1	0	4.4	1	273.609405819996	273.613104750002	"13"	50314.074314294	50308.793950313	1.5	0.1
0.01	1	0.118690952003817	1	90	302.277319182002	NA	1	0	4.4	1	273.843210401996	273.961901354	"13"	50314.074314294	50308.793950313	1.5	0.1
0.01	1	0.00206162500398932	1	90	302.277319182002	NA	1	0	4.4	1	274.193761458999	274.195823084003	"13"	50314.074314294	50308.793950313	1.5	0.1
0.01	1	0.00372336199507117	1	90	302.277319182002	NA	1	0	4.4	1	274.427451422001	274.431174783997	"13"	50314.074314294	50308.793950313	1.5	0.1
0.01	1	0.00360862699744757	1	90	302.277319182002	NA	1	0	4.4	1	274.661197257003	274.664805884	"13"	50314.074314294	50308.793950313	1.5	0.1
0.01	1	0.0746103780038538	1	90	302.277319182002	NA	1	0	4.4	1	274.894858576998	274.969468955002	"13"	50314.074314294	50308.793950313	1.5	0.1
0.01	1	0.00460476000444032	1	90	302.277319182002	NA	1	0	4.4	1	275.195570274998	275.200175035003	"13"	50314.074314294	50308.793950313	1.5	0.1
0.01	1	0.0036521670044749	1	90	302.277319182002	NA	1	0	4.4	1	275.429199006998	275.432851174002	"13"	50314.074314294	50308.793950313	1.5	0.1
0.01	1	0.0666768650044105	1	90	302.277319182002	NA	1	0	4.4	1	275.662859559998	275.729536425002	"13"	50314.074314294	50308.793950313	1.5	0.1
0.01	1	0.00204554100491805	1	90	302.277319182002	NA	1	0	4.4	1	275.963438193998	275.965483735003	"13"	50314.074314294	50308.793950313	1.5	0.1
0.01	1	0.12583459099551	1	90	302.277319182002	NA	1	0	4.4	1	276.197191498002	276.323026088998	"13"	50314.074314294	50308.793950313	1.5	0.1
0.01	1	0.00205344000278274	1	90	302.277319182002	NA	1	0	4.4	1	276.547603694999	276.549657135001	"13"	50314.074314294	50308.793950313	1.5	0.1
0.01	1	0.00366244199540233	1	90	302.277319182002	NA	1	0	4.4	1	276.781395600003	276.785058041998	"13"	50314.074314294	50308.793950313	1.5	0.1
0.01	1	0.12393249500019	1	90	302.277319182002	NA	1	0	4.4	1	277.01519233	277.139124825	"13"	50314.074314294	50308.793950313	1.5	0.1
0.01	1	0.0032754939966253	1	90	302.277319182002	NA	1	0	4.4	1	277.365737439999	277.369012933996	"13"	50314.074314294	50308.793950313	1.5	0.1
0.01	1	0.0111076549947029	1	90	302.277319182002	NA	1	0	4.4	1	277.599470640002	277.610578294996	"13"	50314.074314294	50308.793950313	1.5	0.1
0.01	1	0.00935688900062814	1	90	302.277319182002	NA	1	0	4.4	1	277.833254186997	277.842611075997	"13"	50314.074314294	50308.793950313	1.5	0.1
0.01	1	0.00815680500090821	1	90	302.277319182002	NA	1	0	4.4	1	278.066898874997	278.075055679998	"13"	50314.074314294	50308.793950313	1.5	0.1
0.01	1	0.00714666799467523	1	90	302.277319182002	NA	1	0	4.4	1	278.300688570002	278.307835237996	"13"	50314.074314294	50308.793950313	1.5	0.1
0.01	1	0.0073028980041272	1	90	302.277319182002	NA	1	0	4.4	1	278.534417559997	278.541720458001	"13"	50314.074314294	50308.793950313	1.5	0.1
0.01	1	0.0506010099998093	1	90	302.277319182002	NA	1	0	4.4	1	278.768055925	278.818656935	"13"	50314.074314294	50308.793950313	1.5	0.1
0.01	1	0.0456196099985391	1	90	302.277319182002	NA	1	0	4.4	1	279.051965182	279.097584791998	"13"	50314.074314294	50308.793950313	1.5	0.1
0.01	1	0.067899061999924	1	90	302.277319182002	NA	1	0	4.4	1	279.335690195003	279.403589257003	"13"	50314.074314294	50308.793950313	1.5	0.1
0.01	1	0.0229631920010434	1	90	302.277319182002	NA	1	0	4.4	1	279.636214152	279.659177344001	"13"	50314.074314294	50308.793950313	1.5	0.1
0.01	1	0.571846157996333	1	90	302.277319182002	NA	1	0	4.4	1	279.886643457001	280.458489614997	"13"	50314.074314294	50308.793950313	1.5	0.1
0.01	1	0.266879292998055	1	90	302.277319182002	NA	1	0	4.4	1	280.6880198	280.954899092998	"13"	50314.074314294	50308.793950313	1.5	0.1
0.01	1	0.285664292001456	1	90	302.277319182002	NA	1	0	4.4	1	281.188943119996	281.474607411998	"13"	50314.074314294	50308.793950313	1.5	0.1
0.01	1	0.408084426999267	1	90	302.277319182002	NA	1	0	4.4	1	281.706309333	282.114393759999	"13"	50314.074314294	50308.793950313	1.5	0.1
0.01	1	0.277434973999334	1	90	302.277319182002	NA	1	0	4.4	1	282.340733315003	282.618168289002	"13"	50314.074314294	50308.793950313	1.5	0.1
0.01	1	0.296848034005961	1	90	302.277319182002	NA	1	0	4.4	1	282.858247874996	283.155095909002	"13"	50314.074314294	50308.793950313	1.5	0.1
0.01	1	0.306985517003341	1	90	302.277319182002	NA	1	0	4.4	1	283.392480035996	283.699465553	"13"	50314.074314294	50308.793950313	1.5	0.1
0.01	1	0.356297983998957	1	90	302.277319182002	NA	1	0	4.4	1	283.926871695003	284.283169679002	"13"	50314.074314294	50308.793950313	1.5	0.1
0.01	1	0.266621675000351	1	90	302.277319182002	NA	1	0	4.4	1	284.511166144999	284.77778782	"13"	50314.074314294	50308.793950313	1.5	0.1
0.01	1	0.286300701998698	1	90	302.277319182002	NA	1	0	4.4	1	285.011868786998	285.298169488997	"13"	50314.074314294	50308.793950313	1.5	0.1
0.01	1	0.288846351999382	1	90	302.277319182002	NA	1	0	4.4	1	285.529511820001	285.818358172	"13"	50314.074314294	50308.793950313	1.5	0.1
0.01	1	0.403555723998579	1	90	302.277319182002	NA	1	0	4.4	1	286.046972942	286.450528665999	"13"	50314.074314294	50308.793950313	1.5	0.1
0.01	1	0.257592107998789	1	90	302.277319182002	NA	1	0	4.4	1	286.681453801997	286.939045909996	"13"	50314.074314294	50308.793950313	1.5	0.1
0.01	1	0.324141454002529	1	90	302.277319182002	NA	1	0	4.4	1	287.165587021998	287.489728476001	"13"	50314.074314294	50308.793950313	1.5	0.1
0.01	1	0.350038695003605	1	90	302.277319182002	NA	1	0	4.4	1	287.716455041998	288.066493737002	"13"	50314.074314294	50308.793950313	1.5	0.1
0.01	1	0.32605822700134	1	90	302.277319182002	NA	1	0	4.4	1	288.300734769997	288.626792996998	"13"	50314.074314294	50308.793950313	1.5	0.1
0.01	1	0.342662787006702	1	90	302.277319182002	NA	1	0	4.4	1	288.851709361996	289.194372149002	"13"	50314.074314294	50308.793950313	1.5	0.1
0.01	1	0.383016686995688	1	90	302.277319182002	NA	1	0	4.4	1	289.419296088003	289.802312774998	"13"	50314.074314294	50308.793950313	1.5	0.1
0.01	1	0.389234111993574	1	90	302.277319182002	NA	1	0	4.4	1	290.037017050003	290.426251161996	"13"	50314.074314294	50308.793950313	1.5	0.1
0.01	1	0.347331476994441	1	90	302.277319182002	NA	1	0	4.4	1	290.654787300002	291.002118776996	"13"	50314.074314294	50308.793950313	1.5	0.1
0.01	1	0.332166528001835	1	90	302.277319182002	NA	1	0	4.4	1	291.239002527	291.571169055002	"13"	50314.074314294	50308.793950313	1.5	0.1
0.01	1	0.332459509998444	1	90	302.277319182002	NA	1	0	4.4	1	291.806761469998	292.139220979996	"13"	50314.074314294	50308.793950313	1.5	0.1
0.01	1	0.30004688599729	1	90	302.277319182002	NA	1	0	4.4	1	292.374312057	292.674358942997	"13"	50314.074314294	50308.793950313	1.5	0.1
0.01	1	0.365067152997653	1	90	302.277319182002	NA	1	0	4.4	1	292.908556887	293.273624039997	"13"	50314.074314294	50308.793950313	1.5	0.1
0.01	1	0.301279548999446	1	90	302.277319182002	NA	1	0	4.4	1	293.509602865	293.810882414	"13"	50314.074314294	50308.793950313	1.5	0.1
0.01	1	0.318440174996795	1	90	302.277319182002	NA	1	0	4.4	1	294.043797719001	294.362237893998	"13"	50314.074314294	50308.793950313	1.5	0.1
0.01	1	0.351068900999962	1	90	302.277319182002	NA	1	0	4.4	1	294.594811565003	294.945880466003	"13"	50314.074314294	50308.793950313	1.5	0.1
0.01	1	0.352619194003637	1	90	302.277319182002	NA	1	0	4.4	1	295.179062559997	295.531681754001	"13"	50314.074314294	50308.793950313	1.5	0.1
0.01	1	0.326228573998378	1	90	302.277319182002	NA	1	0	4.4	1	295.763354877003	296.089583451001	"13"	50314.074314294	50308.793950313	1.5	0.1
0.01	1	0.335448904996156	1	90	302.277319182002	NA	1	0	4.4	1	296.314265677	296.649714581996	"13"	50314.074314294	50308.793950313	1.5	0.1
0.01	1	0.376254650000192	1	90	302.277319182002	NA	1	0	4.4	1	296.881880856999	297.258135507	"13"	50314.074314294	50308.793950313	1.5	0.1
0.01	1	0.382914791000076	1	90	302.277319182002	NA	1	0	4.4	1	297.482935849999	297.865850640999	"13"	50314.074314294	50308.793950313	1.5	0.1
0.01	1	0.47858133000409	1	90	302.277319182002	NA	1	0	4.4	1	298.100723789998	298.579305120002	"13"	50314.074314294	50308.793950313	1.5	0.1
0.01	1	0.393269403000886	1	90	302.277319182002	NA	1	0	4.4	1	298.801728664999	299.194998068	"13"	50314.074314294	50308.793950313	1.5	0.1
0.01	1	0.447504966999986	1	90	302.277319182002	NA	1	0	4.4	1	299.419491549997	299.866996516997	"13"	50314.074314294	50308.793950313	1.5	0.1
0.01	1	0.610186663005152	1	90	302.277319182002	NA	1	0	4.4	1	300.103958991996	300.714145655002	"13"	50314.074314294	50308.793950313	1.5	0.1
0.01	1	0.495923852999113	1	90	302.277319182002	NA	1	0	4.4	1	300.938807334998	301.434731187997	"13"	50314.074314294	50308.793950313	1.5	0.1
0.01	1	0.505481222004164	1	90	302.277319182002	NA	1	0	4.4	1	301.656560789997	302.162042012002	"13"	50314.074314294	50308.793950313	1.5	0.1
0.01	1	0.339190680999309	1	18	309.572710139997	NA	1	0	4.4	1	304.327702274997	304.666892955996	"14"	50314.074314294	50308.793950313	1.5	0.1
0.01	1	0.139750710004591	1	18	309.572710139997	NA	1	0	4.4	1	304.895451049997	305.035201760002	"14"	50314.074314294	50308.793950313	1.5	0.1
0.01	1	0.0193681660020957	1	18	309.572710139997	NA	1	0	4.4	1	305.262691229997	305.282059395999	"14"	50314.074314294	50308.793950313	1.5	0.1
0.01	1	0.00240791700343834	1	18	309.572710139997	NA	1	0	4.4	1	305.513012475996	305.515420393	"14"	50314.074314294	50308.793950313	1.5	0.1
0.01	1	0.00453956200362882	1	18	309.572710139997	NA	1	0	4.4	1	305.746890859999	305.751430422002	"14"	50314.074314294	50308.793950313	1.5	0.1
0.01	1	0.125846839997394	1	18	309.572710139997	NA	1	0	4.4	1	305.980590835003	306.106437675	"14"	50314.074314294	50308.793950313	1.5	0.1
0.01	1	0.00385388499853434	1	18	309.572710139997	NA	1	0	4.4	1	306.331052014997	306.334905899996	"14"	50314.074314294	50308.793950313	1.5	0.1
0.01	1	0.132461128996511	1	18	309.572710139997	NA	1	0	4.4	1	306.564936595001	306.697397723998	"14"	50314.074314294	50308.793950313	1.5	0.1
0.01	1	0.00393579099909402	1	18	309.572710139997	NA	1	0	4.4	1	306.932161725003	306.936097516002	"14"	50314.074314294	50308.793950313	1.5	0.1
0.01	1	0.100676775997272	1	18	309.572710139997	NA	1	0	4.4	1	307.165901515	307.266578290997	"14"	50314.074314294	50308.793950313	1.5	0.1
0.01	1	0.00273081299383193	1	18	309.572710139997	NA	1	0	4.4	1	307.499682362002	307.502413174996	"14"	50314.074314294	50308.793950313	1.5	0.1
0.01	1	0.00213550000626128	1	18	309.572710139997	NA	1	0	4.4	1	307.733462587996	307.735598088002	"14"	50314.074314294	50308.793950313	1.5	0.1
0.01	1	0.00200824899366125	1	18	309.572710139997	NA	1	0	4.4	1	307.967169089003	307.969177337996	"14"	50314.074314294	50308.793950313	1.5	0.1
0.01	1	0.122024979005801	1	18	309.572710139997	NA	1	0	4.4	1	308.200839266996	308.322864246002	"14"	50314.074314294	50308.793950313	1.5	0.1
0.01	1	0.00376489199697971	1	18	309.572710139997	NA	1	0	4.4	1	308.551465142002	308.555230033999	"14"	50314.074314294	50308.793950313	1.5	0.1
0.01	1	0.0562953890039353	1	18	309.572710139997	NA	1	0	4.4	1	308.785264904996	308.841560294	"14"	50314.074314294	50308.793950313	1.5	0.1
0.01	1	0.0862101579987211	1	18	309.572710139997	NA	1	0	4.4	1	309.069015039997	309.155225197996	"14"	50314.074314294	50308.793950313	1.5	0.1
0.01	1	0.0651793959987117	1	18	309.572710139997	NA	1	0	4.4	1	309.386243982	309.451423377999	"14"	50314.074314294	50308.793950313	1.5	0.1
0.01	1	0.00205389499751618	1	14	315.248957999996	NA	1	0	4.4	1	311.606620045	311.608673939998	"15"	50314.074314294	50308.793950313	1.5	0.1
0.01	1	0.00380045700148912	1	14	315.248957999996	NA	1	0	4.4	1	311.840360096998	311.844160553999	"15"	50314.074314294	50308.793950313	1.5	0.1
0.01	1	0.00211815500369994	1	14	315.248957999996	NA	1	0	4.4	1	312.074105553998	312.076223709002	"15"	50314.074314294	50308.793950313	1.5	0.1
0.01	1	0.102691949003201	1	14	315.248957999996	NA	1	0	4.4	1	312.307806416997	312.410498366	"15"	50314.074314294	50308.793950313	1.5	0.1
0.01	1	0.00398852800572058	1	14	315.248957999996	NA	1	0	4.4	1	312.641758289996	312.645746818001	"15"	50314.074314294	50308.793950313	1.5	0.1
0.01	1	0.078527767000196	1	14	315.248957999996	NA	1	0	4.4	1	312.875450059997	312.953977826997	"15"	50314.074314294	50308.793950313	1.5	0.1
0.01	1	0.00200464999943506	1	14	315.248957999996	NA	1	0	4.4	1	313.175916075001	313.177920725	"15"	50314.074314294	50308.793950313	1.5	0.1
0.01	1	0.105517623000196	1	14	315.248957999996	NA	1	0	4.4	1	313.409739636998	313.515257259998	"15"	50314.074314294	50308.793950313	1.5	0.1
0.01	1	0.00392811299388995	1	14	315.248957999996	NA	1	0	4.4	1	313.743551425003	313.747479537997	"15"	50314.074314294	50308.793950313	1.5	0.1
0.01	1	0.0980836519956938	1	14	315.248957999996	NA	1	0	4.4	1	313.977283437001	314.075367088997	"15"	50314.074314294	50308.793950313	1.5	0.1
0.01	1	0.00210558799881255	1	14	315.248957999996	NA	1	0	4.4	1	314.311306162002	314.313411750001	"15"	50314.074314294	50308.793950313	1.5	0.1
0.01	1	0.122084358001302	1	14	315.248957999996	NA	1	0	4.4	1	314.544880331996	314.666964689997	"15"	50314.074314294	50308.793950313	1.5	0.1
0.01	1	0.00202442999579944	1	14	315.248957999996	NA	1	0	4.4	1	314.895550011002	314.897574440998	"15"	50314.074314294	50308.793950313	1.5	0.1
0.01	1	0.00459336800122401	1	14	315.248957999996	NA	1	0	4.4	1	315.129297376996	315.133890744997	"15"	50314.074314294	50308.793950313	1.5	0.1
0.01	1	0.0786455130000832	1	79	NA	326.156823334997	0	0.19	4.59	1	317.282795170002	317.361440683002	"16"	50314.074314294	50308.793950313	1.5	0.1
0.01	1	0.0816431049970561	1	79	NA	326.156823334997	0	0.19	4.59	1	317.600035447002	317.681678551999	"16"	50314.074314294	50308.793950313	1.5	0.1
0.01	1	0.198209964997659	1	79	NA	326.156823334997	0	0.19	4.59	1	317.917297774999	318.115507739996	"16"	50314.074314294	50308.793950313	1.5	0.1
0.01	1	0.114280793000944	1	79	NA	326.156823334997	0	0.19	4.59	1	318.351266186997	318.465546979998	"16"	50314.074314294	50308.793950313	1.5	0.1
0.01	1	0.124564589998045	1	79	NA	326.156823334997	0	0.19	4.59	1	318.701879626999	318.826444216997	"16"	50314.074314294	50308.793950313	1.5	0.1
0.01	1	0.124994404002791	1	79	NA	326.156823334997	0	0.19	4.59	1	319.052490538998	319.177484943	"16"	50314.074314294	50308.793950313	1.5	0.1
0.01	1	0.238849194996874	1	79	NA	326.156823334997	0	0.19	4.59	1	319.403113824999	319.641963019996	"16"	50314.074314294	50308.793950313	1.5	0.1
0.01	1	0.163415641000029	1	79	NA	326.156823334997	0	0.19	4.59	1	319.870680437001	320.034096078001	"16"	50314.074314294	50308.793950313	1.5	0.1
0.01	1	0.290641292995133	1	79	NA	326.156823334997	0	0.19	4.59	1	320.271255227002	320.561896519997	"16"	50314.074314294	50308.793950313	1.5	0.1
0.01	1	0.253010637003172	1	79	NA	326.156823334997	0	0.19	4.59	1	320.788735059999	321.041745697003	"16"	50314.074314294	50308.793950313	1.5	0.1
0.01	1	0.274035586997343	1	79	NA	326.156823334997	0	0.19	4.59	1	321.272929776998	321.546965363996	"16"	50314.074314294	50308.793950313	1.5	0.1
0.01	1	0.269042456995521	1	79	NA	326.156823334997	0	0.19	4.59	1	321.773738577001	322.042781033997	"16"	50314.074314294	50308.793950313	1.5	0.1
0.01	1	0.256417174001399	1	79	NA	326.156823334997	0	0.19	4.59	1	322.274570839996	322.530988013998	"16"	50314.074314294	50308.793950313	1.5	0.1
0.01	1	0.236368266996578	1	79	NA	326.156823334997	0	0.19	4.59	1	322.758784042002	322.995152308999	"16"	50314.074314294	50308.793950313	1.5	0.1
0.01	1	0.265455168002518	1	79	NA	326.156823334997	0	0.19	4.59	1	323.226124139997	323.491579308	"16"	50314.074314294	50308.793950313	1.5	0.1
0.01	1	0.267897386998811	1	79	NA	326.156823334997	0	0.19	4.59	1	323.726966816997	323.994864203996	"16"	50314.074314294	50308.793950313	1.5	0.1
0.01	1	0.2947007739931	1	79	NA	326.156823334997	0	0.19	4.59	1	324.227882450003	324.522583223996	"16"	50314.074314294	50308.793950313	1.5	0.1
0.01	1	0.442082160996506	1	79	NA	326.156823334997	0	0.19	4.59	1	324.745421539003	325.187503699999	"16"	50314.074314294	50308.793950313	1.5	0.1
0.01	1	0.316826241003582	1	79	NA	326.156823334997	0	0.19	4.59	1	325.413197754999	325.730023996002	"16"	50314.074314294	50308.793950313	1.5	0.1
0.01	1	0.191128119004134	2	79	NA	326.156823334997	0	0.19	4.59	1	325.964170089996	326.155298209	"16"	50314.074314294	50308.793950313	1.5	0.1
0.01	1	0.160999195999466	1	34	NA	342.404979565996	0	0.3	4.89	1	328.20135232	328.362351516	"17"	50314.074314294	50308.793950313	1.5	0.1
0.01	1	0.247978455998236	1	34	NA	342.404979565996	0	0.3	4.89	1	328.601844470002	328.849822926	"17"	50314.074314294	50308.793950313	1.5	0.1
0.01	1	0.229267586000788	1	34	NA	342.404979565996	0	0.3	4.89	1	329.086131470001	329.315399056002	"17"	50314.074314294	50308.793950313	1.5	0.1
0.01	1	0.177202498998668	1	34	NA	342.404979565996	0	0.3	4.89	1	329.553537576998	329.730740075996	"17"	50314.074314294	50308.793950313	1.5	0.1
0.01	1	0.200850674998946	1	34	NA	342.404979565996	0	0.3	4.89	1	329.954175054998	330.155025729997	"17"	50314.074314294	50308.793950313	1.5	0.1
0.01	1	0.205532485997537	1	34	NA	342.404979565996	0	0.3	4.89	1	330.388235065002	330.593767550999	"17"	50314.074314294	50308.793950313	1.5	0.1
0.01	1	0.212184109994269	1	34	NA	342.404979565996	0	0.3	4.89	1	330.822249035002	331.034433144996	"17"	50314.074314294	50308.793950313	1.5	0.1
0.01	1	0.226713449999806	1	34	NA	342.404979565996	0	0.3	4.89	1	331.256354382	331.483067832	"17"	50314.074314294	50308.793950313	1.5	0.1
0.01	1	0.215409911004826	1	34	NA	342.404979565996	0	0.3	4.89	1	331.723848846996	331.939258758001	"17"	50314.074314294	50308.793950313	1.5	0.1
0.01	1	0.236997033993248	1	34	NA	342.404979565996	0	0.3	4.89	1	332.174541177003	332.411538210996	"17"	50314.074314294	50308.793950313	1.5	0.1
0.01	1	0.224954532997799	1	34	NA	342.404979565996	0	0.3	4.89	1	332.642102632002	332.867057165	"17"	50314.074314294	50308.793950313	1.5	0.1
0.01	1	0.197460697003407	1	34	NA	342.404979565996	0	0.3	4.89	1	333.092762827997	333.290223525	"17"	50314.074314294	50308.793950313	1.5	0.1
0.01	1	0.284587565001857	1	34	NA	342.404979565996	0	0.3	4.89	1	333.526877286997	333.811464851999	"17"	50314.074314294	50308.793950313	1.5	0.1
0.01	1	0.237357070000144	1	34	NA	342.404979565996	0	0.3	4.89	1	334.044348602001	334.281705672001	"17"	50314.074314294	50308.793950313	1.5	0.1
0.01	1	0.209720605002076	1	34	NA	342.404979565996	0	0.3	4.89	1	334.511845914996	334.721566519998	"17"	50314.074314294	50308.793950313	1.5	0.1
0.01	1	0.215221143997042	1	34	NA	342.404979565996	0	0.3	4.89	1	334.962639095	335.177860238997	"17"	50314.074314294	50308.793950313	1.5	0.1
0.01	1	0.20511685800011	1	34	NA	342.404979565996	0	0.3	4.89	1	335.413349725	335.618466583001	"17"	50314.074314294	50308.793950313	1.5	0.1
0.01	1	0.212086236002506	1	34	NA	342.404979565996	0	0.3	4.89	1	335.847443876999	336.059530113002	"17"	50314.074314294	50308.793950313	1.5	0.1
0.01	1	0.20849273299973	1	34	NA	342.404979565996	0	0.3	4.89	1	336.281484164996	336.489976897996	"17"	50314.074314294	50308.793950313	1.5	0.1
0.01	1	0.264150242001051	1	34	NA	342.404979565996	0	0.3	4.89	1	336.715583739999	336.979733982	"17"	50314.074314294	50308.793950313	1.5	0.1
0.01	1	0.21846527299931	1	34	NA	342.404979565996	0	0.3	4.89	1	337.216302175002	337.434767448001	"17"	50314.074314294	50308.793950313	1.5	0.1
0.01	1	0.216175949994067	1	34	NA	342.404979565996	0	0.3	4.89	1	337.667105840002	337.883281789997	"17"	50314.074314294	50308.793950313	1.5	0.1
0.01	1	0.220282724003482	1	34	NA	342.404979565996	0	0.3	4.89	1	338.117978679998	338.338261404002	"17"	50314.074314294	50308.793950313	1.5	0.1
0.01	1	0.267007526999805	1	34	NA	342.404979565996	0	0.3	4.89	1	338.568582854998	338.835590381997	"17"	50314.074314294	50308.793950313	1.5	0.1
0.01	1	0.244797818995721	1	34	NA	342.404979565996	0	0.3	4.89	1	339.069448335002	339.314246153997	"17"	50314.074314294	50308.793950313	1.5	0.1
0.01	1	0.297767888005183	1	34	NA	342.404979565996	0	0.3	4.89	1	339.536910026996	339.834677915002	"17"	50314.074314294	50308.793950313	1.5	0.1
0.01	1	0.252115089999279	1	34	NA	342.404979565996	0	0.3	4.89	1	340.071158810002	340.323273900001	"17"	50314.074314294	50308.793950313	1.5	0.1
0.01	1	0.262078031999408	1	34	NA	342.404979565996	0	0.3	4.89	1	340.555382234998	340.817460266997	"17"	50314.074314294	50308.793950313	1.5	0.1
0.01	1	0.418535495002288	1	34	NA	342.404979565996	0	0.3	4.89	1	341.056130810997	341.474666306	"17"	50314.074314294	50308.793950313	1.5	0.1
0.01	1	0.270265171995561	1	34	NA	342.404979565996	0	0.3	4.89	1	341.707208435	341.977473606996	"17"	50314.074314294	50308.793950313	1.5	0.1
0.01	1	0.195333723000658	2	34	NA	342.404979565996	0	0.3	4.89	1	342.208122744996	342.403456467997	"17"	50314.074314294	50308.793950313	1.5	0.1
0.01	1	0.333855999000662	1	84	NA	361.036141281998	0	0.35	5.24	1	344.445230724996	344.779086723996	"18"	50314.074314294	50308.793950313	1.5	0.1
0.01	1	0.15008532700449	1	84	NA	361.036141281998	0	0.35	5.24	1	345.012789861998	345.162875189002	"18"	50314.074314294	50308.793950313	1.5	0.1
0.01	1	0.1489703690022	1	84	NA	361.036141281998	0	0.35	5.24	1	345.396786901998	345.545757271	"18"	50314.074314294	50308.793950313	1.5	0.1
0.01	1	0.125976941002591	1	84	NA	361.036141281998	0	0.35	5.24	1	345.780832534998	345.906809476	"18"	50314.074314294	50308.793950313	1.5	0.1
0.01	1	0.199784184005694	1	84	NA	361.036141281998	0	0.35	5.24	1	346.131408579997	346.331192764002	"18"	50314.074314294	50308.793950313	1.5	0.1
0.01	1	0.149457562998577	1	84	NA	361.036141281998	0	0.35	5.24	1	346.565492050002	346.714949613	"18"	50314.074314294	50308.793950313	1.5	0.1
0.01	1	0.156464220999624	1	84	NA	361.036141281998	0	0.35	5.24	1	346.949343647	347.105807868	"18"	50314.074314294	50308.793950313	1.5	0.1
0.01	1	0.173451653994562	1	84	NA	361.036141281998	0	0.35	5.24	1	347.333450885002	347.506902538997	"18"	50314.074314294	50308.793950313	1.5	0.1
0.01	1	0.188470639004663	1	84	NA	361.036141281998	0	0.35	5.24	1	347.734107566997	347.922578206002	"18"	50314.074314294	50308.793950313	1.5	0.1
0.01	1	0.211600968999846	1	84	NA	361.036141281998	0	0.35	5.24	1	348.151521296997	348.363122265997	"18"	50314.074314294	50308.793950313	1.5	0.1
0.01	1	0.160183007996238	1	84	NA	361.036141281998	0	0.35	5.24	1	348.602248390001	348.762431397998	"18"	50314.074314294	50308.793950313	1.5	0.1
0.01	1	0.200984228999005	1	84	NA	361.036141281998	0	0.35	5.24	1	348.986176152001	349.187160381	"18"	50314.074314294	50308.793950313	1.5	0.1
0.01	1	0.167146840001806	1	84	NA	361.036141281998	0	0.35	5.24	1	349.420212569996	349.587359409998	"18"	50314.074314294	50308.793950313	1.5	0.1
0.01	1	0.166475574005744	1	84	NA	361.036141281998	0	0.35	5.24	1	349.820945319996	349.987420894002	"18"	50314.074314294	50308.793950313	1.5	0.1
0.01	1	0.227828308998141	1	84	NA	361.036141281998	0	0.35	5.24	1	350.221651842003	350.449480151001	"18"	50314.074314294	50308.793950313	1.5	0.1
0.01	1	0.185551850998309	1	84	NA	361.036141281998	0	0.35	5.24	1	350.672421039999	350.857972890997	"18"	50314.074314294	50308.793950313	1.5	0.1
0.01	1	0.184533853003813	1	84	NA	361.036141281998	0	0.35	5.24	1	351.089732986999	351.274266840002	"18"	50314.074314294	50308.793950313	1.5	0.1
0.01	1	0.24005111099541	1	84	NA	361.036141281998	0	0.35	5.24	1	351.507111377003	351.747162487998	"18"	50314.074314294	50308.793950313	1.5	0.1
0.01	1	0.236371523002163	1	84	NA	361.036141281998	0	0.35	5.24	1	351.974495445	352.210866968002	"18"	50314.074314294	50308.793950313	1.5	0.1
0.01	1	0.457661817999906	1	84	NA	361.036141281998	0	0.35	5.24	1	352.442016595	352.899678412999	"18"	50314.074314294	50308.793950313	1.5	0.1
0.01	1	0.235241549999046	1	84	NA	361.036141281998	0	0.35	5.24	1	353.126559165001	353.361800715	"18"	50314.074314294	50308.793950313	1.5	0.1
0.01	1	0.329444659000728	1	84	NA	361.036141281998	0	0.35	5.24	1	353.593960099999	353.923404759	"18"	50314.074314294	50308.793950313	1.5	0.1
0.01	1	0.233124868005689	1	84	NA	361.036141281998	0	0.35	5.24	1	354.161547279997	354.394672148002	"18"	50314.074314294	50308.793950313	1.5	0.1
0.01	1	0.245499994001875	1	84	NA	361.036141281998	0	0.35	5.24	1	354.62902932	354.874529314002	"18"	50314.074314294	50308.793950313	1.5	0.1
0.01	1	0.234601322001254	1	84	NA	361.036141281998	0	0.35	5.24	1	355.096457776999	355.331059099	"18"	50314.074314294	50308.793950313	1.5	0.1
0.01	1	0.254218350004521	1	84	NA	361.036141281998	0	0.35	5.24	1	355.563865751996	355.818084102	"18"	50314.074314294	50308.793950313	1.5	0.1
0.01	1	0.241652538999915	1	84	NA	361.036141281998	0	0.35	5.24	1	356.04815766	356.289810198999	"18"	50314.074314294	50308.793950313	1.5	0.1
0.01	1	0.254630733004888	1	84	NA	361.036141281998	0	0.35	5.24	1	356.515473066996	356.770103800001	"18"	50314.074314294	50308.793950313	1.5	0.1
0.01	1	0.257814810996933	1	84	NA	361.036141281998	0	0.35	5.24	1	356.999655435	357.257470245997	"18"	50314.074314294	50308.793950313	1.5	0.1
0.01	1	0.263151277998986	1	84	NA	361.036141281998	0	0.35	5.24	1	357.483828600001	357.746979878	"18"	50314.074314294	50308.793950313	1.5	0.1
0.01	1	0.282059112003481	1	84	NA	361.036141281998	0	0.35	5.24	1	357.984760196996	358.266819308999	"18"	50314.074314294	50308.793950313	1.5	0.1
0.01	1	0.22122123799636	1	84	NA	361.036141281998	0	0.35	5.24	1	358.502117377	358.723338614996	"18"	50314.074314294	50308.793950313	1.5	0.1
0.01	1	0.328795818000799	1	84	NA	361.036141281998	0	0.35	5.24	1	358.952925899997	359.281721717998	"18"	50314.074314294	50308.793950313	1.5	0.1
0.01	1	0.307447782004601	1	84	NA	361.036141281998	0	0.35	5.24	1	359.503947049998	359.811394832002	"18"	50314.074314294	50308.793950313	1.5	0.1
0.01	1	0.301050219997705	1	84	NA	361.036141281998	0	0.35	5.24	1	360.038075905002	360.339126125	"18"	50314.074314294	50308.793950313	1.5	0.1
0.01	1	0.462232336998568	2	84	NA	361.036141281998	0	0.35	5.24	1	360.572346494999	361.034578831997	"18"	50314.074314294	50308.793950313	1.5	0.1
0.01	1	0.133049550000578	1	74	NA	386.804330441002	0	0.5	5.74	1	363.093169824999	363.226219374999	"19"	50314.074314294	50308.793950313	1.5	0.1
0.01	1	0.200490768002055	1	74	NA	386.804330441002	0	0.5	5.74	1	363.460572737	363.661063505002	"19"	50314.074314294	50308.793950313	1.5	0.1
0.01	1	0.155547273003322	1	74	NA	386.804330441002	0	0.5	5.74	1	363.894655614997	364.050202888	"19"	50314.074314294	50308.793950313	1.5	0.1
0.01	1	0.171174027003872	1	74	NA	386.804330441002	0	0.5	5.74	1	364.278602441998	364.449776469002	"19"	50314.074314294	50308.793950313	1.5	0.1
0.01	1	0.210784071998205	1	74	NA	386.804330441002	0	0.5	5.74	1	364.679253255003	364.890037327001	"19"	50314.074314294	50308.793950313	1.5	0.1
0.01	1	0.160383895003179	1	74	NA	386.804330441002	0	0.5	5.74	1	365.113329776999	365.273713672002	"19"	50314.074314294	50308.793950313	1.5	0.1
0.01	1	0.12093505699886	1	74	NA	386.804330441002	0	0.5	5.74	1	365.497276675	365.618211731999	"19"	50314.074314294	50308.793950313	1.5	0.1
0.01	1	0.171059259999311	1	74	NA	386.804330441002	0	0.5	5.74	1	365.847934792	366.018994051999	"19"	50314.074314294	50308.793950313	1.5	0.1
0.01	1	0.154240764997667	1	74	NA	386.804330441002	0	0.5	5.74	1	366.248538669999	366.402779434997	"19"	50314.074314294	50308.793950313	1.5	0.1
0.01	1	0.146151059001568	1	74	NA	386.804330441002	0	0.5	5.74	1	366.632531887	366.778682946002	"19"	50314.074314294	50308.793950313	1.5	0.1
0.01	1	0.106842959998176	1	74	NA	386.804330441002	0	0.5	5.74	1	367.01644621	367.123289169998	"19"	50314.074314294	50308.793950313	1.5	0.1
0.01	1	0.149000723002246	1	74	NA	386.804330441002	0	0.5	5.74	1	367.350478326996	367.499479049999	"19"	50314.074314294	50308.793950313	1.5	0.1
0.01	1	0.171716371994989	1	74	NA	386.804330441002	0	0.5	5.74	1	367.734423665002	367.906140036997	"19"	50314.074314294	50308.793950313	1.5	0.1
0.01	1	0.179737038000894	1	74	NA	386.804330441002	0	0.5	5.74	1	368.135152919996	368.314889957997	"19"	50314.074314294	50308.793950313	1.5	0.1
0.01	1	0.170428232995619	1	74	NA	386.804330441002	0	0.5	5.74	1	368.552385285002	368.722813517998	"19"	50314.074314294	50308.793950313	1.5	0.1
0.01	1	0.224826099001803	1	74	NA	386.804330441002	0	0.5	5.74	1	368.953148784996	369.177974883998	"19"	50314.074314294	50308.793950313	1.5	0.1
0.01	1	0.126527123000415	1	74	NA	386.804330441002	0	0.5	5.74	1	369.403938144998	369.530465267999	"19"	50314.074314294	50308.793950313	1.5	0.1
0.01	1	0.143400993001706	1	74	NA	386.804330441002	0	0.5	5.74	1	369.754520985	369.897921978001	"19"	50314.074314294	50308.793950313	1.5	0.1
