"payoff.level"	"balloon"	"rt"	"resp"	"explode.trial"	"explode.time"	"finish.time"	"exploded"	"trial.total"	"cumulative.total"	"finished"	"trial.start"	"trial.end"	"trial.num"	"secs"	"start.time"	"iti"	"isi"
0.01	1	4.90075649600021	1	64	NA	55.3397440439994	0	0.5	0.5	1	0.0274601969995274	4.92821669299974	"1"	8521.348276084	8514.231276664	1.5	0.1
0.01	1	1.81038503899981	1	64	NA	55.3397440439994	0	0.5	0.5	1	5.30297023299954	7.11335527199935	"1"	8521.348276084	8514.231276664	1.5	0.1
0.01	1	0.980208537999715	1	64	NA	55.3397440439994	0	0.5	0.5	1	7.35636474900002	8.33657328699974	"1"	8521.348276084	8514.231276664	1.5	0.1
0.01	1	0.898883186000603	1	64	NA	55.3397440439994	0	0.5	0.5	1	8.55844285499916	9.45732604099976	"1"	8521.348276084	8514.231276664	1.5	0.1
0.01	1	0.907313475000592	1	64	NA	55.3397440439994	0	0.5	0.5	1	9.69362866999927	10.6009421449999	"1"	8521.348276084	8514.231276664	1.5	0.1
0.01	1	1.24336850500003	1	64	NA	55.3397440439994	0	0.5	0.5	1	10.8288426569998	12.0722111619998	"1"	8521.348276084	8514.231276664	1.5	0.1
0.01	1	1.17466044399953	1	64	NA	55.3397440439994	0	0.5	0.5	1	12.2980070949998	13.4726675389993	"1"	8521.348276084	8514.231276664	1.5	0.1
0.01	1	0.939749090000078	1	64	NA	55.3397440439994	0	0.5	0.5	1	13.7003694899995	14.6401185799996	"1"	8521.348276084	8514.231276664	1.5	0.1
0.01	1	1.00403164900035	1	64	NA	55.3397440439994	0	0.5	0.5	1	14.8691302649995	15.8731619139999	"1"	8521.348276084	8514.231276664	1.5	0.1
0.01	1	0.927604370000154	1	64	NA	55.3397440439994	0	0.5	0.5	1	16.1044366249998	17.032040995	"1"	8521.348276084	8514.231276664	1.5	0.1
0.01	1	0.664086789000066	1	64	NA	55.3397440439994	0	0.5	0.5	1	17.2563898549997	17.9204766439998	"1"	8521.348276084	8514.231276664	1.5	0.1
0.01	1	0.698369534999983	1	64	NA	55.3397440439994	0	0.5	0.5	1	18.1579659469999	18.8563354819998	"1"	8521.348276084	8514.231276664	1.5	0.1
0.01	1	0.507967421000103	1	64	NA	55.3397440439994	0	0.5	0.5	1	19.0928692019997	19.6008366229999	"1"	8521.348276084	8514.231276664	1.5	0.1
0.01	1	0.429019407999476	1	64	NA	55.3397440439994	0	0.5	0.5	1	19.8273004049997	20.2563198129992	"1"	8521.348276084	8514.231276664	1.5	0.1
0.01	1	0.546412642999712	1	64	NA	55.3397440439994	0	0.5	0.5	1	20.4784723229996	21.0248849659993	"1"	8521.348276084	8514.231276664	1.5	0.1
0.01	1	0.569308354999521	1	64	NA	55.3397440439994	0	0.5	0.5	1	21.2630926669999	21.8324010219994	"1"	8521.348276084	8514.231276664	1.5	0.1
0.01	1	0.567726812000728	1	64	NA	55.3397440439994	0	0.5	0.5	1	22.0644667049992	22.6321935169999	"1"	8521.348276084	8514.231276664	1.5	0.1
0.01	1	0.559721327000261	1	64	NA	55.3397440439994	0	0.5	0.5	1	22.8658502549997	23.425571582	"1"	8521.348276084	8514.231276664	1.5	0.1
0.01	1	0.894349652000528	1	64	NA	55.3397440439994	0	0.5	0.5	1	23.6671622449994	24.5615118969999	"1"	8521.348276084	8514.231276664	1.5	0.1
0.01	1	3.56624970800021	1	64	NA	55.3397440439994	0	0.5	0.5	1	24.7864928119998	28.35274252	"1"	8521.348276084	8514.231276664	1.5	0.1
0.01	1	1.62524392799969	1	64	NA	55.3397440439994	0	0.5	0.5	1	28.5920909269998	30.2173348549995	"1"	8521.348276084	8514.231276664	1.5	0.1
0.01	1	0.636436802999924	1	64	NA	55.3397440439994	0	0.5	0.5	1	30.4453376699994	31.0817744729993	"1"	8521.348276084	8514.231276664	1.5	0.1
0.01	1	0.799491898999804	1	64	NA	55.3397440439994	0	0.5	0.5	1	31.313356615	32.1128485139998	"1"	8521.348276084	8514.231276664	1.5	0.1
0.01	1	0.643691847999435	1	64	NA	55.3397440439994	0	0.5	0.5	1	32.3483609249997	32.9920527729992	"1"	8521.348276084	8514.231276664	1.5	0.1
0.01	1	2.7288872019999	1	64	NA	55.3397440439994	0	0.5	0.5	1	33.216558612	35.9454458139999	"1"	8521.348276084	8514.231276664	1.5	0.1
0.01	1	0.524815087999741	1	64	NA	55.3397440439994	0	0.5	0.5	1	36.1715359519994	36.6963510399992	"1"	8521.348276084	8514.231276664	1.5	0.1
0.01	1	0.341916630999549	1	64	NA	55.3397440439994	0	0.5	0.5	1	36.922749112	37.2646657429996	"1"	8521.348276084	8514.231276664	1.5	0.1
0.01	1	0.28669451100086	1	64	NA	55.3397440439994	0	0.5	0.5	1	37.4904895329992	37.777184044	"1"	8521.348276084	8514.231276664	1.5	0.1
0.01	1	0.344256560000758	1	64	NA	55.3397440439994	0	0.5	0.5	1	38.0080089099993	38.35226547	"1"	8521.348276084	8514.231276664	1.5	0.1
0.01	1	0.305935954000233	1	64	NA	55.3397440439994	0	0.5	0.5	1	38.5756320819992	38.8815680359994	"1"	8521.348276084	8514.231276664	1.5	0.1
0.01	1	1.0192548670002	1	64	NA	55.3397440439994	0	0.5	0.5	1	39.1098646149994	40.1291194819996	"1"	8521.348276084	8514.231276664	1.5	0.1
0.01	1	0.383856892999574	1	64	NA	55.3397440439994	0	0.5	0.5	1	40.36193671	40.7457936029996	"1"	8521.348276084	8514.231276664	1.5	0.1
0.01	1	0.502044922000096	1	64	NA	55.3397440439994	0	0.5	0.5	1	40.9795446899998	41.4815896119999	"1"	8521.348276084	8514.231276664	1.5	0.1
0.01	1	0.334545388999686	1	64	NA	55.3397440439994	0	0.5	0.5	1	41.714156907	42.0487022959996	"1"	8521.348276084	8514.231276664	1.5	0.1
0.01	1	0.383123177000016	1	64	NA	55.3397440439994	0	0.5	0.5	1	42.2817262819999	42.6648494589999	"1"	8521.348276084	8514.231276664	1.5	0.1
0.01	1	0.357398258000103	1	64	NA	55.3397440439994	0	0.5	0.5	1	42.8994950849992	43.2568933429993	"1"	8521.348276084	8514.231276664	1.5	0.1
0.01	1	0.397283799999968	1	64	NA	55.3397440439994	0	0.5	0.5	1	43.4837695729993	43.8810533729993	"1"	8521.348276084	8514.231276664	1.5	0.1
0.01	1	0.400875303999783	1	64	NA	55.3397440439994	0	0.5	0.5	1	44.1191290629995	44.5200043669993	"1"	8521.348276084	8514.231276664	1.5	0.1
0.01	1	0.344613733999722	1	64	NA	55.3397440439994	0	0.5	0.5	1	44.7525631250001	45.0971768589998	"1"	8521.348276084	8514.231276664	1.5	0.1
0.01	1	0.43223183200007	1	64	NA	55.3397440439994	0	0.5	0.5	1	45.3369883269997	45.7692201589998	"1"	8521.348276084	8514.231276664	1.5	0.1
0.01	1	2.84378645200013	1	64	NA	55.3397440439994	0	0.5	0.5	1	46.0048031649994	48.8485896169996	"1"	8521.348276084	8514.231276664	1.5	0.1
0.01	1	0.324958225000046	1	64	NA	55.3397440439994	0	0.5	0.5	1	49.0765659949993	49.4015242199994	"1"	8521.348276084	8514.231276664	1.5	0.1
0.01	1	0.318286146999526	1	64	NA	55.3397440439994	0	0.5	0.5	1	49.6275665519997	49.9458526989993	"1"	8521.348276084	8514.231276664	1.5	0.1
0.01	1	0.334665069999573	1	64	NA	55.3397440439994	0	0.5	0.5	1	50.1784958449998	50.5131609149994	"1"	8521.348276084	8514.231276664	1.5	0.1
0.01	1	0.311324596000304	1	64	NA	55.3397440439994	0	0.5	0.5	1	50.7460716649994	51.0573962609997	"1"	8521.348276084	8514.231276664	1.5	0.1
0.01	1	0.343927257999894	1	64	NA	55.3397440439994	0	0.5	0.5	1	51.2802009719999	51.6241282299998	"1"	8521.348276084	8514.231276664	1.5	0.1
0.01	1	0.328960265000205	1	64	NA	55.3397440439994	0	0.5	0.5	1	51.8479541279994	52.1769143929996	"1"	8521.348276084	8514.231276664	1.5	0.1
0.01	1	0.353068383999926	1	64	NA	55.3397440439994	0	0.5	0.5	1	52.4155690699999	52.7686374539999	"1"	8521.348276084	8514.231276664	1.5	0.1
0.01	1	0.402227116000176	1	64	NA	55.3397440439994	0	0.5	0.5	1	52.9997814599992	53.4020085759994	"1"	8521.348276084	8514.231276664	1.5	0.1
0.01	1	0.447353815000497	1	64	NA	55.3397440439994	0	0.5	0.5	1	53.6342261719992	54.0815799869997	"1"	8521.348276084	8514.231276664	1.5	0.1
0.01	1	1.0192313940006	2	64	NA	55.3397440439994	0	0.5	0.5	1	54.3188127199992	55.3380441139998	"1"	8521.348276084	8514.231276664	1.5	0.1
0.01	1	0.858238851999886	1	102	NA	95.5956234179994	0	0.55	1.05	1	57.3905738449994	58.2488126969993	"2"	8521.348276084	8514.231276664	1.5	0.1
0.01	1	0.292815592000807	1	102	NA	95.5956234179994	0	0.55	1.05	1	58.4757059219992	58.768521514	"2"	8521.348276084	8514.231276664	1.5	0.1
0.01	1	0.248351077000734	1	102	NA	95.5956234179994	0	0.55	1.05	1	58.9932442249992	59.241595302	"2"	8521.348276084	8514.231276664	1.5	0.1
0.01	1	0.220544720000362	1	102	NA	95.5956234179994	0	0.55	1.05	1	59.4774347699995	59.6979794899999	"2"	8521.348276084	8514.231276664	1.5	0.1
0.01	1	0.27205393299937	1	102	NA	95.5956234179994	0	0.55	1.05	1	59.9281828869998	60.2002368199992	"2"	8521.348276084	8514.231276664	1.5	0.1
0.01	1	0.252148171999579	1	102	NA	95.5956234179994	0	0.55	1.05	1	60.4290287169997	60.6811768889993	"2"	8521.348276084	8514.231276664	1.5	0.1
0.01	1	0.25566082000023	1	102	NA	95.5956234179994	0	0.55	1.05	1	60.9132431899998	61.16890401	"2"	8521.348276084	8514.231276664	1.5	0.1
0.01	1	0.235940047999975	1	102	NA	95.5956234179994	0	0.55	1.05	1	61.3974049949993	61.6333450429993	"2"	8521.348276084	8514.231276664	1.5	0.1
0.01	1	0.256034146999809	1	102	NA	95.5956234179994	0	0.55	1.05	1	61.8648677519996	62.1209018989994	"2"	8521.348276084	8514.231276664	1.5	0.1
0.01	1	0.26810770999964	1	102	NA	95.5956234179994	0	0.55	1.05	1	62.3497562399998	62.6178639499994	"2"	8521.348276084	8514.231276664	1.5	0.1
0.01	1	0.262628817999939	1	102	NA	95.5956234179994	0	0.55	1.05	1	62.8497966649993	63.1124254829992	"2"	8521.348276084	8514.231276664	1.5	0.1
0.01	1	0.227364534999651	1	102	NA	95.5956234179994	0	0.55	1.05	1	63.350563682	63.5779282169997	"2"	8521.348276084	8514.231276664	1.5	0.1
0.01	1	0.280129529999613	1	102	NA	95.5956234179994	0	0.55	1.05	1	63.8014319599997	64.0815614899993	"2"	8521.348276084	8514.231276664	1.5	0.1
0.01	1	0.266250766000667	1	102	NA	95.5956234179994	0	0.55	1.05	1	64.3188634949993	64.5851142609999	"2"	8521.348276084	8514.231276664	1.5	0.1
0.01	1	0.244367835000048	1	102	NA	95.5956234179994	0	0.55	1.05	1	64.8197663069996	65.0641341419996	"2"	8521.348276084	8514.231276664	1.5	0.1
0.01	1	0.250567371000216	1	102	NA	95.5956234179994	0	0.55	1.05	1	65.2872446519996	65.5378120229998	"2"	8521.348276084	8514.231276664	1.5	0.1
0.01	1	0.246544820000054	1	102	NA	95.5956234179994	0	0.55	1.05	1	65.7713772729994	66.0179220929995	"2"	8521.348276084	8514.231276664	1.5	0.1
0.01	1	0.25025099100003	1	102	NA	95.5956234179994	0	0.55	1.05	1	66.2554884869996	66.5057394779997	"2"	8521.348276084	8514.231276664	1.5	0.1
0.01	1	0.269564797999919	1	102	NA	95.5956234179994	0	0.55	1.05	1	66.7396326589997	67.0091974569996	"2"	8521.348276084	8514.231276664	1.5	0.1
0.01	1	0.295541101000708	1	102	NA	95.5956234179994	0	0.55	1.05	1	67.2403929819993	67.535934083	"2"	8521.348276084	8514.231276664	1.5	0.1
0.01	1	0.275009543000124	1	102	NA	95.5956234179994	0	0.55	1.05	1	67.7580316819995	68.0330412249996	"2"	8521.348276084	8514.231276664	1.5	0.1
0.01	1	0.270665097999881	1	102	NA	95.5956234179994	0	0.55	1.05	1	68.2588629749998	68.5295280729997	"2"	8521.348276084	8514.231276664	1.5	0.1
0.01	1	0.298332167000808	1	102	NA	95.5956234179994	0	0.55	1.05	1	68.7597032669992	69.058035434	"2"	8521.348276084	8514.231276664	1.5	0.1
0.01	1	0.274764019999566	1	102	NA	95.5956234179994	0	0.55	1.05	1	69.2940329049998	69.5687969249993	"2"	8521.348276084	8514.231276664	1.5	0.1
0.01	1	0.27720466700066	1	102	NA	95.5956234179994	0	0.55	1.05	1	69.7947771699992	70.0719818369998	"2"	8521.348276084	8514.231276664	1.5	0.1
0.01	1	0.249211160999948	1	102	NA	95.5956234179994	0	0.55	1.05	1	70.2956204889997	70.5448316499997	"2"	8521.348276084	8514.231276664	1.5	0.1
0.01	1	0.244217823000326	1	102	NA	95.5956234179994	0	0.55	1.05	1	70.7798028299994	71.0240206529998	"2"	8521.348276084	8514.231276664	1.5	0.1
0.01	1	0.258730122000088	1	102	NA	95.5956234179994	0	0.55	1.05	1	71.2472011549999	71.5059312769999	"2"	8521.348276084	8514.231276664	1.5	0.1
0.01	1	0.270533560999866	1	102	NA	95.5956234179994	0	0.55	1.05	1	71.7313658269995	72.0018993879994	"2"	8521.348276084	8514.231276664	1.5	0.1
0.01	1	0.248710881000079	1	102	NA	95.5956234179994	0	0.55	1.05	1	72.2321803819996	72.4808912629996	"2"	8521.348276084	8514.231276664	1.5	0.1
0.01	1	0.236862136000127	1	102	NA	95.5956234179994	0	0.55	1.05	1	72.7163835719994	72.9532457079995	"2"	8521.348276084	8514.231276664	1.5	0.1
0.01	1	0.225166432999686	1	102	NA	95.5956234179994	0	0.55	1.05	1	73.18378467	73.4089511029997	"2"	8521.348276084	8514.231276664	1.5	0.1
0.01	1	0.238259747000484	1	102	NA	95.5956234179994	0	0.55	1.05	1	73.6345326149994	73.8727923619999	"2"	8521.348276084	8514.231276664	1.5	0.1
0.01	1	0.266318806999152	1	102	NA	95.5956234179994	0	0.55	1.05	1	74.101954275	74.3682730819992	"2"	8521.348276084	8514.231276664	1.5	0.1
0.01	1	0.245619901999817	1	102	NA	95.5956234179994	0	0.55	1.05	1	74.6028784869995	74.8484983889994	"2"	8521.348276084	8514.231276664	1.5	0.1
0.01	1	0.210823305999838	1	102	NA	95.5956234179994	0	0.55	1.05	1	75.0870099399999	75.2978332459998	"2"	8521.348276084	8514.231276664	1.5	0.1
0.01	1	0.280114576999949	1	102	NA	95.5956234179994	0	0.55	1.05	1	75.5210946130001	75.80120919	"2"	8521.348276084	8514.231276664	1.5	0.1
0.01	1	0.240974155000004	1	102	NA	95.5956234179994	0	0.55	1.05	1	76.0391801149999	76.2801542699999	"2"	8521.348276084	8514.231276664	1.5	0.1
0.01	1	0.230907280000793	1	102	NA	95.5956234179994	0	0.55	1.05	1	76.5060903649992	76.736997645	"2"	8521.348276084	8514.231276664	1.5	0.1
0.01	1	0.290864171999601	1	102	NA	95.5956234179994	0	0.55	1.05	1	76.9734962929997	77.2643604649993	"2"	8521.348276084	8514.231276664	1.5	0.1
0.01	1	0.285401413999352	1	102	NA	95.5956234179994	0	0.55	1.05	1	77.491086905	77.7764883189993	"2"	8521.348276084	8514.231276664	1.5	0.1
0.01	1	0.296258775999377	1	102	NA	95.5956234179994	0	0.55	1.05	1	78.0086140769999	78.3048728529993	"2"	8521.348276084	8514.231276664	1.5	0.1
0.01	1	0.282767656000033	1	102	NA	95.5956234179994	0	0.55	1.05	1	78.5261839049999	78.808951561	"2"	8521.348276084	8514.231276664	1.5	0.1
0.01	1	0.300404937999701	1	102	NA	95.5956234179994	0	0.55	1.05	1	79.0436639299996	79.3440688679993	"2"	8521.348276084	8514.231276664	1.5	0.1
0.01	1	0.318590570999731	1	102	NA	95.5956234179994	0	0.55	1.05	1	79.5779434269998	79.8965339979995	"2"	8521.348276084	8514.231276664	1.5	0.1
0.01	1	0.320592920000308	1	102	NA	95.5956234179994	0	0.55	1.05	1	80.1288272069996	80.4494201269999	"2"	8521.348276084	8514.231276664	1.5	0.1
0.01	1	0.321219123999981	1	102	NA	95.5956234179994	0	0.55	1.05	1	80.6798748949996	81.0010940189995	"2"	8521.348276084	8514.231276664	1.5	0.1
0.01	1	0.330460004999622	1	102	NA	95.5956234179994	0	0.55	1.05	1	81.2307847319998	81.5612447369995	"2"	8521.348276084	8514.231276664	1.5	0.1
0.01	1	0.290049471999737	1	102	NA	95.5956234179994	0	0.55	1.05	1	81.7983000819995	82.0883495539993	"2"	8521.348276084	8514.231276664	1.5	0.1
0.01	1	0.396357896000154	1	102	NA	95.5956234179994	0	0.55	1.05	1	82.3158220199994	82.7121799159995	"2"	8521.348276084	8514.231276664	1.5	0.1
0.01	1	9.07541864099949	1	102	NA	95.5956234179994	0	0.55	1.05	1	82.9501792299998	92.0255978709993	"2"	8521.348276084	8514.231276664	1.5	0.1
0.01	1	0.409160006999628	1	102	NA	95.5956234179994	0	0.55	1.05	1	92.2492028269999	92.6583628339995	"2"	8521.348276084	8514.231276664	1.5	0.1
0.01	1	0.326603779999459	1	102	NA	95.5956234179994	0	0.55	1.05	1	92.883674492	93.2102782719994	"2"	8521.348276084	8514.231276664	1.5	0.1
0.01	1	0.342339378000361	1	102	NA	95.5956234179994	0	0.55	1.05	1	93.4345762449993	93.7769156229997	"2"	8521.348276084	8514.231276664	1.5	0.1
0.01	1	0.41582296300021	1	102	NA	95.5956234179994	0	0.55	1.05	1	94.0021725069992	94.4179954699994	"2"	8521.348276084	8514.231276664	1.5	0.1
0.01	1	0.94085375099985	2	102	NA	95.5956234179994	0	0.55	1.05	1	94.6532137869999	95.5940675379998	"2"	8521.348276084	8514.231276664	1.5	0.1
0.01	1	1.15248905499993	1	97	NA	130.674866703999	0	0.6	1.65	1	97.624974325	98.77746338	"3"	8521.348276084	8514.231276664	1.5	0.1
0.01	1	0.294517680000354	1	97	NA	130.674866703999	0	0.6	1.65	1	99.0106879649993	99.3052056449997	"3"	8521.348276084	8514.231276664	1.5	0.1
0.01	1	0.217021373000534	1	97	NA	130.674866703999	0	0.6	1.65	1	99.5447865119995	99.7618078850001	"3"	8521.348276084	8514.231276664	1.5	0.1
0.01	1	0.197679722999965	1	97	NA	130.674866703999	0	0.6	1.65	1	99.9955508189996	100.193230542	"3"	8521.348276084	8514.231276664	1.5	0.1
0.01	1	0.205186690999653	1	97	NA	130.674866703999	0	0.6	1.65	1	100.42965761	100.634844300999	"3"	8521.348276084	8514.231276664	1.5	0.1
0.01	1	0.226160465000248	1	97	NA	130.674866703999	0	0.6	1.65	1	100.863734461999	101.089894926999	"3"	8521.348276084	8514.231276664	1.5	0.1
0.01	1	0.208227437999994	1	97	NA	130.674866703999	0	0.6	1.65	1	101.314417555	101.522644993	"3"	8521.348276084	8514.231276664	1.5	0.1
0.01	1	0.206248682000478	1	97	NA	130.674866703999	0	0.6	1.65	1	101.748486961999	101.954735644	"3"	8521.348276084	8514.231276664	1.5	0.1
0.01	1	0.23551781399965	1	97	NA	130.674866703999	0	0.6	1.65	1	102.18257106	102.418088873999	"3"	8521.348276084	8514.231276664	1.5	0.1
0.01	1	0.207438025000556	1	97	NA	130.674866703999	0	0.6	1.65	1	102.650158404999	102.85759643	"3"	8521.348276084	8514.231276664	1.5	0.1
0.01	1	0.229426688999411	1	97	NA	130.674866703999	0	0.6	1.65	1	103.084128271	103.313554959999	"3"	8521.348276084	8514.231276664	1.5	0.1
0.01	1	0.193993925000541	1	97	NA	130.674866703999	0	0.6	1.65	1	103.551511924999	103.74550585	"3"	8521.348276084	8514.231276664	1.5	0.1
0.01	1	0.233277461000398	1	97	NA	130.674866703999	0	0.6	1.65	1	103.968953262	104.202230723	"3"	8521.348276084	8514.231276664	1.5	0.1
0.01	1	0.206320072999915	1	97	NA	130.674866703999	0	0.6	1.65	1	104.43645736	104.642777433	"3"	8521.348276084	8514.231276664	1.5	0.1
0.01	1	0.218818029999966	1	97	NA	130.674866703999	0	0.6	1.65	1	104.870478164999	105.089296194999	"3"	8521.348276084	8514.231276664	1.5	0.1
0.01	1	0.241192354000304	1	97	NA	130.674866703999	0	0.6	1.65	1	105.321256707	105.562449061	"3"	8521.348276084	8514.231276664	1.5	0.1
0.01	1	0.245786817000408	1	97	NA	130.674866703999	0	0.6	1.65	1	105.788641962999	106.03442878	"3"	8521.348276084	8514.231276664	1.5	0.1
0.01	1	0.216854317999605	1	97	NA	130.674866703999	0	0.6	1.65	1	106.272796415	106.489650733	"3"	8521.348276084	8514.231276664	1.5	0.1
0.01	1	0.205518516000666	1	97	NA	130.674866703999	0	0.6	1.65	1	106.723508792999	106.929027309	"3"	8521.348276084	8514.231276664	1.5	0.1
0.01	1	0.203525320000153	1	97	NA	130.674866703999	0	0.6	1.65	1	107.157595575	107.361120895	"3"	8521.348276084	8514.231276664	1.5	0.1
0.01	1	0.218607146000068	1	97	NA	130.674866703999	0	0.6	1.65	1	107.591841637	107.810448783	"3"	8521.348276084	8514.231276664	1.5	0.1
0.01	1	0.207086248000451	1	97	NA	130.674866703999	0	0.6	1.65	1	108.042449279999	108.249535528	"3"	8521.348276084	8514.231276664	1.5	0.1
0.01	1	0.21293215500009	1	97	NA	130.674866703999	0	0.6	1.65	1	108.476545672	108.689477827	"3"	8521.348276084	8514.231276664	1.5	0.1
0.01	1	0.227017477999652	1	97	NA	130.674866703999	0	0.6	1.65	1	108.927333209	109.154350686999	"3"	8521.348276084	8514.231276664	1.5	0.1
0.01	1	0.271946799000034	1	97	NA	130.674866703999	0	0.6	1.65	1	109.378003182	109.649949981	"3"	8521.348276084	8514.231276664	1.5	0.1
0.01	1	0.275799465999626	1	97	NA	130.674866703999	0	0.6	1.65	1	109.878835635	110.154635100999	"3"	8521.348276084	8514.231276664	1.5	0.1
0.01	1	0.231012188999557	1	97	NA	130.674866703999	0	0.6	1.65	1	110.379735965	110.610748153999	"3"	8521.348276084	8514.231276664	1.5	0.1
0.01	1	0.25950568799999	1	97	NA	130.674866703999	0	0.6	1.65	1	110.847147189999	111.106652877999	"3"	8521.348276084	8514.231276664	1.5	0.1
0.01	1	0.230238618999465	1	97	NA	130.674866703999	0	0.6	1.65	1	111.33125099	111.561489608999	"3"	8521.348276084	8514.231276664	1.5	0.1
0.01	1	0.201906901000257	1	97	NA	130.674866703999	0	0.6	1.65	1	111.798813572	112.000720473	"3"	8521.348276084	8514.231276664	1.5	0.1
0.01	1	0.233750901000349	1	97	NA	130.674866703999	0	0.6	1.65	1	112.232882801	112.466633702	"3"	8521.348276084	8514.231276664	1.5	0.1
0.01	1	0.204778532000091	1	97	NA	130.674866703999	0	0.6	1.65	1	112.700320659999	112.905099191999	"3"	8521.348276084	8514.231276664	1.5	0.1
0.01	1	0.283278695000263	1	97	NA	130.674866703999	0	0.6	1.65	1	113.134408364999	113.417687059999	"3"	8521.348276084	8514.231276664	1.5	0.1
0.01	1	0.316892965000079	1	97	NA	130.674866703999	0	0.6	1.65	1	113.651939185	113.96883215	"3"	8521.348276084	8514.231276664	1.5	0.1
0.01	1	0.283656921000329	1	97	NA	130.674866703999	0	0.6	1.65	1	114.202873697	114.486530618	"3"	8521.348276084	8514.231276664	1.5	0.1
0.01	1	0.250506672999109	1	97	NA	130.674866703999	0	0.6	1.65	1	114.720404869	114.970911541999	"3"	8521.348276084	8514.231276664	1.5	0.1
0.01	1	0.229499381999631	1	97	NA	130.674866703999	0	0.6	1.65	1	115.20445347	115.433952851999	"3"	8521.348276084	8514.231276664	1.5	0.1
0.01	1	0.25797954599966	1	97	NA	130.674866703999	0	0.6	1.65	1	115.672011295	115.929990840999	"3"	8521.348276084	8514.231276664	1.5	0.1
0.01	1	0.228768377000051	1	97	NA	130.674866703999	0	0.6	1.65	1	116.156144181999	116.384912559	"3"	8521.348276084	8514.231276664	1.5	0.1
0.01	1	0.242044226999496	1	97	NA	130.674866703999	0	0.6	1.65	1	116.60685073	116.848894956999	"3"	8521.348276084	8514.231276664	1.5	0.1
0.01	1	0.310724875000233	1	97	NA	130.674866703999	0	0.6	1.65	1	117.074312192	117.385037067	"3"	8521.348276084	8514.231276664	1.5	0.1
0.01	1	0.297175667000374	1	97	NA	130.674866703999	0	0.6	1.65	1	117.608479	117.905654667	"3"	8521.348276084	8514.231276664	1.5	0.1
0.01	1	0.251501269999608	1	97	NA	130.674866703999	0	0.6	1.65	1	118.142889023	118.394390293	"3"	8521.348276084	8514.231276664	1.5	0.1
0.01	1	0.293989951000185	1	97	NA	130.674866703999	0	0.6	1.65	1	118.626931739999	118.920921690999	"3"	8521.348276084	8514.231276664	1.5	0.1
0.01	1	0.328330128999369	1	97	NA	130.674866703999	0	0.6	1.65	1	119.14445249	119.472782618999	"3"	8521.348276084	8514.231276664	1.5	0.1
0.01	1	0.3227821950004	1	97	NA	130.674866703999	0	0.6	1.65	1	119.69541711	120.018199305	"3"	8521.348276084	8514.231276664	1.5	0.1
0.01	1	0.275406436999219	1	97	NA	130.674866703999	0	0.6	1.65	1	120.246347923	120.521754359999	"3"	8521.348276084	8514.231276664	1.5	0.1
0.01	1	0.302841027000795	1	97	NA	130.674866703999	0	0.6	1.65	1	120.747222841999	121.050063869	"3"	8521.348276084	8514.231276664	1.5	0.1
0.01	1	0.305118348000178	1	97	NA	130.674866703999	0	0.6	1.65	1	121.281432215	121.586550563	"3"	8521.348276084	8514.231276664	1.5	0.1
0.01	1	0.345638746000077	1	97	NA	130.674866703999	0	0.6	1.65	1	121.815705657	122.161344403	"3"	8521.348276084	8514.231276664	1.5	0.1
0.01	1	0.944703591000689	1	97	NA	130.674866703999	0	0.6	1.65	1	122.399970801999	123.344674393	"3"	8521.348276084	8514.231276664	1.5	0.1
0.01	1	0.28943630699996	1	97	NA	130.674866703999	0	0.6	1.65	1	123.568597189999	123.858033496999	"3"	8521.348276084	8514.231276664	1.5	0.1
0.01	1	0.346592699000212	1	97	NA	130.674866703999	0	0.6	1.65	1	124.086307029999	124.432899728999	"3"	8521.348276084	8514.231276664	1.5	0.1
0.01	1	0.388147515000128	1	97	NA	130.674866703999	0	0.6	1.65	1	124.670589672	125.058737187	"3"	8521.348276084	8514.231276664	1.5	0.1
0.01	1	0.385856284000511	1	97	NA	130.674866703999	0	0.6	1.65	1	125.288114946999	125.673971231	"3"	8521.348276084	8514.231276664	1.5	0.1
0.01	1	0.424551162000171	1	97	NA	130.674866703999	0	0.6	1.65	1	125.905818826999	126.330369988999	"3"	8521.348276084	8514.231276664	1.5	0.1
0.01	1	0.381070895000448	1	97	NA	130.674866703999	0	0.6	1.65	1	126.556916879999	126.937987775	"3"	8521.348276084	8514.231276664	1.5	0.1
0.01	1	0.490829997999754	1	97	NA	130.674866703999	0	0.6	1.65	1	127.174633615	127.665463613	"3"	8521.348276084	8514.231276664	1.5	0.1
0.01	1	0.413556440999855	1	97	NA	130.674866703999	0	0.6	1.65	1	127.892561015	128.306117456	"3"	8521.348276084	8514.231276664	1.5	0.1
0.01	1	0.482616102000065	1	97	NA	130.674866703999	0	0.6	1.65	1	128.54365144	129.026267542	"3"	8521.348276084	8514.231276664	1.5	0.1
0.01	1	1.41184223799974	2	97	NA	130.674866703999	0	0.6	1.65	1	129.261496835	130.673339073	"3"	8521.348276084	8514.231276664	1.5	0.1
0.01	1	2.09555225499935	1	51	158.514034289999	NA	1	0	1.65	1	132.717345702	134.812897956999	"4"	8521.348276084	8514.231276664	1.5	0.1
0.01	1	0.0793740600001911	1	51	158.514034289999	NA	1	0	1.65	1	135.037861825	135.117235885	"4"	8521.348276084	8514.231276664	1.5	0.1
0.01	1	0.201155724999808	1	51	158.514034289999	NA	1	0	1.65	1	135.355136165	135.55629189	"4"	8521.348276084	8514.231276664	1.5	0.1
0.01	1	0.207668578000266	1	51	158.514034289999	NA	1	0	1.65	1	135.789097864999	135.996766443	"4"	8521.348276084	8514.231276664	1.5	0.1
0.01	1	0.182365416999346	1	51	158.514034289999	NA	1	0	1.65	1	136.22315851	136.405523926999	"4"	8521.348276084	8514.231276664	1.5	0.1
0.01	1	0.172115889999986	1	51	158.514034289999	NA	1	0	1.65	1	136.64055809	136.81267398	"4"	8521.348276084	8514.231276664	1.5	0.1
0.01	1	0.1546971759999	1	51	158.514034289999	NA	1	0	1.65	1	137.041287528999	137.195984704999	"4"	8521.348276084	8514.231276664	1.5	0.1
0.01	1	0.155991335999715	1	51	158.514034289999	NA	1	0	1.65	1	137.42524342	137.581234756	"4"	8521.348276084	8514.231276664	1.5	0.1
0.01	1	0.180244102999495	1	51	158.514034289999	NA	1	0	1.65	1	137.80921092	137.989455022999	"4"	8521.348276084	8514.231276664	1.5	0.1
0.01	1	0.169993051999882	1	51	158.514034289999	NA	1	0	1.65	1	138.226558472999	138.396551524999	"4"	8521.348276084	8514.231276664	1.5	0.1
0.01	1	0.152241630999924	1	51	158.514034289999	NA	1	0	1.65	1	138.627277611999	138.779519242999	"4"	8521.348276084	8514.231276664	1.5	0.1
0.01	1	0.178387320999718	1	51	158.514034289999	NA	1	0	1.65	1	139.011275127	139.189662448	"4"	8521.348276084	8514.231276664	1.5	0.1
0.01	1	0.184319682000023	1	51	158.514034289999	NA	1	0	1.65	1	139.411868259999	139.596187941999	"4"	8521.348276084	8514.231276664	1.5	0.1
0.01	1	0.166960087000007	1	51	158.514034289999	NA	1	0	1.65	1	139.829296067	139.996256154	"4"	8521.348276084	8514.231276664	1.5	0.1
0.01	1	0.189969658999871	1	51	158.514034289999	NA	1	0	1.65	1	140.230010075	140.419979734	"4"	8521.348276084	8514.231276664	1.5	0.1
0.01	1	0.165872579999814	1	51	158.514034289999	NA	1	0	1.65	1	140.647329912	140.813202492	"4"	8521.348276084	8514.231276664	1.5	0.1
0.01	1	0.180960541999411	1	51	158.514034289999	NA	1	0	1.65	1	141.048064562	141.229025103999	"4"	8521.348276084	8514.231276664	1.5	0.1
0.01	1	0.186561448999782	1	51	158.514034289999	NA	1	0	1.65	1	141.46537355	141.651934998999	"4"	8521.348276084	8514.231276664	1.5	0.1
0.01	1	0.194322403000115	1	51	158.514034289999	NA	1	0	1.65	1	141.882800179999	142.077122582999	"4"	8521.348276084	8514.231276664	1.5	0.1
0.01	1	0.207531680000102	1	51	158.514034289999	NA	1	0	1.65	1	142.300104227	142.507635907	"4"	8521.348276084	8514.231276664	1.5	0.1
0.01	1	0.191182169999593	1	51	158.514034289999	NA	1	0	1.65	1	142.734234607	142.925416777	"4"	8521.348276084	8514.231276664	1.5	0.1
0.01	1	0.21979816899966	1	51	158.514034289999	NA	1	0	1.65	1	143.151674242	143.371472411	"4"	8521.348276084	8514.231276664	1.5	0.1
0.01	1	0.203237204000288	1	51	158.514034289999	NA	1	0	1.65	1	143.602274598999	143.805511803	"4"	8521.348276084	8514.231276664	1.5	0.1
0.01	1	0.256646597000326	1	51	158.514034289999	NA	1	0	1.65	1	144.036340969999	144.292987567	"4"	8521.348276084	8514.231276664	1.5	0.1
0.01	1	0.28388804000042	1	51	158.514034289999	NA	1	0	1.65	1	144.520515464999	144.804403505	"4"	8521.348276084	8514.231276664	1.5	0.1
0.01	1	0.255240728999524	1	51	158.514034289999	NA	1	0	1.65	1	145.038101505	145.293342233999	"4"	8521.348276084	8514.231276664	1.5	0.1
0.01	1	0.251063407999936	1	51	158.514034289999	NA	1	0	1.65	1	145.52219542	145.773258828	"4"	8521.348276084	8514.231276664	1.5	0.1
0.01	1	0.237728154999786	1	51	158.514034289999	NA	1	0	1.65	1	146.006291985	146.24402014	"4"	8521.348276084	8514.231276664	1.5	0.1
0.01	1	0.210080808000384	1	51	158.514034289999	NA	1	0	1.65	1	146.473756535	146.683837343	"4"	8521.348276084	8514.231276664	1.5	0.1
0.01	1	0.7774214760002	1	51	158.514034289999	NA	1	0	1.65	1	146.907896227	147.685317703	"4"	8521.348276084	8514.231276664	1.5	0.1
0.01	1	0.29321156900005	1	51	158.514034289999	NA	1	0	1.65	1	147.926292364999	148.219503933999	"4"	8521.348276084	8514.231276664	1.5	0.1
0.01	1	0.272817721000138	1	51	158.514034289999	NA	1	0	1.65	1	148.443757192	148.716574913	"4"	8521.348276084	8514.231276664	1.5	0.1
0.01	1	0.235005926999293	1	51	158.514034289999	NA	1	0	1.65	1	148.944627162	149.179633088999	"4"	8521.348276084	8514.231276664	1.5	0.1
0.01	1	0.248374960000547	1	51	158.514034289999	NA	1	0	1.65	1	149.412118904999	149.660493865	"4"	8521.348276084	8514.231276664	1.5	0.1
0.01	1	0.212144897999679	1	51	158.514034289999	NA	1	0	1.65	1	149.896179032	150.10832393	"4"	8521.348276084	8514.231276664	1.5	0.1
0.01	1	0.298644324999259	1	51	158.514034289999	NA	1	0	1.65	1	150.330264022	150.628908346999	"4"	8521.348276084	8514.231276664	1.5	0.1
0.01	1	0.291630155999883	1	51	158.514034289999	NA	1	0	1.65	1	150.864579337	151.156209493	"4"	8521.348276084	8514.231276664	1.5	0.1
0.01	1	0.3831482960004	1	51	158.514034289999	NA	1	0	1.65	1	151.381999525	151.765147821	"4"	8521.348276084	8514.231276664	1.5	0.1
0.01	1	0.349546971000564	1	51	158.514034289999	NA	1	0	1.65	1	151.999790444999	152.349337416	"4"	8521.348276084	8514.231276664	1.5	0.1
0.01	1	0.34862562500075	1	51	158.514034289999	NA	1	0	1.65	1	152.584063359999	152.932688985	"4"	8521.348276084	8514.231276664	1.5	0.1
0.01	1	0.531910692000565	1	51	158.514034289999	NA	1	0	1.65	1	153.168412792999	153.700323485	"4"	8521.348276084	8514.231276664	1.5	0.1
0.01	1	0.259742325000843	1	51	158.514034289999	NA	1	0	1.65	1	153.936304274999	154.1960466	"4"	8521.348276084	8514.231276664	1.5	0.1
0.01	1	0.271191544999965	1	51	158.514034289999	NA	1	0	1.65	1	154.420560322	154.691751867	"4"	8521.348276084	8514.231276664	1.5	0.1
0.01	1	0.258768446999966	1	51	158.514034289999	NA	1	0	1.65	1	154.921311055	155.180079502	"4"	8521.348276084	8514.231276664	1.5	0.1
0.01	1	0.239491629999975	1	51	158.514034289999	NA	1	0	1.65	1	155.405581264999	155.645072894999	"4"	8521.348276084	8514.231276664	1.5	0.1
0.01	1	0.265799251000317	1	51	158.514034289999	NA	1	0	1.65	1	155.873724051999	156.139523303	"4"	8521.348276084	8514.231276664	1.5	0.1
0.01	1	0.230276192000019	1	51	158.514034289999	NA	1	0	1.65	1	156.373740464999	156.604016656999	"4"	8521.348276084	8514.231276664	1.5	0.1
0.01	1	0.195372943000621	1	51	158.514034289999	NA	1	0	1.65	1	156.841295904999	157.036668848	"4"	8521.348276084	8514.231276664	1.5	0.1
0.01	1	0.177688191000016	1	51	158.514034289999	NA	1	0	1.65	1	157.275330044999	157.453018235999	"4"	8521.348276084	8514.231276664	1.5	0.1
0.01	1	0.265038260999972	1	51	158.514034289999	NA	1	0	1.65	1	157.675958389999	157.940996650999	"4"	8521.348276084	8514.231276664	1.5	0.1
0.01	1	0.219054838000375	1	51	158.514034289999	NA	1	0	1.65	1	158.176887307	158.395942145	"4"	8521.348276084	8514.231276664	1.5	0.1
0.01	1	0.623617687999285	1	116	NA	192.630710339	0	0.6	2.25	1	160.56416034	161.187778027999	"5"	8521.348276084	8514.231276664	1.5	0.1
0.01	1	0.213171557000351	1	116	NA	192.630710339	0	0.6	2.25	1	161.415575253	161.62874681	"5"	8521.348276084	8514.231276664	1.5	0.1
0.01	1	0.178987412999959	1	116	NA	192.630710339	0	0.6	2.25	1	161.866408661999	162.045396074999	"5"	8521.348276084	8514.231276664	1.5	0.1
0.01	1	0.168942620000053	1	116	NA	192.630710339	0	0.6	2.25	1	162.283776239999	162.45271886	"5"	8521.348276084	8514.231276664	1.5	0.1
0.01	1	0.168582205999883	1	116	NA	192.630710339	0	0.6	2.25	1	162.684375545	162.852957751	"5"	8521.348276084	8514.231276664	1.5	0.1
0.01	1	0.192023062000771	1	116	NA	192.630710339	0	0.6	2.25	1	163.085066510999	163.277089573	"5"	8521.348276084	8514.231276664	1.5	0.1
0.01	1	0.182134515000143	1	116	NA	192.630710339	0	0.6	2.25	1	163.50245794	163.684592455	"5"	8521.348276084	8514.231276664	1.5	0.1
0.01	1	0.196114483999736	1	116	NA	192.630710339	0	0.6	2.25	1	163.919875617	164.115990101	"5"	8521.348276084	8514.231276664	1.5	0.1
0.01	1	0.234629712999777	1	116	NA	192.630710339	0	0.6	2.25	1	164.353807375	164.588437087999	"5"	8521.348276084	8514.231276664	1.5	0.1
0.01	1	0.199564860999999	1	116	NA	192.630710339	0	0.6	2.25	1	164.821368409999	165.020933270999	"5"	8521.348276084	8514.231276664	1.5	0.1
0.01	1	0.468826657999671	1	116	NA	192.630710339	0	0.6	2.25	1	165.255368912	165.724195569999	"5"	8521.348276084	8514.231276664	1.5	0.1
0.01	1	0.158308940000097	1	116	NA	192.630710339	0	0.6	2.25	1	165.957224844999	166.115533785	"5"	8521.348276084	8514.231276664	1.5	0.1
0.01	1	0.199732009999934	1	116	NA	192.630710339	0	0.6	2.25	1	166.34052594	166.54025795	"5"	8521.348276084	8514.231276664	1.5	0.1
0.01	1	0.15866375799942	1	116	NA	192.630710339	0	0.6	2.25	1	166.774608422	166.933272179999	"5"	8521.348276084	8514.231276664	1.5	0.1
0.01	1	0.147758077999242	1	116	NA	192.630710339	0	0.6	2.25	1	167.160217265	167.307975342999	"5"	8521.348276084	8514.231276664	1.5	0.1
0.01	1	0.190921385000365	1	116	NA	192.630710339	0	0.6	2.25	1	167.542630495	167.73355188	"5"	8521.348276084	8514.231276664	1.5	0.1
0.01	1	0.1412020329999	1	116	NA	192.630710339	0	0.6	2.25	1	167.95994988	168.101151913	"5"	8521.348276084	8514.231276664	1.5	0.1
0.01	1	0.180842448000476	1	116	NA	192.630710339	0	0.6	2.25	1	168.327236444999	168.508078893	"5"	8521.348276084	8514.231276664	1.5	0.1
0.01	1	0.180341733000205	1	116	NA	192.630710339	0	0.6	2.25	1	168.744615262	168.924956995	"5"	8521.348276084	8514.231276664	1.5	0.1
0.01	1	0.187357431999772	1	116	NA	192.630710339	0	0.6	2.25	1	169.161962052	169.349319483999	"5"	8521.348276084	8514.231276664	1.5	0.1
0.01	1	0.465519096999742	1	116	NA	192.630710339	0	0.6	2.25	1	169.57926832	170.044787416999	"5"	8521.348276084	8514.231276664	1.5	0.1
0.01	1	0.162954673000058	1	116	NA	192.630710339	0	0.6	2.25	1	170.280531183	170.443485856	"5"	8521.348276084	8514.231276664	1.5	0.1
0.01	1	0.178951105999658	1	116	NA	192.630710339	0	0.6	2.25	1	170.681173282	170.860124387999	"5"	8521.348276084	8514.231276664	1.5	0.1
0.01	1	0.211210649999884	1	116	NA	192.630710339	0	0.6	2.25	1	171.0819013	171.29311195	"5"	8521.348276084	8514.231276664	1.5	0.1
0.01	1	0.175920595000207	1	116	NA	192.630710339	0	0.6	2.25	1	171.515936614999	171.691857209999	"5"	8521.348276084	8514.231276664	1.5	0.1
0.01	1	0.232022614999551	1	116	NA	192.630710339	0	0.6	2.25	1	171.916629542	172.148652157	"5"	8521.348276084	8514.231276664	1.5	0.1
0.01	1	0.204064603000006	1	116	NA	192.630710339	0	0.6	2.25	1	172.384014667	172.58807927	"5"	8521.348276084	8514.231276664	1.5	0.1
0.01	1	0.24243220399967	1	116	NA	192.630710339	0	0.6	2.25	1	172.818103955	173.060536159	"5"	8521.348276084	8514.231276664	1.5	0.1
0.01	1	0.222887275000176	1	116	NA	192.630710339	0	0.6	2.25	1	173.285573873	173.508461148	"5"	8521.348276084	8514.231276664	1.5	0.1
0.01	1	0.283808307999607	1	116	NA	192.630710339	0	0.6	2.25	1	173.736416395	174.020224702999	"5"	8521.348276084	8514.231276664	1.5	0.1
0.01	1	0.43913416399937	1	116	NA	192.630710339	0	0.6	2.25	1	174.25397111	174.693105273999	"5"	8521.348276084	8514.231276664	1.5	0.1
0.01	1	0.170144388999688	1	116	NA	192.630710339	0	0.6	2.25	1	174.921703002	175.091847391	"5"	8521.348276084	8514.231276664	1.5	0.1
0.01	1	0.226842371000203	1	116	NA	192.630710339	0	0.6	2.25	1	175.322302971999	175.549145343	"5"	8521.348276084	8514.231276664	1.5	0.1
0.01	1	0.416314281000268	1	116	NA	192.630710339	0	0.6	2.25	1	175.773049771999	176.189364053	"5"	8521.348276084	8514.231276664	1.5	0.1
0.01	1	0.267493740000646	1	116	NA	192.630710339	0	0.6	2.25	1	176.424208994999	176.691702735	"5"	8521.348276084	8514.231276664	1.5	0.1
0.01	1	0.303714889999355	1	116	NA	192.630710339	0	0.6	2.25	1	176.925063279	177.228778168999	"5"	8521.348276084	8514.231276664	1.5	0.1
0.01	1	0.257481269999516	1	116	NA	192.630710339	0	0.6	2.25	1	177.459243067	177.716724337	"5"	8521.348276084	8514.231276664	1.5	0.1
0.01	1	0.380461824000122	1	116	NA	192.630710339	0	0.6	2.25	1	177.943399461999	178.323861286	"5"	8521.348276084	8514.231276664	1.5	0.1
0.01	1	0.275862649999908	1	116	NA	192.630710339	0	0.6	2.25	1	178.561142232	178.837004882	"5"	8521.348276084	8514.231276664	1.5	0.1
0.01	1	0.246655330999602	1	116	NA	192.630710339	0	0.6	2.25	1	179.06194022	179.308595551	"5"	8521.348276084	8514.231276664	1.5	0.1
0.01	1	0.433699258000161	1	116	NA	192.630710339	0	0.6	2.25	1	179.546158198999	179.979857457	"5"	8521.348276084	8514.231276664	1.5	0.1
0.01	1	0.255034200000409	1	116	NA	192.630710339	0	0.6	2.25	1	180.213878379999	180.46891258	"5"	8521.348276084	8514.231276664	1.5	0.1
0.01	1	0.243190365999908	1	116	NA	192.630710339	0	0.6	2.25	1	180.698027044999	180.941217410999	"5"	8521.348276084	8514.231276664	1.5	0.1
0.01	1	0.342013692999899	1	116	NA	192.630710339	0	0.6	2.25	1	181.166388637999	181.508402330999	"5"	8521.348276084	8514.231276664	1.5	0.1
0.01	1	0.351998027000263	1	116	NA	192.630710339	0	0.6	2.25	1	181.733132509999	182.085130537	"5"	8521.348276084	8514.231276664	1.5	0.1
0.01	1	0.271488608000254	1	116	NA	192.630710339	0	0.6	2.25	1	182.317377527	182.588866135	"5"	8521.348276084	8514.231276664	1.5	0.1
0.01	1	0.242195785000149	1	116	NA	192.630710339	0	0.6	2.25	1	182.81828272	183.060478505	"5"	8521.348276084	8514.231276664	1.5	0.1
0.01	1	0.293968312999823	1	116	NA	192.630710339	0	0.6	2.25	1	183.285778598	183.579746910999	"5"	8521.348276084	8514.231276664	1.5	0.1
0.01	1	0.248945180000192	1	116	NA	192.630710339	0	0.6	2.25	1	183.803314665	184.052259845	"5"	8521.348276084	8514.231276664	1.5	0.1
0.01	1	0.30157015199984	1	116	NA	192.630710339	0	0.6	2.25	1	184.287400779	184.588970930999	"5"	8521.348276084	8514.231276664	1.5	0.1
0.01	1	0.710216898999533	1	116	NA	192.630710339	0	0.6	2.25	1	184.82251433	185.532731228999	"5"	8521.348276084	8514.231276664	1.5	0.1
0.01	1	0.278889035999782	1	116	NA	192.630710339	0	0.6	2.25	1	185.756593184999	186.035482220999	"5"	8521.348276084	8514.231276664	1.5	0.1
0.01	1	0.299377596999875	1	116	NA	192.630710339	0	0.6	2.25	1	186.27415381	186.573531407	"5"	8521.348276084	8514.231276664	1.5	0.1
0.01	1	0.3716551360003	1	116	NA	192.630710339	0	0.6	2.25	1	186.808308510999	187.179963647	"5"	8521.348276084	8514.231276664	1.5	0.1
0.01	1	0.364068568999755	1	116	NA	192.630710339	0	0.6	2.25	1	187.409296633999	187.773365202999	"5"	8521.348276084	8514.231276664	1.5	0.1
0.01	1	0.410465067999212	1	116	NA	192.630710339	0	0.6	2.25	1	188.010312675	188.420777742999	"5"	8521.348276084	8514.231276664	1.5	0.1
0.01	1	0.360390361999634	1	116	NA	192.630710339	0	0.6	2.25	1	188.644749972	189.005140333999	"5"	8521.348276084	8514.231276664	1.5	0.1
0.01	1	1.15136147300018	1	116	NA	192.630710339	0	0.6	2.25	1	189.245745908999	190.397107381999	"5"	8521.348276084	8514.231276664	1.5	0.1
0.01	1	0.365134539000792	1	116	NA	192.630710339	0	0.6	2.25	1	190.631585339999	190.996719879	"5"	8521.348276084	8514.231276664	1.5	0.1
0.01	1	0.362079538000216	1	116	NA	192.630710339	0	0.6	2.25	1	191.234075234999	191.596154772999	"5"	8521.348276084	8514.231276664	1.5	0.1
0.01	1	0.795818202999726	2	116	NA	192.630710339	0	0.6	2.25	1	191.833363442	192.629181644999	"5"	8521.348276084	8514.231276664	1.5	0.1
0.01	1	1.13998231799997	1	118	NA	230.541084961999	0	0.65	2.9	1	194.688199241999	195.828181559999	"6"	8521.348276084	8514.231276664	1.5	0.1
0.01	1	0.17918698899939	1	118	NA	230.541084961999	0	0.65	2.9	1	196.057236922	196.236423910999	"6"	8521.348276084	8514.231276664	1.5	0.1
0.01	1	0.146459857000082	1	118	NA	230.541084961999	0	0.65	2.9	1	196.47469192	196.621151777	"6"	8521.348276084	8514.231276664	1.5	0.1
0.01	1	0.161511613000584	1	118	NA	230.541084961999	0	0.65	2.9	1	196.858629429999	197.020141043	"6"	8521.348276084	8514.231276664	1.5	0.1
0.01	1	0.154248777000248	1	118	NA	230.541084961999	0	0.65	2.9	1	197.242645124999	197.396893902	"6"	8521.348276084	8514.231276664	1.5	0.1
0.01	1	0.147056644000259	1	118	NA	230.541084961999	0	0.65	2.9	1	197.626410008999	197.773466653	"6"	8521.348276084	8514.231276664	1.5	0.1
0.01	1	0.193703910000295	1	118	NA	230.541084961999	0	0.65	2.9	1	198.01044339	198.2041473	"6"	8521.348276084	8514.231276664	1.5	0.1
0.01	1	0.16884113299966	1	118	NA	230.541084961999	0	0.65	2.9	1	198.427963571999	198.596804704999	"6"	8521.348276084	8514.231276664	1.5	0.1
0.01	1	0.16076459299984	1	118	NA	230.541084961999	0	0.65	2.9	1	198.8285454	198.989309993	"6"	8521.348276084	8514.231276664	1.5	0.1
0.01	1	0.199356224999974	1	118	NA	230.541084961999	0	0.65	2.9	1	199.212518842	199.411875067	"6"	8521.348276084	8514.231276664	1.5	0.1
0.01	1	0.31027714800075	1	118	NA	230.541084961999	0	0.65	2.9	1	199.646589501999	199.95686665	"6"	8521.348276084	8514.231276664	1.5	0.1
0.01	1	0.176275607999742	1	118	NA	230.541084961999	0	0.65	2.9	1	200.180799584999	200.357075192999	"6"	8521.348276084	8514.231276664	1.5	0.1
0.01	1	0.214067663000606	1	118	NA	230.541084961999	0	0.65	2.9	1	200.581632949999	200.795700613	"6"	8521.348276084	8514.231276664	1.5	0.1
0.01	1	0.181138463999559	1	118	NA	230.541084961999	0	0.65	2.9	1	201.032251713	201.213390176999	"6"	8521.348276084	8514.231276664	1.5	0.1
0.01	1	0.21164871000019	1	118	NA	230.541084961999	0	0.65	2.9	1	201.449712215	201.661360925	"6"	8521.348276084	8514.231276664	1.5	0.1
0.01	1	0.192854712000553	1	118	NA	230.541084961999	0	0.65	2.9	1	201.883681400999	202.076536113	"6"	8521.348276084	8514.231276664	1.5	0.1
0.01	1	0.240321509999376	1	118	NA	230.541084961999	0	0.65	2.9	1	202.30109403	202.541415539999	"6"	8521.348276084	8514.231276664	1.5	0.1
0.01	1	0.203250922000734	1	118	NA	230.541084961999	0	0.65	2.9	1	202.768506832999	202.971757755	"6"	8521.348276084	8514.231276664	1.5	0.1
0.01	1	0.234445675000643	1	118	NA	230.541084961999	0	0.65	2.9	1	203.202531489999	203.436977165	"6"	8521.348276084	8514.231276664	1.5	0.1
0.01	1	0.197828262000257	1	118	NA	230.541084961999	0	0.65	2.9	1	203.670091675	203.867919937	"6"	8521.348276084	8514.231276664	1.5	0.1
0.01	1	0.308316100000411	1	118	NA	230.541084961999	0	0.65	2.9	1	204.104180564999	204.412496665	"6"	8521.348276084	8514.231276664	1.5	0.1
0.01	1	0.222086808000313	1	118	NA	230.541084961999	0	0.65	2.9	1	204.63836045	204.860447258	"6"	8521.348276084	8514.231276664	1.5	0.1
0.01	1	0.291662128000098	1	118	NA	230.541084961999	0	0.65	2.9	1	205.089021432999	205.380683560999	"6"	8521.348276084	8514.231276664	1.5	0.1
0.01	1	0.238965465000547	1	118	NA	230.541084961999	0	0.65	2.9	1	205.606597671999	205.845563137	"6"	8521.348276084	8514.231276664	1.5	0.1
0.01	1	0.250568921000195	1	118	NA	230.541084961999	0	0.65	2.9	1	206.074082341999	206.324651262999	"6"	8521.348276084	8514.231276664	1.5	0.1
0.01	1	0.270865733000392	1	118	NA	230.541084961999	0	0.65	2.9	1	206.558220706999	206.82908644	"6"	8521.348276084	8514.231276664	1.5	0.1
0.01	1	0.232636149999962	1	118	NA	230.541084961999	0	0.65	2.9	1	207.075856627	207.308492777	"6"	8521.348276084	8514.231276664	1.5	0.1
0.01	1	0.349415811000654	1	118	NA	230.541084961999	0	0.65	2.9	1	207.543146151999	207.892561963	"6"	8521.348276084	8514.231276664	1.5	0.1
0.01	1	0.229203351999786	1	118	NA	230.541084961999	0	0.65	2.9	1	208.127623245	208.356826597	"6"	8521.348276084	8514.231276664	1.5	0.1
0.01	1	0.266686925000613	1	118	NA	230.541084961999	0	0.65	2.9	1	208.578237559999	208.844924485	"6"	8521.348276084	8514.231276664	1.5	0.1
0.01	1	0.261592696000662	1	118	NA	230.541084961999	0	0.65	2.9	1	209.079237870999	209.340830567	"6"	8521.348276084	8514.231276664	1.5	0.1
0.01	1	0.233643563999976	1	118	NA	230.541084961999	0	0.65	2.9	1	209.56327823	209.796921794	"6"	8521.348276084	8514.231276664	1.5	0.1
0.01	1	0.262123325000175	1	118	NA	230.541084961999	0	0.65	2.9	1	210.030777661999	210.292900986999	"6"	8521.348276084	8514.231276664	1.5	0.1
0.01	1	0.346691960000499	1	118	NA	230.541084961999	0	0.65	2.9	1	210.514821067	210.861513027	"6"	8521.348276084	8514.231276664	1.5	0.1
0.01	1	0.24898078500064	1	118	NA	230.541084961999	0	0.65	2.9	1	211.099289899999	211.348270685	"6"	8521.348276084	8514.231276664	1.5	0.1
0.01	1	0.333728452999821	1	118	NA	230.541084961999	0	0.65	2.9	1	211.583332181	211.917060633999	"6"	8521.348276084	8514.231276664	1.5	0.1
0.01	1	0.318634672999906	1	118	NA	230.541084961999	0	0.65	2.9	1	212.150928489999	212.469563162999	"6"	8521.348276084	8514.231276664	1.5	0.1
0.01	1	0.310519681000187	1	118	NA	230.541084961999	0	0.65	2.9	1	212.70183561	213.012355291	"6"	8521.348276084	8514.231276664	1.5	0.1
0.01	1	0.256783741000618	1	118	NA	230.541084961999	0	0.65	2.9	1	213.236084814999	213.492868556	"6"	8521.348276084	8514.231276664	1.5	0.1
0.01	1	0.260099750000336	1	118	NA	230.541084961999	0	0.65	2.9	1	213.720249935	213.980349685	"6"	8521.348276084	8514.231276664	1.5	0.1
0.01	1	0.248647053000241	1	118	NA	230.541084961999	0	0.65	2.9	1	214.204428649999	214.453075703	"6"	8521.348276084	8514.231276664	1.5	0.1
0.01	1	0.276343850000558	1	118	NA	230.541084961999	0	0.65	2.9	1	214.688513509999	214.96485736	"6"	8521.348276084	8514.231276664	1.5	0.1
0.01	1	0.279822913000316	1	118	NA	230.541084961999	0	0.65	2.9	1	215.189462019999	215.469284932999	"6"	8521.348276084	8514.231276664	1.5	0.1
0.01	1	0.265190623999843	1	118	NA	230.541084961999	0	0.65	2.9	1	215.70702327	215.972213894	"6"	8521.348276084	8514.231276664	1.5	0.1
0.01	1	0.284232998000334	1	118	NA	230.541084961999	0	0.65	2.9	1	216.207827795	216.492060793	"6"	8521.348276084	8514.231276664	1.5	0.1
0.01	1	0.294449684000028	1	118	NA	230.541084961999	0	0.65	2.9	1	216.725414809	217.019864493	"6"	8521.348276084	8514.231276664	1.5	0.1
0.01	1	0.257751919999464	1	118	NA	230.541084961999	0	0.65	2.9	1	217.259592132	217.517344051999	"6"	8521.348276084	8514.231276664	1.5	0.1
0.01	1	0.276190393999968	1	118	NA	230.541084961999	0	0.65	2.9	1	217.743784009999	218.019974403999	"6"	8521.348276084	8514.231276664	1.5	0.1
0.01	1	0.303084240000317	1	118	NA	230.541084961999	0	0.65	2.9	1	218.244472762	218.547557002	"6"	8521.348276084	8514.231276664	1.5	0.1
0.01	1	0.322557371000585	1	118	NA	230.541084961999	0	0.65	2.9	1	218.778743921999	219.101301293	"6"	8521.348276084	8514.231276664	1.5	0.1
0.01	1	0.307488082000418	1	118	NA	230.541084961999	0	0.65	2.9	1	219.329675714999	219.637163797	"6"	8521.348276084	8514.231276664	1.5	0.1
0.01	1	0.323867185999916	1	118	NA	230.541084961999	0	0.65	2.9	1	219.863973187	220.187840373	"6"	8521.348276084	8514.231276664	1.5	0.1
0.01	1	0.301815934999468	1	118	NA	230.541084961999	0	0.65	2.9	1	220.41484392	220.716659854999	"6"	8521.348276084	8514.231276664	1.5	0.1
0.01	1	0.303606870999829	1	118	NA	230.541084961999	0	0.65	2.9	1	220.949168622	221.252775493	"6"	8521.348276084	8514.231276664	1.5	0.1
0.01	1	0.297754954000084	1	118	NA	230.541084961999	0	0.65	2.9	1	221.483316653	221.781071607	"6"	8521.348276084	8514.231276664	1.5	0.1
0.01	1	0.315212964000239	1	118	NA	230.541084961999	0	0.65	2.9	1	222.017591047	222.332804011	"6"	8521.348276084	8514.231276664	1.5	0.1
0.01	1	0.339871977999792	1	118	NA	230.541084961999	0	0.65	2.9	1	222.568471772	222.908343749999	"6"	8521.348276084	8514.231276664	1.5	0.1
0.01	1	0.341190283999822	1	118	NA	230.541084961999	0	0.65	2.9	1	223.136173907	223.477364191	"6"	8521.348276084	8514.231276664	1.5	0.1
0.01	1	0.403875882999273	1	118	NA	230.541084961999	0	0.65	2.9	1	223.703804373	224.107680255999	"6"	8521.348276084	8514.231276664	1.5	0.1
0.01	1	0.361830925000504	1	118	NA	230.541084961999	0	0.65	2.9	1	224.338147394999	224.69997832	"6"	8521.348276084	8514.231276664	1.5	0.1
0.01	1	2.13046442399991	1	118	NA	230.541084961999	0	0.65	2.9	1	224.9224586	227.052923024	"6"	8521.348276084	8514.231276664	1.5	0.1
0.01	1	0.288443874000222	1	118	NA	230.541084961999	0	0.65	2.9	1	227.276454528999	227.564898402999	"6"	8521.348276084	8514.231276664	1.5	0.1
0.01	1	0.321904315000211	1	118	NA	230.541084961999	0	0.65	2.9	1	227.794045459	228.115949774	"6"	8521.348276084	8514.231276664	1.5	0.1
0.01	1	0.347560471000179	1	118	NA	230.541084961999	0	0.65	2.9	1	228.344901531999	228.692462002999	"6"	8521.348276084	8514.231276664	1.5	0.1
0.01	1	0.3636087950008	1	118	NA	230.541084961999	0	0.65	2.9	1	228.929170754999	229.29277955	"6"	8521.348276084	8514.231276664	1.5	0.1
0.01	1	1.00935481800025	2	118	NA	230.541084961999	0	0.65	2.9	1	229.530195849999	230.539550668	"6"	8521.348276084	8514.231276664	1.5	0.1
0.01	1	1.09922242600078	1	87	NA	267.653420723999	0	0.65	3.55	1	232.585452826999	233.684675253	"7"	8521.348276084	8514.231276664	1.5	0.1
0.01	1	0.146873755000342	1	87	NA	267.653420723999	0	0.65	3.55	1	233.920890656999	234.067764412	"7"	8521.348276084	8514.231276664	1.5	0.1
0.01	1	0.171325348000209	1	87	NA	267.653420723999	0	0.65	3.55	1	234.304923084999	234.476248432999	"7"	8521.348276084	8514.231276664	1.5	0.1
0.01	1	0.147780865000641	1	87	NA	267.653420723999	0	0.65	3.55	1	234.705567288999	234.853348154	"7"	8521.348276084	8514.231276664	1.5	0.1
0.01	1	0.13988071499989	1	87	NA	267.653420723999	0	0.65	3.55	1	235.08947337	235.229354085	"7"	8521.348276084	8514.231276664	1.5	0.1
0.01	1	0.156439194999621	1	87	NA	267.653420723999	0	0.65	3.55	1	235.456791965	235.613231159999	"7"	8521.348276084	8514.231276664	1.5	0.1
0.01	1	0.163434080000116	1	87	NA	267.653420723999	0	0.65	3.55	1	235.840778352	236.004212432	"7"	8521.348276084	8514.231276664	1.5	0.1
0.01	1	0.139202067000042	1	87	NA	267.653420723999	0	0.65	3.55	1	236.241484231999	236.380686299	"7"	8521.348276084	8514.231276664	1.5	0.1
0.01	1	0.155135025999698	1	87	NA	267.653420723999	0	0.65	3.55	1	236.608864582	236.763999608	"7"	8521.348276084	8514.231276664	1.5	0.1
0.01	1	0.147078861999944	1	87	NA	267.653420723999	0	0.65	3.55	1	236.992730895	237.139809757	"7"	8521.348276084	8514.231276664	1.5	0.1
0.01	1	0.147585256000639	1	87	NA	267.653420723999	0	0.65	3.55	1	237.376752474999	237.524337731	"7"	8521.348276084	8514.231276664	1.5	0.1
0.01	1	0.132165048000388	1	87	NA	267.653420723999	0	0.65	3.55	1	237.760640351999	237.8928054	"7"	8521.348276084	8514.231276664	1.5	0.1
0.01	1	0.181214242999886	1	87	NA	267.653420723999	0	0.65	3.55	1	238.127975099999	238.309189342999	"7"	8521.348276084	8514.231276664	1.5	0.1
0.01	1	0.17193665800005	1	87	NA	267.653420723999	0	0.65	3.55	1	238.545376061	238.717312719	"7"	8521.348276084	8514.231276664	1.5	0.1
0.01	1	0.178222384000037	1	87	NA	267.653420723999	0	0.65	3.55	1	238.946166313	239.124388697	"7"	8521.348276084	8514.231276664	1.5	0.1
0.01	1	0.210272286999498	1	87	NA	267.653420723999	0	0.65	3.55	1	239.34667679	239.556949076999	"7"	8521.348276084	8514.231276664	1.5	0.1
0.01	1	0.168618167999739	1	87	NA	267.653420723999	0	0.65	3.55	1	239.780730087	239.949348255	"7"	8521.348276084	8514.231276664	1.5	0.1
0.01	1	0.200142515999687	1	87	NA	267.653420723999	0	0.65	3.55	1	240.181509245	240.381651760999	"7"	8521.348276084	8514.231276664	1.5	0.1
0.01	1	0.205828811999709	1	87	NA	267.653420723999	0	0.65	3.55	1	240.615505342	240.821334153999	"7"	8521.348276084	8514.231276664	1.5	0.1
0.01	1	0.193782152000495	1	87	NA	267.653420723999	0	0.65	3.55	1	241.049749755	241.243531907	"7"	8521.348276084	8514.231276664	1.5	0.1
0.01	1	0.258260775000053	1	87	NA	267.653420723999	0	0.65	3.55	1	241.466950817	241.725211592	"7"	8521.348276084	8514.231276664	1.5	0.1
0.01	1	0.197156306000579	1	87	NA	267.653420723999	0	0.65	3.55	1	241.951054749999	242.148211056	"7"	8521.348276084	8514.231276664	1.5	0.1
0.01	1	0.226326415000585	1	87	NA	267.653420723999	0	0.65	3.55	1	242.385153841999	242.611480257	"7"	8521.348276084	8514.231276664	1.5	0.1
0.01	1	0.264038059999621	1	87	NA	267.653420723999	0	0.65	3.55	1	242.835903853	243.099941912999	"7"	8521.348276084	8514.231276664	1.5	0.1
0.01	1	0.252396761000455	1	87	NA	267.653420723999	0	0.65	3.55	1	243.336730491999	243.589127253	"7"	8521.348276084	8514.231276664	1.5	0.1
0.01	1	0.295506261999435	1	87	NA	267.653420723999	0	0.65	3.55	1	243.82092614	244.116432401999	"7"	8521.348276084	8514.231276664	1.5	0.1
0.01	1	0.192510980999941	1	87	NA	267.653420723999	0	0.65	3.55	1	244.355088081999	244.547599062999	"7"	8521.348276084	8514.231276664	1.5	0.1
0.01	1	0.272504298000058	1	87	NA	267.653420723999	0	0.65	3.55	1	244.772515035	245.045019333	"7"	8521.348276084	8514.231276664	1.5	0.1
0.01	1	0.24335762300052	1	87	NA	267.653420723999	0	0.65	3.55	1	245.273374959999	245.516732583	"7"	8521.348276084	8514.231276664	1.5	0.1
0.01	1	0.831099063999318	1	87	NA	267.653420723999	0	0.65	3.55	1	245.74082671	246.571925773999	"7"	8521.348276084	8514.231276664	1.5	0.1
0.01	1	0.227564574999633	1	87	NA	267.653420723999	0	0.65	3.55	1	246.809358373	247.036922947999	"7"	8521.348276084	8514.231276664	1.5	0.1
0.01	1	0.233386912000242	1	87	NA	267.653420723999	0	0.65	3.55	1	247.26002473	247.493411642	"7"	8521.348276084	8514.231276664	1.5	0.1
0.01	1	0.244061977000456	1	87	NA	267.653420723999	0	0.65	3.55	1	247.727498009999	247.971559987	"7"	8521.348276084	8514.231276664	1.5	0.1
0.01	1	0.257722639000349	1	87	NA	267.653420723999	0	0.65	3.55	1	248.211642374999	248.469365014	"7"	8521.348276084	8514.231276664	1.5	0.1
0.01	1	0.285383970000112	1	87	NA	267.653420723999	0	0.65	3.55	1	248.695752494999	248.981136465	"7"	8521.348276084	8514.231276664	1.5	0.1
0.01	1	0.335209538000527	1	87	NA	267.653420723999	0	0.65	3.55	1	249.213320444999	249.548529983	"7"	8521.348276084	8514.231276664	1.5	0.1
0.01	1	0.294622703000641	1	87	NA	267.653420723999	0	0.65	3.55	1	249.781017564999	250.075640268	"7"	8521.348276084	8514.231276664	1.5	0.1
0.01	1	0.257450367000274	1	87	NA	267.653420723999	0	0.65	3.55	1	250.298476999999	250.555927367	"7"	8521.348276084	8514.231276664	1.5	0.1
0.01	1	0.262401539999701	1	87	NA	267.653420723999	0	0.65	3.55	1	250.78278102	251.045182559999	"7"	8521.348276084	8514.231276664	1.5	0.1
0.01	1	0.255086692000077	1	87	NA	267.653420723999	0	0.65	3.55	1	251.286157611	251.541244303	"7"	8521.348276084	8514.231276664	1.5	0.1
0.01	1	0.307667256000059	1	87	NA	267.653420723999	0	0.65	3.55	1	251.784261588999	252.091928845	"7"	8521.348276084	8514.231276664	1.5	0.1
0.01	1	0.294083689999752	1	87	NA	267.653420723999	0	0.65	3.55	1	252.318548922	252.612632611999	"7"	8521.348276084	8514.231276664	1.5	0.1
0.01	1	0.280962591000389	1	87	NA	267.653420723999	0	0.65	3.55	1	252.836103971999	253.117066563	"7"	8521.348276084	8514.231276664	1.5	0.1
0.01	1	0.290580847999991	1	87	NA	267.653420723999	0	0.65	3.55	1	253.353635244999	253.644216092999	"7"	8521.348276084	8514.231276664	1.5	0.1
0.01	1	0.284270283999831	1	87	NA	267.653420723999	0	0.65	3.55	1	253.87128967	254.155559954	"7"	8521.348276084	8514.231276664	1.5	0.1
0.01	1	0.295969726000294	1	87	NA	267.653420723999	0	0.65	3.55	1	254.388662560999	254.684632287	"7"	8521.348276084	8514.231276664	1.5	0.1
0.01	1	0.258277931000521	1	87	NA	267.653420723999	0	0.65	3.55	1	254.923024371999	255.181302303	"7"	8521.348276084	8514.231276664	1.5	0.1
0.01	1	0.340678076000586	1	87	NA	267.653420723999	0	0.65	3.55	1	255.407127074999	255.747805151	"7"	8521.348276084	8514.231276664	1.5	0.1
0.01	1	0.238478592999854	1	87	NA	267.653420723999	0	0.65	3.55	1	255.974757309999	256.213235902999	"7"	8521.348276084	8514.231276664	1.5	0.1
0.01	1	0.306981927999914	1	87	NA	267.653420723999	0	0.65	3.55	1	256.44220762	256.749189548	"7"	8521.348276084	8514.231276664	1.5	0.1
0.01	1	0.291511462000017	1	87	NA	267.653420723999	0	0.65	3.55	1	256.97641788	257.267929342	"7"	8521.348276084	8514.231276664	1.5	0.1
0.01	1	0.310964517999309	1	87	NA	267.653420723999	0	0.65	3.55	1	257.493958833	257.804923350999	"7"	8521.348276084	8514.231276664	1.5	0.1
0.01	1	0.343660248999186	1	87	NA	267.653420723999	0	0.65	3.55	1	258.028105159	258.371765407999	"7"	8521.348276084	8514.231276664	1.5	0.1
0.01	1	0.40956352000012	1	87	NA	267.653420723999	0	0.65	3.55	1	258.595788639999	259.005352159999	"7"	8521.348276084	8514.231276664	1.5	0.1
0.01	1	0.334159999999429	1	87	NA	267.653420723999	0	0.65	3.55	1	259.230137785	259.564297784999	"7"	8521.348276084	8514.231276664	1.5	0.1
0.01	1	0.341131975999815	1	87	NA	267.653420723999	0	0.65	3.55	1	259.798636023	260.139767999	"7"	8521.348276084	8514.231276664	1.5	0.1
0.01	1	0.310694777999743	1	87	NA	267.653420723999	0	0.65	3.55	1	260.365383935	260.676078713	"7"	8521.348276084	8514.231276664	1.5	0.1
0.01	1	0.377410439000414	1	87	NA	267.653420723999	0	0.65	3.55	1	260.89959142	261.277001859	"7"	8521.348276084	8514.231276664	1.5	0.1
0.01	1	0.655095523000455	1	87	NA	267.653420723999	0	0.65	3.55	1	261.500584879999	262.155680403	"7"	8521.348276084	8514.231276664	1.5	0.1
0.01	1	0.922930648999682	1	87	NA	267.653420723999	0	0.65	3.55	1	262.385488655	263.308419303999	"7"	8521.348276084	8514.231276664	1.5	0.1
0.01	1	0.450398526999379	1	87	NA	267.653420723999	0	0.65	3.55	1	263.537394555	263.987793081999	"7"	8521.348276084	8514.231276664	1.5	0.1
0.01	1	0.334312573000716	1	87	NA	267.653420723999	0	0.65	3.55	1	264.221865549999	264.556178123	"7"	8521.348276084	8514.231276664	1.5	0.1
0.01	1	0.30193954599963	1	87	NA	267.653420723999	0	0.65	3.55	1	264.789669547	265.091609093	"7"	8521.348276084	8514.231276664	1.5	0.1
0.01	1	0.377079053999296	1	87	NA	267.653420723999	0	0.65	3.55	1	265.32381652	265.700895573999	"7"	8521.348276084	8514.231276664	1.5	0.1
0.01	1	0.37570922300074	1	87	NA	267.653420723999	0	0.65	3.55	1	265.924734224999	266.300443448	"7"	8521.348276084	8514.231276664	1.5	0.1
0.01	1	1.12612594799975	2	87	NA	267.653420723999	0	0.65	3.55	1	266.525764395	267.651890343	"7"	8521.348276084	8514.231276664	1.5	0.1
0.01	1	0.458929190999697	1	6	272.121857305	NA	1	0	3.55	1	269.69784817	270.156777361	"8"	8521.348276084	8514.231276664	1.5	0.1
0.01	1	0.141677405999872	1	6	272.121857305	NA	1	0	3.55	1	270.38231077	270.523988176	"8"	8521.348276084	8514.231276664	1.5	0.1
0.01	1	0.13439746199947	1	6	272.121857305	NA	1	0	3.55	1	270.749517169	270.883914630999	"8"	8521.348276084	8514.231276664	1.5	0.1
0.01	1	0.118863876999967	1	6	272.121857305	NA	1	0	3.55	1	271.11681343	271.235677307	"8"	8521.348276084	8514.231276664	1.5	0.1
0.01	1	0.161591867000425	1	6	272.121857305	NA	1	0	3.55	1	271.467563095	271.629154962	"8"	8521.348276084	8514.231276664	1.5	0.1
0.01	1	0.161060868000277	1	6	272.121857305	NA	1	0	3.55	1	271.851413832	272.0124747	"8"	8521.348276084	8514.231276664	1.5	0.1
0.01	1	0.458224027000142	1	106	NA	314.48716334	0	0.7	4.25	1	274.155260971999	274.613484998999	"9"	8521.348276084	8514.231276664	1.5	0.1
0.01	1	0.163697807000062	1	106	NA	314.48716334	0	0.7	4.25	1	274.839809786999	275.003507594	"9"	8521.348276084	8514.231276664	1.5	0.1
0.01	1	0.132143570000153	1	106	NA	314.48716334	0	0.7	4.25	1	275.240361181	275.372504751	"9"	8521.348276084	8514.231276664	1.5	0.1
0.01	1	0.133315444999425	1	106	NA	314.48716334	0	0.7	4.25	1	275.607691675	275.741007119999	"9"	8521.348276084	8514.231276664	1.5	0.1
0.01	1	0.134751464999681	1	106	NA	314.48716334	0	0.7	4.25	1	275.974932571999	276.109684036999	"9"	8521.348276084	8514.231276664	1.5	0.1
0.01	1	0.175022864999846	1	106	NA	314.48716334	0	0.7	4.25	1	276.34231184	276.517334704999	"9"	8521.348276084	8514.231276664	1.5	0.1
0.01	1	0.149378809999689	1	106	NA	314.48716334	0	0.7	4.25	1	276.742946707	276.892325516999	"9"	8521.348276084	8514.231276664	1.5	0.1
0.01	1	0.125153746000251	1	106	NA	314.48716334	0	0.7	4.25	1	277.126933766999	277.252087512999	"9"	8521.348276084	8514.231276664	1.5	0.1
0.01	1	0.182946324999648	1	106	NA	314.48716334	0	0.7	4.25	1	277.4942934	277.677239725	"9"	8521.348276084	8514.231276664	1.5	0.1
0.01	1	0.124111697000444	1	106	NA	314.48716334	0	0.7	4.25	1	277.911553686999	278.035665384	"9"	8521.348276084	8514.231276664	1.5	0.1
0.01	1	0.182550308999453	1	106	NA	314.48716334	0	0.7	4.25	1	278.262121707	278.444672015999	"9"	8521.348276084	8514.231276664	1.5	0.1
0.01	1	0.117790686999797	1	106	NA	314.48716334	0	0.7	4.25	1	278.679600177999	278.797390864999	"9"	8521.348276084	8514.231276664	1.5	0.1
0.01	1	0.198895491000258	1	106	NA	314.48716334	0	0.7	4.25	1	279.030179652	279.229075143	"9"	8521.348276084	8514.231276664	1.5	0.1
0.01	1	0.164403144000062	1	106	NA	314.48716334	0	0.7	4.25	1	279.464292057	279.628695201	"9"	8521.348276084	8514.231276664	1.5	0.1
0.01	1	0.140504816999965	1	106	NA	314.48716334	0	0.7	4.25	1	279.86484908	280.005353897	"9"	8521.348276084	8514.231276664	1.5	0.1
0.01	1	0.165240457999971	1	106	NA	314.48716334	0	0.7	4.25	1	280.232115029999	280.397355487999	"9"	8521.348276084	8514.231276664	1.5	0.1
0.01	1	0.188328817000183	1	106	NA	314.48716334	0	0.7	4.25	1	280.632899032999	280.82122785	"9"	8521.348276084	8514.231276664	1.5	0.1
0.01	1	0.186027018000459	1	106	NA	314.48716334	0	0.7	4.25	1	281.050418845	281.236445863	"9"	8521.348276084	8514.231276664	1.5	0.1
0.01	1	0.200725044000137	1	106	NA	314.48716334	0	0.7	4.25	1	281.467680819999	281.668405863999	"9"	8521.348276084	8514.231276664	1.5	0.1
0.01	1	0.158342988999721	1	106	NA	314.48716334	0	0.7	4.25	1	281.901631221	282.059974209999	"9"	8521.348276084	8514.231276664	1.5	0.1
0.01	1	0.191217006999977	1	106	NA	314.48716334	0	0.7	4.25	1	282.285683292	282.476900299	"9"	8521.348276084	8514.231276664	1.5	0.1
0.01	1	0.229016840999975	1	106	NA	314.48716334	0	0.7	4.25	1	282.703055999999	282.932072840999	"9"	8521.348276084	8514.231276664	1.5	0.1
0.01	1	0.218616101000407	1	106	NA	314.48716334	0	0.7	4.25	1	283.170492351999	283.389108453	"9"	8521.348276084	8514.231276664	1.5	0.1
0.01	1	0.230771309999909	1	106	NA	314.48716334	0	0.7	4.25	1	283.621234521	283.852005831	"9"	8521.348276084	8514.231276664	1.5	0.1
0.01	1	0.220603386000221	1	106	NA	314.48716334	0	0.7	4.25	1	284.088690916999	284.309294303	"9"	8521.348276084	8514.231276664	1.5	0.1
0.01	1	0.240790133000701	1	106	NA	314.48716334	0	0.7	4.25	1	284.539493611999	284.780283745	"9"	8521.348276084	8514.231276664	1.5	0.1
0.01	1	0.245631222999691	1	106	NA	314.48716334	0	0.7	4.25	1	285.006880362	285.252511584999	"9"	8521.348276084	8514.231276664	1.5	0.1
0.01	1	0.20847739600049	1	106	NA	314.48716334	0	0.7	4.25	1	285.491004772	285.699482168	"9"	8521.348276084	8514.231276664	1.5	0.1
0.01	1	0.28779438499987	1	106	NA	314.48716334	0	0.7	4.25	1	285.925062382	286.212856767	"9"	8521.348276084	8514.231276664	1.5	0.1
0.01	1	0.76952519400038	1	106	NA	314.48716334	0	0.7	4.25	1	286.442580481999	287.212105676	"9"	8521.348276084	8514.231276664	1.5	0.1
0.01	1	0.175730812000438	1	106	NA	314.48716334	0	0.7	4.25	1	287.444191826999	287.619922639	"9"	8521.348276084	8514.231276664	1.5	0.1
0.01	1	0.247160636999979	1	106	NA	314.48716334	0	0.7	4.25	1	287.845079864999	288.092240501999	"9"	8521.348276084	8514.231276664	1.5	0.1
0.01	1	0.259211419000167	1	106	NA	314.48716334	0	0.7	4.25	1	288.329209975	288.588421394	"9"	8521.348276084	8514.231276664	1.5	0.1
0.01	1	0.2719376189998	1	106	NA	314.48716334	0	0.7	4.25	1	288.813336877	289.085274495999	"9"	8521.348276084	8514.231276664	1.5	0.1
0.01	1	0.235028891999718	1	106	NA	314.48716334	0	0.7	4.25	1	289.314085972	289.549114863999	"9"	8521.348276084	8514.231276664	1.5	0.1
0.01	1	0.26222311499987	1	106	NA	314.48716334	0	0.7	4.25	1	289.781709694999	290.043932809999	"9"	8521.348276084	8514.231276664	1.5	0.1
0.01	1	0.266355739999199	1	106	NA	314.48716334	0	0.7	4.25	1	290.282487163	290.548842902999	"9"	8521.348276084	8514.231276664	1.5	0.1
0.01	1	0.276931841999613	1	106	NA	314.48716334	0	0.7	4.25	1	290.783236667	291.060168509	"9"	8521.348276084	8514.231276664	1.5	0.1
0.01	1	0.249167404000218	1	106	NA	314.48716334	0	0.7	4.25	1	291.28410553	291.533272934	"9"	8521.348276084	8514.231276664	1.5	0.1
0.01	1	1.11626458499995	1	106	NA	314.48716334	0	0.7	4.25	1	291.768251635	292.88451622	"9"	8521.348276084	8514.231276664	1.5	0.1
0.01	1	0.291154456000186	1	106	NA	314.48716334	0	0.7	4.25	1	293.120511095	293.411665551	"9"	8521.348276084	8514.231276664	1.5	0.1
0.01	1	0.262053667000146	1	106	NA	314.48716334	0	0.7	4.25	1	293.638103142999	293.900156809999	"9"	8521.348276084	8514.231276664	1.5	0.1
0.01	1	0.314682453999922	1	106	NA	314.48716334	0	0.7	4.25	1	294.138888251	294.453570705	"9"	8521.348276084	8514.231276664	1.5	0.1
0.01	1	0.299591187999795	1	106	NA	314.48716334	0	0.7	4.25	1	294.689802942999	294.989394130999	"9"	8521.348276084	8514.231276664	1.5	0.1
0.01	1	0.316862742000012	1	106	NA	314.48716334	0	0.7	4.25	1	295.223997362	295.540860104	"9"	8521.348276084	8514.231276664	1.5	0.1
0.01	1	0.300913788999424	1	106	NA	314.48716334	0	0.7	4.25	1	295.774965025	296.075878813999	"9"	8521.348276084	8514.231276664	1.5	0.1
0.01	1	0.343156735000775	1	106	NA	314.48716334	0	0.7	4.25	1	296.309164744999	296.65232148	"9"	8521.348276084	8514.231276664	1.5	0.1
0.01	1	0.304551862000153	1	106	NA	314.48716334	0	0.7	4.25	1	296.876807915	297.181359777	"9"	8521.348276084	8514.231276664	1.5	0.1
0.01	1	0.289250015000107	1	106	NA	314.48716334	0	0.7	4.25	1	297.411118309999	297.700368325	"9"	8521.348276084	8514.231276664	1.5	0.1
0.01	1	0.339859233000425	1	106	NA	314.48716334	0	0.7	4.25	1	297.928691931999	298.268551165	"9"	8521.348276084	8514.231276664	1.5	0.1
0.01	1	0.292433124000127	1	106	NA	314.48716334	0	0.7	4.25	1	298.496174139999	298.788607263999	"9"	8521.348276084	8514.231276664	1.5	0.1
0.01	1	0.334202357999857	1	106	NA	314.48716334	0	0.7	4.25	1	299.013751273	299.347953631	"9"	8521.348276084	8514.231276664	1.5	0.1
0.01	1	0.342374673999984	1	106	NA	314.48716334	0	0.7	4.25	1	299.581378774999	299.923753448999	"9"	8521.348276084	8514.231276664	1.5	0.1
0.01	1	0.398968055999831	1	106	NA	314.48716334	0	0.7	4.25	1	300.148942135	300.547910191	"9"	8521.348276084	8514.231276664	1.5	0.1
0.01	1	0.268816437000169	1	106	NA	314.48716334	0	0.7	4.25	1	300.783363985	301.052180422	"9"	8521.348276084	8514.231276664	1.5	0.1
0.01	1	0.359648012000434	1	106	NA	314.48716334	0	0.7	4.25	1	301.284248935	301.643896947	"9"	8521.348276084	8514.231276664	1.5	0.1
0.01	1	0.344076518999827	1	106	NA	314.48716334	0	0.7	4.25	1	301.868591689999	302.212668208999	"9"	8521.348276084	8514.231276664	1.5	0.1
0.01	1	0.777035805999731	1	106	NA	314.48716334	0	0.7	4.25	1	302.436192227	303.213228033	"9"	8521.348276084	8514.231276664	1.5	0.1
0.01	1	0.479506056999526	1	106	NA	314.48716334	0	0.7	4.25	1	303.43791559	303.917421646999	"9"	8521.348276084	8514.231276664	1.5	0.1
0.01	1	0.345063765999839	1	106	NA	314.48716334	0	0.7	4.25	1	304.138947077	304.484010843	"9"	8521.348276084	8514.231276664	1.5	0.1
0.01	1	0.72036313299941	1	106	NA	314.48716334	0	0.7	4.25	1	304.707459452	305.427822584999	"9"	8521.348276084	8514.231276664	1.5	0.1
0.01	1	0.35339578499952	1	106	NA	314.48716334	0	0.7	4.25	1	305.658283162	306.011678946999	"9"	8521.348276084	8514.231276664	1.5	0.1
0.01	1	0.393849133000003	1	106	NA	314.48716334	0	0.7	4.25	1	306.242667220999	306.636516353999	"9"	8521.348276084	8514.231276664	1.5	0.1
0.01	1	0.416055699000026	1	106	NA	314.48716334	0	0.7	4.25	1	306.860270055	307.276325754	"9"	8521.348276084	8514.231276664	1.5	0.1
0.01	1	0.405961841000135	1	106	NA	314.48716334	0	0.7	4.25	1	307.511426227	307.917388068	"9"	8521.348276084	8514.231276664	1.5	0.1
0.01	1	1.37838762400042	1	106	NA	314.48716334	0	0.7	4.25	1	308.145852604999	309.524240229	"9"	8521.348276084	8514.231276664	1.5	0.1
0.01	1	0.422874075000436	1	106	NA	314.48716334	0	0.7	4.25	1	309.748645940999	310.171520016	"9"	8521.348276084	8514.231276664	1.5	0.1
0.01	1	0.885673185999622	1	106	NA	314.48716334	0	0.7	4.25	1	310.399582833	311.285256018999	"9"	8521.348276084	8514.231276664	1.5	0.1
0.01	1	0.461516152999138	1	106	NA	314.48716334	0	0.7	4.25	1	311.51823547	311.979751622999	"9"	8521.348276084	8514.231276664	1.5	0.1
0.01	1	0.848083814999882	1	106	NA	314.48716334	0	0.7	4.25	1	312.203510339999	313.051594154999	"9"	8521.348276084	8514.231276664	1.5	0.1
0.01	1	1.19776554200052	2	106	NA	314.48716334	0	0.7	4.25	1	313.287831604999	314.485597147	"9"	8521.348276084	8514.231276664	1.5	0.1
0.01	1	0.614633807000246	1	21	325.745259709	NA	1	0	4.25	1	316.526514454999	317.141148262	"10"	8521.348276084	8514.231276664	1.5	0.1
0.01	1	0.154108151000401	1	21	325.745259709	NA	1	0	4.25	1	317.379378569	317.53348672	"10"	8521.348276084	8514.231276664	1.5	0.1
0.01	1	0.178712592000011	1	21	325.745259709	NA	1	0	4.25	1	317.761939409999	317.940652001999	"10"	8521.348276084	8514.231276664	1.5	0.1
0.01	1	0.145523762999801	1	21	325.745259709	NA	1	0	4.25	1	318.162608287	318.30813205	"10"	8521.348276084	8514.231276664	1.5	0.1
0.01	1	0.130328387999725	1	21	325.745259709	NA	1	0	4.25	1	318.529870652	318.660199039999	"10"	8521.348276084	8514.231276664	1.5	0.1
0.01	1	0.0992587060000005	1	21	325.745259709	NA	1	0	4.25	1	318.897148315	318.996407021	"10"	8521.348276084	8514.231276664	1.5	0.1
0.01	1	0.149195947000408	1	21	325.745259709	NA	1	0	4.25	1	319.231075864999	319.380271812	"10"	8521.348276084	8514.231276664	1.5	0.1
0.01	1	0.141581984000368	1	21	325.745259709	NA	1	0	4.25	1	319.615158502999	319.756740487	"10"	8521.348276084	8514.231276664	1.5	0.1
0.01	1	0.166648343999441	1	21	325.745259709	NA	1	0	4.25	1	319.98241687	320.149065213999	"10"	8521.348276084	8514.231276664	1.5	0.1
0.01	1	0.134058278000339	1	21	325.745259709	NA	1	0	4.25	1	320.383076589999	320.517134868	"10"	8521.348276084	8514.231276664	1.5	0.1
0.01	1	0.173839938000128	1	21	325.745259709	NA	1	0	4.25	1	320.750367152	320.92420709	"10"	8521.348276084	8514.231276664	1.5	0.1
0.01	1	0.190224735999436	1	21	325.745259709	NA	1	0	4.25	1	321.151046729	321.341271464999	"10"	8521.348276084	8514.231276664	1.5	0.1
0.01	1	0.228619403000266	1	21	325.745259709	NA	1	0	4.25	1	321.568318486999	321.79693789	"10"	8521.348276084	8514.231276664	1.5	0.1
0.01	1	0.234032520000255	1	21	325.745259709	NA	1	0	4.25	1	322.01913423	322.25316675	"10"	8521.348276084	8514.231276664	1.5	0.1
0.01	1	0.182922052000322	1	21	325.745259709	NA	1	0	4.25	1	322.486614682	322.669536734	"10"	8521.348276084	8514.231276664	1.5	0.1
0.01	1	0.261718812999788	1	21	325.745259709	NA	1	0	4.25	1	322.903882789	323.165601602	"10"	8521.348276084	8514.231276664	1.5	0.1
0.01	1	0.280606772999818	1	21	325.745259709	NA	1	0	4.25	1	323.38805238	323.668659153	"10"	8521.348276084	8514.231276664	1.5	0.1
0.01	1	0.250839878000079	1	21	325.745259709	NA	1	0	4.25	1	323.905634729999	324.156474607999	"10"	8521.348276084	8514.231276664	1.5	0.1
0.01	1	0.293872934000319	1	21	325.745259709	NA	1	0	4.25	1	324.389787679999	324.683660614	"10"	8521.348276084	8514.231276664	1.5	0.1
0.01	1	0.257049190000544	1	21	325.745259709	NA	1	0	4.25	1	324.907242759999	325.16429195	"10"	8521.348276084	8514.231276664	1.5	0.1
0.01	1	0.237261815999773	1	21	325.745259709	NA	1	0	4.25	1	325.391568864999	325.628830680999	"10"	8521.348276084	8514.231276664	1.5	0.1
0.01	1	0.376139472000432	1	19	336.078646382	NA	1	0	4.25	1	327.795509424999	328.171648897	"11"	8521.348276084	8514.231276664	1.5	0.1
0.01	1	0.191902807000588	1	19	336.078646382	NA	1	0	4.25	1	328.396573499999	328.588476307	"11"	8521.348276084	8514.231276664	1.5	0.1
0.01	1	0.181675705000089	1	19	336.078646382	NA	1	0	4.25	1	328.813917285	328.99559299	"11"	8521.348276084	8514.231276664	1.5	0.1
0.01	1	0.150065449000067	1	19	336.078646382	NA	1	0	4.25	1	329.231307049999	329.381372499	"11"	8521.348276084	8514.231276664	1.5	0.1
0.01	1	0.165566110000327	1	19	336.078646382	NA	1	0	4.25	1	329.615346238999	329.780912349	"11"	8521.348276084	8514.231276664	1.5	0.1
0.01	1	0.165612770000735	1	19	336.078646382	NA	1	0	4.25	1	330.015863809999	330.18147658	"11"	8521.348276084	8514.231276664	1.5	0.1
0.01	1	0.179011604999687	1	19	336.078646382	NA	1	0	4.25	1	330.416544752	330.595556357	"11"	8521.348276084	8514.231276664	1.5	0.1
0.01	1	0.179497854000147	1	19	336.078646382	NA	1	0	4.25	1	330.833967844999	331.013465698999	"11"	8521.348276084	8514.231276664	1.5	0.1
0.01	1	0.209015003999411	1	19	336.078646382	NA	1	0	4.25	1	331.251351092	331.460366095999	"11"	8521.348276084	8514.231276664	1.5	0.1
0.01	1	0.167027434999909	1	19	336.078646382	NA	1	0	4.25	1	331.685438994999	331.852466429999	"11"	8521.348276084	8514.231276664	1.5	0.1
0.01	1	0.19054198699996	1	19	336.078646382	NA	1	0	4.25	1	332.086054294999	332.276596281999	"11"	8521.348276084	8514.231276664	1.5	0.1
0.01	1	0.19799528600015	1	19	336.078646382	NA	1	0	4.25	1	332.503469501999	332.701464788	"11"	8521.348276084	8514.231276664	1.5	0.1
0.01	1	0.219789610000589	1	19	336.078646382	NA	1	0	4.25	1	332.937449380999	333.157238991	"11"	8521.348276084	8514.231276664	1.5	0.1
0.01	1	0.23192003999975	1	19	336.078646382	NA	1	0	4.25	1	333.388210489999	333.620130529999	"11"	8521.348276084	8514.231276664	1.5	0.1
0.01	1	0.220817577000162	1	19	336.078646382	NA	1	0	4.25	1	333.855815675	334.076633252	"11"	8521.348276084	8514.231276664	1.5	0.1
0.01	1	0.225618573000247	1	19	336.078646382	NA	1	0	4.25	1	334.30660459	334.532223163	"11"	8521.348276084	8514.231276664	1.5	0.1
0.01	1	0.247049145000346	1	19	336.078646382	NA	1	0	4.25	1	334.773971989	335.021021134	"11"	8521.348276084	8514.231276664	1.5	0.1
0.01	1	0.234197169000254	1	19	336.078646382	NA	1	0	4.25	1	335.258052007	335.492249176	"11"	8521.348276084	8514.231276664	1.5	0.1
0.01	1	0.247600376999799	1	19	336.078646382	NA	1	0	4.25	1	335.725481795	335.973082172	"11"	8521.348276084	8514.231276664	1.5	0.1
0.01	1	0.442933213999822	1	63	371.889132642	NA	1	0	4.25	1	338.129619765	338.572552979	"12"	8521.348276084	8514.231276664	1.5	0.1
0.01	1	0.216170407999925	1	63	371.889132642	NA	1	0	4.25	1	338.797424885	339.013595293	"12"	8521.348276084	8514.231276664	1.5	0.1
0.01	1	0.187364106999667	1	63	371.889132642	NA	1	0	4.25	1	339.248097385	339.435461491999	"12"	8521.348276084	8514.231276664	1.5	0.1
0.01	1	0.210774961999959	1	63	371.889132642	NA	1	0	4.25	1	339.665537075	339.876312036999	"12"	8521.348276084	8514.231276664	1.5	0.1
0.01	1	0.176032845999543	1	63	371.889132642	NA	1	0	4.25	1	340.099563737	340.275596582999	"12"	8521.348276084	8514.231276664	1.5	0.1
0.01	1	0.201210891999835	1	63	371.889132642	NA	1	0	4.25	1	340.50020924	340.701420132	"12"	8521.348276084	8514.231276664	1.5	0.1
0.01	1	0.182251641999756	1	63	371.889132642	NA	1	0	4.25	1	340.934259805	341.116511447	"12"	8521.348276084	8514.231276664	1.5	0.1
0.01	1	0.196244515000217	1	63	371.889132642	NA	1	0	4.25	1	341.351846414999	341.548090929999	"12"	8521.348276084	8514.231276664	1.5	0.1
0.01	1	0.226430644999709	1	63	371.889132642	NA	1	0	4.25	1	341.785740597	342.012171242	"12"	8521.348276084	8514.231276664	1.5	0.1
0.01	1	0.168698587999643	1	63	371.889132642	NA	1	0	4.25	1	342.236408342	342.405106929999	"12"	8521.348276084	8514.231276664	1.5	0.1
0.01	1	0.239739440999983	1	63	371.889132642	NA	1	0	4.25	1	342.637179531999	342.876918972999	"12"	8521.348276084	8514.231276664	1.5	0.1
0.01	1	0.228697581000233	1	63	371.889132642	NA	1	0	4.25	1	343.104557121999	343.333254703	"12"	8521.348276084	8514.231276664	1.5	0.1
0.01	1	0.225092198999846	1	63	371.889132642	NA	1	0	4.25	1	343.555390515	343.780482714	"12"	8521.348276084	8514.231276664	1.5	0.1
0.01	1	0.222447514000123	1	63	371.889132642	NA	1	0	4.25	1	344.006069364999	344.228516878999	"12"	8521.348276084	8514.231276664	1.5	0.1
0.01	1	0.284558429999379	1	63	371.889132642	NA	1	0	4.25	1	344.456885492	344.741443921999	"12"	8521.348276084	8514.231276664	1.5	0.1
0.01	1	0.285838454000441	1	63	371.889132642	NA	1	0	4.25	1	344.974415334999	345.260253789	"12"	8521.348276084	8514.231276664	1.5	0.1
0.01	1	0.240507685000011	1	63	371.889132642	NA	1	0	4.25	1	345.492007625	345.73251531	"12"	8521.348276084	8514.231276664	1.5	0.1
0.01	1	0.26919396699941	1	63	371.889132642	NA	1	0	4.25	1	345.959381207	346.228575173999	"12"	8521.348276084	8514.231276664	1.5	0.1
0.01	1	0.248911145999955	1	63	371.889132642	NA	1	0	4.25	1	346.460255387	346.709166533	"12"	8521.348276084	8514.231276664	1.5	0.1
0.01	1	0.236256357999991	1	63	371.889132642	NA	1	0	4.25	1	346.944432849999	347.180689207999	"12"	8521.348276084	8514.231276664	1.5	0.1
0.01	1	0.223767163999582	1	63	371.889132642	NA	1	0	4.25	1	347.41195797	347.635725134	"12"	8521.348276084	8514.231276664	1.5	0.1
0.01	1	0.254665649000344	1	63	371.889132642	NA	1	0	4.25	1	347.862564909999	348.117230559	"12"	8521.348276084	8514.231276664	1.5	0.1
0.01	1	0.28276129599999	1	63	371.889132642	NA	1	0	4.25	1	348.346858430999	348.629619726999	"12"	8521.348276084	8514.231276664	1.5	0.1
0.01	1	0.236374713000259	1	63	371.889132642	NA	1	0	4.25	1	348.864255795	349.100630508	"12"	8521.348276084	8514.231276664	1.5	0.1
0.01	1	0.281134280000515	1	63	371.889132642	NA	1	0	4.25	1	349.331770686999	349.612904967	"12"	8521.348276084	8514.231276664	1.5	0.1
0.01	1	0.323181194999961	1	63	371.889132642	NA	1	0	4.25	1	349.849401181	350.172582376	"12"	8521.348276084	8514.231276664	1.5	0.1
0.01	1	0.292818191000151	1	63	371.889132642	NA	1	0	4.25	1	350.40020802	350.693026211	"12"	8521.348276084	8514.231276664	1.5	0.1
0.01	1	0.270930071000294	1	63	371.889132642	NA	1	0	4.25	1	350.917701648999	351.18863172	"12"	8521.348276084	8514.231276664	1.5	0.1
0.01	1	0.305420513000172	1	63	371.889132642	NA	1	0	4.25	1	351.41852505	351.723945563	"12"	8521.348276084	8514.231276664	1.5	0.1
0.01	1	0.283748294000361	1	63	371.889132642	NA	1	0	4.25	1	351.952817509999	352.236565804	"12"	8521.348276084	8514.231276664	1.5	0.1
0.01	1	0.285844177999934	1	63	371.889132642	NA	1	0	4.25	1	352.470319761999	352.756163939999	"12"	8521.348276084	8514.231276664	1.5	0.1
0.01	1	0.257241659999636	1	63	371.889132642	NA	1	0	4.25	1	352.987810662	353.245052322	"12"	8521.348276084	8514.231276664	1.5	0.1
0.01	1	0.235493884000789	1	63	371.889132642	NA	1	0	4.25	1	353.472020349999	353.707514234	"12"	8521.348276084	8514.231276664	1.5	0.1
0.01	1	0.304351998000129	1	63	371.889132642	NA	1	0	4.25	1	353.939538934999	354.243890932999	"12"	8521.348276084	8514.231276664	1.5	0.1
0.01	1	0.313967164000132	1	63	371.889132642	NA	1	0	4.25	1	354.474645974999	354.788613139	"12"	8521.348276084	8514.231276664	1.5	0.1
0.01	1	0.331000160999793	1	63	371.889132642	NA	1	0	4.25	1	355.024808775	355.355808935999	"12"	8521.348276084	8514.231276664	1.5	0.1
0.01	1	0.299588369000048	1	63	371.889132642	NA	1	0	4.25	1	355.592327945	355.891916314	"12"	8521.348276084	8514.231276664	1.5	0.1
0.01	1	0.302877617999911	1	63	371.889132642	NA	1	0	4.25	1	356.126555502	356.42943312	"12"	8521.348276084	8514.231276664	1.5	0.1
0.01	1	0.319699634000244	1	63	371.889132642	NA	1	0	4.25	1	356.660819993	356.980519627	"12"	8521.348276084	8514.231276664	1.5	0.1
0.01	1	0.368891455000266	1	63	371.889132642	NA	1	0	4.25	1	357.211688754999	357.580580209999	"12"	8521.348276084	8514.231276664	1.5	0.1
0.01	1	0.335224673999619	1	63	371.889132642	NA	1	0	4.25	1	357.812635095	358.147859768999	"12"	8521.348276084	8514.231276664	1.5	0.1
0.01	1	0.320990952999637	1	63	371.889132642	NA	1	0	4.25	1	358.380335152	358.701326105	"12"	8521.348276084	8514.231276664	1.5	0.1
0.01	1	0.352871204999246	1	63	371.889132642	NA	1	0	4.25	1	358.931289018	359.284160222999	"12"	8521.348276084	8514.231276664	1.5	0.1
0.01	1	0.376339980000012	1	63	371.889132642	NA	1	0	4.25	1	359.515581166999	359.891921146999	"12"	8521.348276084	8514.231276664	1.5	0.1
0.01	1	0.448804146999464	1	63	371.889132642	NA	1	0	4.25	1	360.116709895	360.565514041999	"12"	8521.348276084	8514.231276664	1.5	0.1
0.01	1	0.38004328199986	1	63	371.889132642	NA	1	0	4.25	1	360.801152004999	361.181195286999	"12"	8521.348276084	8514.231276664	1.5	0.1
0.01	1	0.417967116999534	1	63	371.889132642	NA	1	0	4.25	1	361.418785837	361.836752953999	"12"	8521.348276084	8514.231276664	1.5	0.1
0.01	1	0.342316995999681	1	63	371.889132642	NA	1	0	4.25	1	362.069807153	362.412124148999	"12"	8521.348276084	8514.231276664	1.5	0.1
0.01	1	0.359776391999731	1	63	371.889132642	NA	1	0	4.25	1	362.637478312	362.997254704	"12"	8521.348276084	8514.231276664	1.5	0.1
0.01	1	0.365848661999735	1	63	371.889132642	NA	1	0	4.25	1	363.221779885	363.587628546999	"12"	8521.348276084	8514.231276664	1.5	0.1
0.01	1	0.381576481000593	1	63	371.889132642	NA	1	0	4.25	1	363.822858781999	364.204435263	"12"	8521.348276084	8514.231276664	1.5	0.1
0.01	1	0.420640667000043	1	63	371.889132642	NA	1	0	4.25	1	364.440658955	364.861299622	"12"	8521.348276084	8514.231276664	1.5	0.1
0.01	1	0.425345265000033	1	63	371.889132642	NA	1	0	4.25	1	365.091683078999	365.517028343999	"12"	8521.348276084	8514.231276664	1.5	0.1
0.01	1	0.349926294999932	1	63	371.889132642	NA	1	0	4.25	1	365.742667013	366.092593308	"12"	8521.348276084	8514.231276664	1.5	0.1
0.01	1	0.357383269999445	1	63	371.889132642	NA	1	0	4.25	1	366.326959067	366.684342336999	"12"	8521.348276084	8514.231276664	1.5	0.1
0.01	1	0.372316507000505	1	63	371.889132642	NA	1	0	4.25	1	366.911353734999	367.283670242	"12"	8521.348276084	8514.231276664	1.5	0.1
0.01	1	0.379727165000077	1	63	371.889132642	NA	1	0	4.25	1	367.512395369999	367.892122535	"12"	8521.348276084	8514.231276664	1.5	0.1
0.01	1	0.362724525999511	1	63	371.889132642	NA	1	0	4.25	1	368.130080547	368.492805073	"12"	8521.348276084	8514.231276664	1.5	0.1
0.01	1	0.353929384999901	1	63	371.889132642	NA	1	0	4.25	1	368.731027246999	369.084956631999	"12"	8521.348276084	8514.231276664	1.5	0.1
0.01	1	0.512199148000036	1	63	371.889132642	NA	1	0	4.25	1	369.315370984999	369.827570132999	"12"	8521.348276084	8514.231276664	1.5	0.1
0.01	1	0.489737363000131	1	63	371.889132642	NA	1	0	4.25	1	370.066530812999	370.556268175999	"12"	8521.348276084	8514.231276664	1.5	0.1
0.01	1	0.36353827199946	1	63	371.889132642	NA	1	0	4.25	1	370.784467855	371.148006126999	"12"	8521.348276084	8514.231276664	1.5	0.1
0.01	1	0.39479299300001	1	63	371.889132642	NA	1	0	4.25	1	371.38550831	371.780301303	"12"	8521.348276084	8514.231276664	1.5	0.1
0.01	1	0.472684227999707	1	54	400.920864389999	NA	1	0	4.25	1	373.939857717	374.412541944999	"13"	8521.348276084	8514.231276664	1.5	0.1
0.01	1	0.19618715300021	1	54	400.920864389999	NA	1	0	4.25	1	374.641132649999	374.837319802999	"13"	8521.348276084	8514.231276664	1.5	0.1
0.01	1	0.145970558000045	1	54	400.920864389999	NA	1	0	4.25	1	375.075119392	375.22108995	"13"	8521.348276084	8514.231276664	1.5	0.1
0.01	1	0.176779671999611	1	54	400.920864389999	NA	1	0	4.25	1	375.459041004	375.635820676	"13"	8521.348276084	8514.231276664	1.5	0.1
0.01	1	0.137481794999985	1	54	400.920864389999	NA	1	0	4.25	1	375.859684192	375.997165987	"13"	8521.348276084	8514.231276664	1.5	0.1
0.01	1	0.200631792000422	1	54	400.920864389999	NA	1	0	4.25	1	376.227041229999	376.427673022	"13"	8521.348276084	8514.231276664	1.5	0.1
0.01	1	0.232322824999756	1	54	400.920864389999	NA	1	0	4.25	1	376.661026055	376.893348879999	"13"	8521.348276084	8514.231276664	1.5	0.1
0.01	1	0.188644126999861	1	54	400.920864389999	NA	1	0	4.25	1	377.128581524999	377.317225651999	"13"	8521.348276084	8514.231276664	1.5	0.1
0.01	1	0.209889054000087	1	54	400.920864389999	NA	1	0	4.25	1	377.545844890999	377.755733945	"13"	8521.348276084	8514.231276664	1.5	0.1
0.01	1	0.217608102000668	1	54	400.920864389999	NA	1	0	4.25	1	377.979972124999	378.197580227	"13"	8521.348276084	8514.231276664	1.5	0.1
0.01	1	0.181243127000016	1	54	400.920864389999	NA	1	0	4.25	1	378.43069235	378.611935477	"13"	8521.348276084	8514.231276664	1.5	0.1
0.01	1	0.16457218800042	1	54	400.920864389999	NA	1	0	4.25	1	378.84811717	379.012689358	"13"	8521.348276084	8514.231276664	1.5	0.1
0.01	1	0.140750032000142	1	54	400.920864389999	NA	1	0	4.25	1	379.248702770999	379.389452803	"13"	8521.348276084	8514.231276664	1.5	0.1
0.01	1	0.228937707000114	1	54	400.920864389999	NA	1	0	4.25	1	379.616070665	379.845008372	"13"	8521.348276084	8514.231276664	1.5	0.1
0.01	1	0.161338068000077	1	54	400.920864389999	NA	1	0	4.25	1	380.083433248	380.244771316	"13"	8521.348276084	8514.231276664	1.5	0.1
0.01	1	0.192766514000141	1	54	400.920864389999	NA	1	0	4.25	1	380.467533251999	380.660299765999	"13"	8521.348276084	8514.231276664	1.5	0.1
0.01	1	0.271841108000444	1	54	400.920864389999	NA	1	0	4.25	1	380.884852306999	381.156693415	"13"	8521.348276084	8514.231276664	1.5	0.1
0.01	1	0.194693579999694	1	54	400.920864389999	NA	1	0	4.25	1	381.385588677	381.580282256999	"13"	8521.348276084	8514.231276664	1.5	0.1
0.01	1	0.250630470000033	1	54	400.920864389999	NA	1	0	4.25	1	381.802974349999	382.053604819999	"13"	8521.348276084	8514.231276664	1.5	0.1
0.01	1	0.213460109999687	1	54	400.920864389999	NA	1	0	4.25	1	382.28718763	382.500647739999	"13"	8521.348276084	8514.231276664	1.5	0.1
0.01	1	0.234461658000328	1	54	400.920864389999	NA	1	0	4.25	1	382.737904993	382.972366651	"13"	8521.348276084	8514.231276664	1.5	0.1
0.01	1	0.206121817000167	1	54	400.920864389999	NA	1	0	4.25	1	383.205358321999	383.411480139	"13"	8521.348276084	8514.231276664	1.5	0.1
0.01	1	0.244058590999884	1	54	400.920864389999	NA	1	0	4.25	1	383.639509267	383.883567858	"13"	8521.348276084	8514.231276664	1.5	0.1
0.01	1	0.273781326000062	1	54	400.920864389999	NA	1	0	4.25	1	384.106885169999	384.380666495999	"13"	8521.348276084	8514.231276664	1.5	0.1
0.01	1	0.301887933000216	1	54	400.920864389999	NA	1	0	4.25	1	384.607794854999	384.909682787999	"13"	8521.348276084	8514.231276664	1.5	0.1
0.01	1	0.262960722000571	1	54	400.920864389999	NA	1	0	4.25	1	385.141944262999	385.404904985	"13"	8521.348276084	8514.231276664	1.5	0.1
0.01	1	0.282498073999705	1	54	400.920864389999	NA	1	0	4.25	1	385.64274684	385.925244913999	"13"	8521.348276084	8514.231276664	1.5	0.1
0.01	1	0.309064031000162	1	54	400.920864389999	NA	1	0	4.25	1	386.160398579999	386.469462610999	"13"	8521.348276084	8514.231276664	1.5	0.1
0.01	1	0.271025154999734	1	54	400.920864389999	NA	1	0	4.25	1	386.694550447	386.965575601999	"13"	8521.348276084	8514.231276664	1.5	0.1
0.01	1	1.10582264799996	1	54	400.920864389999	NA	1	0	4.25	1	387.195375484999	388.301198132999	"13"	8521.348276084	8514.231276664	1.5	0.1
0.01	1	0.226658061999842	1	54	400.920864389999	NA	1	0	4.25	1	388.531057095	388.757715156999	"13"	8521.348276084	8514.231276664	1.5	0.1
0.01	1	0.238290090000191	1	54	400.920864389999	NA	1	0	4.25	1	388.981772945	389.220063035	"13"	8521.348276084	8514.231276664	1.5	0.1
0.01	1	0.258371601999897	1	54	400.920864389999	NA	1	0	4.25	1	389.449260545	389.707632146999	"13"	8521.348276084	8514.231276664	1.5	0.1
0.01	1	0.287212295000245	1	54	400.920864389999	NA	1	0	4.25	1	389.933441265	390.22065356	"13"	8521.348276084	8514.231276664	1.5	0.1
0.01	1	0.240856865000751	1	54	400.920864389999	NA	1	0	4.25	1	390.450903364999	390.69176023	"13"	8521.348276084	8514.231276664	1.5	0.1
0.01	1	0.269645932000458	1	54	400.920864389999	NA	1	0	4.25	1	390.918296549999	391.187942482	"13"	8521.348276084	8514.231276664	1.5	0.1
0.01	1	0.272673958999803	1	54	400.920864389999	NA	1	0	4.25	1	391.419143892	391.691817851	"13"	8521.348276084	8514.231276664	1.5	0.1
0.01	1	0.267802606999794	1	54	400.920864389999	NA	1	0	4.25	1	391.920048415	392.187851021999	"13"	8521.348276084	8514.231276664	1.5	0.1
0.01	1	0.232359120999718	1	54	400.920864389999	NA	1	0	4.25	1	392.420895362	392.653254483	"13"	8521.348276084	8514.231276664	1.5	0.1
0.01	1	0.323874236000847	1	54	400.920864389999	NA	1	0	4.25	1	392.888410551999	393.212284788	"13"	8521.348276084	8514.231276664	1.5	0.1
0.01	1	0.300774364999597	1	54	400.920864389999	NA	1	0	4.25	1	393.43927085	393.740045215	"13"	8521.348276084	8514.231276664	1.5	0.1
0.01	1	0.310141283000121	1	54	400.920864389999	NA	1	0	4.25	1	393.97357123	394.283712513	"13"	8521.348276084	8514.231276664	1.5	0.1
0.01	1	0.297430660999453	1	54	400.920864389999	NA	1	0	4.25	1	394.507806072	394.805236732999	"13"	8521.348276084	8514.231276664	1.5	0.1
0.01	1	0.322129595999286	1	54	400.920864389999	NA	1	0	4.25	1	395.041934895	395.364064490999	"13"	8521.348276084	8514.231276664	1.5	0.1
0.01	1	0.324060941000425	1	54	400.920864389999	NA	1	0	4.25	1	395.592916432	395.916977373	"13"	8521.348276084	8514.231276664	1.5	0.1
0.01	1	0.285553468000217	1	54	400.920864389999	NA	1	0	4.25	1	396.14385686	396.429410328	"13"	8521.348276084	8514.231276664	1.5	0.1
0.01	1	0.286175696999635	1	54	400.920864389999	NA	1	0	4.25	1	396.66139389	396.947569587	"13"	8521.348276084	8514.231276664	1.5	0.1
0.01	1	0.28220291100024	1	54	400.920864389999	NA	1	0	4.25	1	397.178925939999	397.461128851	"13"	8521.348276084	8514.231276664	1.5	0.1
0.01	1	0.283691587999783	1	54	400.920864389999	NA	1	0	4.25	1	397.696434185	397.980125773	"13"	8521.348276084	8514.231276664	1.5	0.1
0.01	1	0.317821031999301	1	54	400.920864389999	NA	1	0	4.25	1	398.214072625	398.531893656999	"13"	8521.348276084	8514.231276664	1.5	0.1
0.01	1	0.295762792999994	1	54	400.920864389999	NA	1	0	4.25	1	398.764966442	399.060729235	"13"	8521.348276084	8514.231276664	1.5	0.1
0.01	1	0.378513412000757	1	54	400.920864389999	NA	1	0	4.25	1	399.299081429999	399.677594842	"13"	8521.348276084	8514.231276664	1.5	0.1
0.01	1	0.280665659000078	1	54	400.920864389999	NA	1	0	4.25	1	399.900188281999	400.180853940999	"13"	8521.348276084	8514.231276664	1.5	0.1
0.01	1	0.386463278000519	1	54	400.920864389999	NA	1	0	4.25	1	400.417610834999	400.804074113	"13"	8521.348276084	8514.231276664	1.5	0.1
0.01	1	0.600481655000294	1	103	NA	438.246330012999	0	0.64	4.89	1	402.955213261999	403.555694917	"14"	8521.348276084	8514.231276664	1.5	0.1
0.01	1	0.166158676000123	1	103	NA	438.246330012999	0	0.64	4.89	1	403.790083555	403.956242231	"14"	8521.348276084	8514.231276664	1.5	0.1
0.01	1	0.1573769430006	1	103	NA	438.246330012999	0	0.64	4.89	1	404.190616346999	404.34799329	"14"	8521.348276084	8514.231276664	1.5	0.1
0.01	1	0.157590961999631	1	103	NA	438.246330012999	0	0.64	4.89	1	404.574622057	404.732213019	"14"	8521.348276084	8514.231276664	1.5	0.1
0.01	1	0.133739353000237	1	103	NA	438.246330012999	0	0.64	4.89	1	404.95868432	405.092423673	"14"	8521.348276084	8514.231276664	1.5	0.1
0.01	1	0.150934043000234	1	103	NA	438.246330012999	0	0.64	4.89	1	405.325912718999	405.476846762	"14"	8521.348276084	8514.231276664	1.5	0.1
0.01	1	0.101595718999306	1	103	NA	438.246330012999	0	0.64	4.89	1	405.70993792	405.811533638999	"14"	8521.348276084	8514.231276664	1.5	0.1
0.01	1	0.135746392000328	1	103	NA	438.246330012999	0	0.64	4.89	1	406.043734462	406.179480854	"14"	8521.348276084	8514.231276664	1.5	0.1
0.01	1	0.153637123999943	1	103	NA	438.246330012999	0	0.64	4.89	1	406.411092412	406.564729536	"14"	8521.348276084	8514.231276664	1.5	0.1
0.01	1	0.160424319999947	1	103	NA	438.246330012999	0	0.64	4.89	1	406.795132275	406.955556595	"14"	8521.348276084	8514.231276664	1.5	0.1
0.01	1	0.169573144000424	1	103	NA	438.246330012999	0	0.64	4.89	1	407.179615831999	407.349188976	"14"	8521.348276084	8514.231276664	1.5	0.1
0.01	1	0.217802189999929	1	103	NA	438.246330012999	0	0.64	4.89	1	407.579775632	407.797577822	"14"	8521.348276084	8514.231276664	1.5	0.1
0.01	1	0.342227715999798	1	103	NA	438.246330012999	0	0.64	4.89	1	408.030389117	408.372616832999	"14"	8521.348276084	8514.231276664	1.5	0.1
0.01	1	0.302392233999853	1	103	NA	438.246330012999	0	0.64	4.89	1	408.598155525	408.900547759	"14"	8521.348276084	8514.231276664	1.5	0.1
0.01	1	0.240165301000161	1	103	NA	438.246330012999	0	0.64	4.89	1	409.132369757999	409.372535058999	"14"	8521.348276084	8514.231276664	1.5	0.1
0.01	1	0.252182504999837	1	103	NA	438.246330012999	0	0.64	4.89	1	409.599812625	409.85199513	"14"	8521.348276084	8514.231276664	1.5	0.1
0.01	1	0.272324323999783	1	103	NA	438.246330012999	0	0.64	4.89	1	410.08397153	410.356295854	"14"	8521.348276084	8514.231276664	1.5	0.1
0.01	1	0.22018908300015	1	103	NA	438.246330012999	0	0.64	4.89	1	410.584769032	410.804958115	"14"	8521.348276084	8514.231276664	1.5	0.1
0.01	1	0.202086759999474	1	103	NA	438.246330012999	0	0.64	4.89	1	411.035533507	411.237620266999	"14"	8521.348276084	8514.231276664	1.5	0.1
0.01	1	0.231109174000267	1	103	NA	438.246330012999	0	0.64	4.89	1	411.46956378	411.700672954	"14"	8521.348276084	8514.231276664	1.5	0.1
0.01	1	0.243846600999859	1	103	NA	438.246330012999	0	0.64	4.89	1	411.937041141	412.180887742	"14"	8521.348276084	8514.231276664	1.5	0.1
0.01	1	0.215287569999418	1	103	NA	438.246330012999	0	0.64	4.89	1	412.405344287	412.620631856999	"14"	8521.348276084	8514.231276664	1.5	0.1
0.01	1	0.222247368999888	1	103	NA	438.246330012999	0	0.64	4.89	1	412.855301211	413.07754858	"14"	8521.348276084	8514.231276664	1.5	0.1
0.01	1	0.297841098999925	1	103	NA	438.246330012999	0	0.64	4.89	1	413.306024494999	413.603865593999	"14"	8521.348276084	8514.231276664	1.5	0.1
0.01	1	0.243758855000124	1	103	NA	438.246330012999	0	0.64	4.89	1	413.840255315	414.08401417	"14"	8521.348276084	8514.231276664	1.5	0.1
0.01	1	0.24804379499983	1	103	NA	438.246330012999	0	0.64	4.89	1	414.307891165	414.55593496	"14"	8521.348276084	8514.231276664	1.5	0.1
0.01	1	0.253411667000364	1	103	NA	438.246330012999	0	0.64	4.89	1	414.791797413	415.04520908	"14"	8521.348276084	8514.231276664	1.5	0.1
0.01	1	0.256470419999459	1	103	NA	438.246330012999	0	0.64	4.89	1	415.27602237	415.532492789999	"14"	8521.348276084	8514.231276664	1.5	0.1
0.01	1	0.260179117000007	1	103	NA	438.246330012999	0	0.64	4.89	1	415.7602081	416.020387217	"14"	8521.348276084	8514.231276664	1.5	0.1
0.01	1	0.288339936000739	1	103	NA	438.246330012999	0	0.64	4.89	1	416.244398534999	416.532738471	"14"	8521.348276084	8514.231276664	1.5	0.1
0.01	1	0.2672578899992	1	103	NA	438.246330012999	0	0.64	4.89	1	416.761812015	417.029069904999	"14"	8521.348276084	8514.231276664	1.5	0.1
0.01	1	0.220932615000493	1	103	NA	438.246330012999	0	0.64	4.89	1	417.262683061999	417.483615677	"14"	8521.348276084	8514.231276664	1.5	0.1
0.01	1	0.274181318000046	1	103	NA	438.246330012999	0	0.64	4.89	1	417.713423249999	417.987604567999	"14"	8521.348276084	8514.231276664	1.5	0.1
0.01	1	0.277899472000172	1	103	NA	438.246330012999	0	0.64	4.89	1	418.214217584999	418.492117057	"14"	8521.348276084	8514.231276664	1.5	0.1
0.01	1	0.313920716999746	1	103	NA	438.246330012999	0	0.64	4.89	1	418.715137397	419.029058114	"14"	8521.348276084	8514.231276664	1.5	0.1
0.01	1	0.267354268999952	1	103	NA	438.246330012999	0	0.64	4.89	1	419.266057770999	419.533412039999	"14"	8521.348276084	8514.231276664	1.5	0.1
0.01	1	0.32540273900031	1	103	NA	438.246330012999	0	0.64	4.89	1	419.76693948	420.092342219	"14"	8521.348276084	8514.231276664	1.5	0.1
0.01	1	0.287442743999236	1	103	NA	438.246330012999	0	0.64	4.89	1	420.317802687	420.605245430999	"14"	8521.348276084	8514.231276664	1.5	0.1
0.01	1	0.298242386999846	1	103	NA	438.246330012999	0	0.64	4.89	1	420.835345486999	421.133587873999	"14"	8521.348276084	8514.231276664	1.5	0.1
0.01	1	0.610211055000036	1	103	NA	438.246330012999	0	0.64	4.89	1	421.36958462	421.979795675	"14"	8521.348276084	8514.231276664	1.5	0.1
0.01	1	0.279778620999423	1	103	NA	438.246330012999	0	0.64	4.89	1	422.204291827	422.484070447999	"14"	8521.348276084	8514.231276664	1.5	0.1
0.01	1	0.323710407000362	1	103	NA	438.246330012999	0	0.64	4.89	1	422.721875017	423.045585424	"14"	8521.348276084	8514.231276664	1.5	0.1
0.01	1	0.346889055999782	1	103	NA	438.246330012999	0	0.64	4.89	1	423.272740447	423.619629502999	"14"	8521.348276084	8514.231276664	1.5	0.1
0.01	1	0.419036112000867	1	103	NA	438.246330012999	0	0.64	4.89	1	423.857071070999	424.276107183	"14"	8521.348276084	8514.231276664	1.5	0.1
0.01	1	0.431271503000062	1	103	NA	438.246330012999	0	0.64	4.89	1	424.508238484999	424.939509987999	"14"	8521.348276084	8514.231276664	1.5	0.1
0.01	1	0.484076077999816	1	103	NA	438.246330012999	0	0.64	4.89	1	425.175999802	425.66007588	"14"	8521.348276084	8514.231276664	1.5	0.1
0.01	1	0.390726218999589	1	103	NA	438.246330012999	0	0.64	4.89	1	425.893956512	426.284682731	"14"	8521.348276084	8514.231276664	1.5	0.1
0.01	1	0.3577445359997	1	103	NA	438.246330012999	0	0.64	4.89	1	426.51150805	426.869252586	"14"	8521.348276084	8514.231276664	1.5	0.1
0.01	1	0.292610913000317	1	103	NA	438.246330012999	0	0.64	4.89	1	427.095826694999	427.388437608	"14"	8521.348276084	8514.231276664	1.5	0.1
0.01	1	0.390321201999541	1	103	NA	438.246330012999	0	0.64	4.89	1	427.613419945	428.003741146999	"14"	8521.348276084	8514.231276664	1.5	0.1
0.01	1	0.276546463000159	1	103	NA	438.246330012999	0	0.64	4.89	1	428.2311529	428.507699363	"14"	8521.348276084	8514.231276664	1.5	0.1
0.01	1	0.369404422000116	1	103	NA	438.246330012999	0	0.64	4.89	1	428.731949155	429.101353577	"14"	8521.348276084	8514.231276664	1.5	0.1
0.01	1	0.407143307999831	1	103	NA	438.246330012999	0	0.64	4.89	1	429.332997404999	429.740140712999	"14"	8521.348276084	8514.231276664	1.5	0.1
0.01	1	0.404242935000184	1	103	NA	438.246330012999	0	0.64	4.89	1	429.967391873	430.371634808	"14"	8521.348276084	8514.231276664	1.5	0.1
0.01	1	0.346438866999961	1	103	NA	438.246330012999	0	0.64	4.89	1	430.601752459999	430.948191326999	"14"	8521.348276084	8514.231276664	1.5	0.1
0.01	1	0.402100921000056	1	103	NA	438.246330012999	0	0.64	4.89	1	431.186155437	431.588256358	"14"	8521.348276084	8514.231276664	1.5	0.1
0.01	1	0.366626160999658	1	103	NA	438.246330012999	0	0.64	4.89	1	431.821056367	432.187682528	"14"	8521.348276084	8514.231276664	1.5	0.1
0.01	1	0.375876848000189	1	103	NA	438.246330012999	0	0.64	4.89	1	432.421575947	432.797452795	"14"	8521.348276084	8514.231276664	1.5	0.1
0.01	1	0.702339348999885	1	103	NA	438.246330012999	0	0.64	4.89	1	433.02252984	433.724869189	"14"	8521.348276084	8514.231276664	1.5	0.1
0.01	1	0.455955585000083	1	103	NA	438.246330012999	0	0.64	4.89	1	433.95737976	434.413335345	"14"	8521.348276084	8514.231276664	1.5	0.1
0.01	1	0.378010119999999	1	103	NA	438.246330012999	0	0.64	4.89	1	434.642001951	435.020012071	"14"	8521.348276084	8514.231276664	1.5	0.1
0.01	1	0.401144450000174	1	103	NA	438.246330012999	0	0.64	4.89	1	435.259597681999	435.660742132	"14"	8521.348276084	8514.231276664	1.5	0.1
0.01	1	0.445639431999552	1	103	NA	438.246330012999	0	0.64	4.89	1	435.894050782	436.339690213999	"14"	8521.348276084	8514.231276664	1.5	0.1
0.01	1	0.54599200299981	1	103	NA	438.246330012999	0	0.64	4.89	1	436.56177055	437.107762553	"14"	8521.348276084	8514.231276664	1.5	0.1
0.01	1	0.898330619000262	2	103	NA	438.246330012999	0	0.64	4.89	1	437.346452999	438.244783618	"14"	8521.348276084	8514.231276664	1.5	0.1
0.01	1	0.598633949000032	1	120	NA	486.894390308999	0	0.75	5.64	1	440.301372454999	440.900006403999	"15"	8521.348276084	8514.231276664	1.5	0.1
0.01	1	0.291995132000011	1	120	NA	486.894390308999	0	0.75	5.64	1	441.13621026	441.428205392	"15"	8521.348276084	8514.231276664	1.5	0.1
0.01	1	0.190149992999977	1	120	NA	486.894390308999	0	0.75	5.64	1	441.65380905	441.843959043	"15"	8521.348276084	8514.231276664	1.5	0.1
0.01	1	0.189264491000358	1	120	NA	486.894390308999	0	0.75	5.64	1	442.071035196999	442.260299688	"15"	8521.348276084	8514.231276664	1.5	0.1
0.01	1	0.186869946000115	1	120	NA	486.894390308999	0	0.75	5.64	1	442.488511281999	442.675381227999	"15"	8521.348276084	8514.231276664	1.5	0.1
0.01	1	0.169895572000314	1	120	NA	486.894390308999	0	0.75	5.64	1	442.905877964999	443.075773537	"15"	8521.348276084	8514.231276664	1.5	0.1
0.01	1	0.240624949000448	1	120	NA	486.894390308999	0	0.75	5.64	1	443.307029811999	443.547654761	"15"	8521.348276084	8514.231276664	1.5	0.1
0.01	1	0.166887976999533	1	120	NA	486.894390308999	0	0.75	5.64	1	443.773977512	443.940865488999	"15"	8521.348276084	8514.231276664	1.5	0.1
0.01	1	0.230149307999454	1	120	NA	486.894390308999	0	0.75	5.64	1	444.174578077	444.404727384999	"15"	8521.348276084	8514.231276664	1.5	0.1
0.01	1	0.153594950999832	1	120	NA	486.894390308999	0	0.75	5.64	1	444.642090730999	444.795685681999	"15"	8521.348276084	8514.231276664	1.5	0.1
0.01	1	0.241786610999952	1	120	NA	486.894390308999	0	0.75	5.64	1	445.02598855	445.267775161	"15"	8521.348276084	8514.231276664	1.5	0.1
0.01	1	0.174777246999838	1	120	NA	486.894390308999	0	0.75	5.64	1	445.493579323	445.66835657	"15"	8521.348276084	8514.231276664	1.5	0.1
0.01	1	0.373747418000676	1	120	NA	486.894390308999	0	0.75	5.64	1	445.894199529999	446.267946948	"15"	8521.348276084	8514.231276664	1.5	0.1
0.01	1	0.285194273000343	1	120	NA	486.894390308999	0	0.75	5.64	1	446.495206199999	446.780400473	"15"	8521.348276084	8514.231276664	1.5	0.1
0.01	1	0.198769394999545	1	120	NA	486.894390308999	0	0.75	5.64	1	447.01278483	447.211554224999	"15"	8521.348276084	8514.231276664	1.5	0.1
0.01	1	0.189225361000354	1	120	NA	486.894390308999	0	0.75	5.64	1	447.446793464999	447.636018826	"15"	8521.348276084	8514.231276664	1.5	0.1
0.01	1	0.325469968000107	1	120	NA	486.894390308999	0	0.75	5.64	1	447.864098135	448.189568103	"15"	8521.348276084	8514.231276664	1.5	0.1
0.01	1	0.237447165000049	1	120	NA	486.894390308999	0	0.75	5.64	1	448.415094835	448.652542	"15"	8521.348276084	8514.231276664	1.5	0.1
0.01	1	0.210162983999908	1	120	NA	486.894390308999	0	0.75	5.64	1	448.88250783	449.092670814	"15"	8521.348276084	8514.231276664	1.5	0.1
0.01	1	0.183725199999571	1	120	NA	486.894390308999	0	0.75	5.64	1	449.3165546	449.5002798	"15"	8521.348276084	8514.231276664	1.5	0.1
0.01	1	0.638451934999466	1	120	NA	486.894390308999	0	0.75	5.64	1	449.733982862	450.372434796999	"15"	8521.348276084	8514.231276664	1.5	0.1
0.01	1	0.282522121000511	1	120	NA	486.894390308999	0	0.75	5.64	1	450.602080981999	450.884603103	"15"	8521.348276084	8514.231276664	1.5	0.1
0.01	1	0.270037442999637	1	120	NA	486.894390308999	0	0.75	5.64	1	451.11973141	451.389768853	"15"	8521.348276084	8514.231276664	1.5	0.1
0.01	1	0.303185112000392	1	120	NA	486.894390308999	0	0.75	5.64	1	451.62048353	451.923668642	"15"	8521.348276084	8514.231276664	1.5	0.1
0.01	1	0.282921406000241	1	120	NA	486.894390308999	0	0.75	5.64	1	452.154680584999	452.437601991	"15"	8521.348276084	8514.231276664	1.5	0.1
0.01	1	0.260829367000042	1	120	NA	486.894390308999	0	0.75	5.64	1	452.672253684999	452.933083051999	"15"	8521.348276084	8514.231276664	1.5	0.1
0.01	1	0.312450363000607	1	120	NA	486.894390308999	0	0.75	5.64	1	453.156319199999	453.468769563	"15"	8521.348276084	8514.231276664	1.5	0.1
0.01	1	0.29825983199953	1	120	NA	486.894390308999	0	0.75	5.64	1	453.690630542	453.988890373999	"15"	8521.348276084	8514.231276664	1.5	0.1
0.01	1	0.300160747000518	1	120	NA	486.894390308999	0	0.75	5.64	1	454.224800774999	454.524961522	"15"	8521.348276084	8514.231276664	1.5	0.1
