"payoff.level"	"balloon"	"rt"	"resp"	"explode.trial"	"explode.time"	"finish.time"	"exploded"	"trial.total"	"cumulative.total"	"finished"	"trial.start"	"trial.end"	"trial.num"	"secs"	"start.time"	"iti"	"isi"
0.01	1	1.21029062399612	1	64	NA	9.56811806900077	0	0.06	0.06	1	0.0217434510050225	1.23203407500114	"1"	52044.170774719	52041.688598334	1.5	0.1
0.01	1	1.25948492099997	1	64	NA	9.56811806900077	0	0.06	0.06	1	1.9082825200021	3.16776744100207	"1"	52044.170774719	52041.688598334	1.5	0.1
0.01	1	0.604557813996507	1	64	NA	9.56811806900077	0	0.06	0.06	1	3.39408978500433	3.99864759900083	"1"	52044.170774719	52041.688598334	1.5	0.1
0.01	1	0.891048055003921	1	64	NA	9.56811806900077	0	0.06	0.06	1	4.22882681000192	5.11987486500584	"1"	52044.170774719	52041.688598334	1.5	0.1
0.01	1	1.08394582599431	1	64	NA	9.56811806900077	0	0.06	0.06	1	5.34741966500587	6.43136549100018	"1"	52044.170774719	52041.688598334	1.5	0.1
0.01	1	0.997140872997988	1	64	NA	9.56811806900077	0	0.06	0.06	1	6.66622072500468	7.66336159800267	"1"	52044.170774719	52041.688598334	1.5	0.1
0.01	1	1.66485318700143	2	64	NA	9.56811806900077	0	0.06	0.06	1	7.90165828000318	9.5665114670046	"1"	52044.170774719	52041.688598334	1.5	0.1
0.01	1	0.590531640002155	1	68	NA	44.4980224650062	0	0.4	0.46	1	11.6245595950022	12.2150912350044	"2"	52044.170774719	52041.688598334	1.5	0.1
0.01	1	0.349429396999767	1	68	NA	44.4980224650062	0	0.4	0.46	1	12.4425765820051	12.7920059790049	"2"	52044.170774719	52041.688598334	1.5	0.1
0.01	1	0.316970437001146	1	68	NA	44.4980224650062	0	0.4	0.46	1	13.0269942500017	13.3439646870029	"2"	52044.170774719	52041.688598334	1.5	0.1
0.01	1	0.278380943003867	1	68	NA	44.4980224650062	0	0.4	0.46	1	13.5778501000023	13.8562310430061	"2"	52044.170774719	52041.688598334	1.5	0.1
0.01	1	0.304694381993613	1	68	NA	44.4980224650062	0	0.4	0.46	1	14.0787841110068	14.3834784930004	"2"	52044.170774719	52041.688598334	1.5	0.1
0.01	1	0.298913147002168	1	68	NA	44.4980224650062	0	0.4	0.46	1	14.6130151300022	14.9119282770043	"2"	52044.170774719	52041.688598334	1.5	0.1
0.01	1	0.436511843996414	1	68	NA	44.4980224650062	0	0.4	0.46	1	15.1470977100034	15.5836095539998	"2"	52044.170774719	52041.688598334	1.5	0.1
0.01	1	0.519880432002537	1	68	NA	44.4980224650062	0	0.4	0.46	1	15.8150391939998	16.3349196260024	"2"	52044.170774719	52041.688598334	1.5	0.1
0.01	1	0.496233737998409	1	68	NA	44.4980224650062	0	0.4	0.46	1	16.5663424220038	17.0625761600022	"2"	52044.170774719	52041.688598334	1.5	0.1
0.01	1	0.578873222002585	1	68	NA	44.4980224650062	0	0.4	0.46	1	17.3007641150034	17.879637337006	"2"	52044.170774719	52041.688598334	1.5	0.1
0.01	1	0.953048585004581	1	68	NA	44.4980224650062	0	0.4	0.46	1	18.1022104250005	19.0552590100051	"2"	52044.170774719	52041.688598334	1.5	0.1
0.01	1	1.81690399299987	1	68	NA	44.4980224650062	0	0.4	0.46	1	19.2874782850049	21.1043822780048	"2"	52044.170774719	52041.688598334	1.5	0.1
0.01	1	0.609884221994434	1	68	NA	44.4980224650062	0	0.4	0.46	1	21.3409895050063	21.9508737270007	"2"	52044.170774719	52041.688598334	1.5	0.1
0.01	1	0.479425538003852	1	68	NA	44.4980224650062	0	0.4	0.46	1	22.1755713750026	22.6549969130065	"2"	52044.170774719	52041.688598334	1.5	0.1
0.01	1	2.71414991700294	1	68	NA	44.4980224650062	0	0.4	0.46	1	22.8769093500014	25.5910592670043	"2"	52044.170774719	52041.688598334	1.5	0.1
0.01	1	0.407891484006541	1	68	NA	44.4980224650062	0	0.4	0.46	1	25.8318362999998	26.2397277840064	"2"	52044.170774719	52041.688598334	1.5	0.1
0.01	1	0.389232574001653	1	68	NA	44.4980224650062	0	0.4	0.46	1	26.4663568250035	26.8555893990051	"2"	52044.170774719	52041.688598334	1.5	0.1
0.01	1	0.402754855997046	1	68	NA	44.4980224650062	0	0.4	0.46	1	27.0839006500028	27.4866555059998	"2"	52044.170774719	52041.688598334	1.5	0.1
0.01	1	0.360978762997547	1	68	NA	44.4980224650062	0	0.4	0.46	1	27.7182970970025	28.0792758600001	"2"	52044.170774719	52041.688598334	1.5	0.1
0.01	1	0.360333559001447	1	68	NA	44.4980224650062	0	0.4	0.46	1	28.3025886270043	28.6629221860057	"2"	52044.170774719	52041.688598334	1.5	0.1
0.01	1	0.327270827998291	1	68	NA	44.4980224650062	0	0.4	0.46	1	28.9037013620036	29.2309721900019	"2"	52044.170774719	52041.688598334	1.5	0.1
0.01	1	0.3363343969977	1	68	NA	44.4980224650062	0	0.4	0.46	1	29.4545909350054	29.7909253320031	"2"	52044.170774719	52041.688598334	1.5	0.1
0.01	1	0.321429940006055	1	68	NA	44.4980224650062	0	0.4	0.46	1	30.0222782700002	30.3437082100063	"2"	52044.170774719	52041.688598334	1.5	0.1
0.01	1	0.419019611996191	1	68	NA	44.4980224650062	0	0.4	0.46	1	30.5731740750052	30.9921936870014	"2"	52044.170774719	52041.688598334	1.5	0.1
0.01	1	0.790553377002652	1	68	NA	44.4980224650062	0	0.4	0.46	1	31.2242184520001	32.0147718290027	"2"	52044.170774719	52041.688598334	1.5	0.1
0.01	1	0.396437395000248	1	68	NA	44.4980224650062	0	0.4	0.46	1	32.2425386770046	32.6389760720049	"2"	52044.170774719	52041.688598334	1.5	0.1
0.01	1	0.506086155000958	1	68	NA	44.4980224650062	0	0.4	0.46	1	32.8769739800045	33.3830601350055	"2"	52044.170774719	52041.688598334	1.5	0.1
0.01	1	0.460582211999281	1	68	NA	44.4980224650062	0	0.4	0.46	1	33.6115758800006	34.0721580919999	"2"	52044.170774719	52041.688598334	1.5	0.1
0.01	1	0.431828161999874	1	68	NA	44.4980224650062	0	0.4	0.46	1	34.296140080005	34.7279682420049	"2"	52044.170774719	52041.688598334	1.5	0.1
0.01	1	0.364686075001373	1	68	NA	44.4980224650062	0	0.4	0.46	1	34.9638924750034	35.3285785500047	"2"	52044.170774719	52041.688598334	1.5	0.1
0.01	1	0.369968643994071	1	68	NA	44.4980224650062	0	0.4	0.46	1	35.5648388700065	35.9348075140006	"2"	52044.170774719	52041.688598334	1.5	0.1
0.01	1	0.409848413997679	1	68	NA	44.4980224650062	0	0.4	0.46	1	36.1658969300042	36.5757453440019	"2"	52044.170774719	52041.688598334	1.5	0.1
0.01	1	0.375278920997516	1	68	NA	44.4980224650062	0	0.4	0.46	1	36.8002414530056	37.1755203740031	"2"	52044.170774719	52041.688598334	1.5	0.1
0.01	1	0.461274118999427	1	68	NA	44.4980224650062	0	0.4	0.46	1	37.4012855550027	37.8625596740021	"2"	52044.170774719	52041.688598334	1.5	0.1
0.01	1	0.33866319200024	1	68	NA	44.4980224650062	0	0.4	0.46	1	38.0857817320066	38.4244449240068	"2"	52044.170774719	52041.688598334	1.5	0.1
0.01	1	1.98607238499972	1	68	NA	44.4980224650062	0	0.4	0.46	1	38.6533108850053	40.6393832700051	"2"	52044.170774719	52041.688598334	1.5	0.1
0.01	1	0.742802763001237	1	68	NA	44.4980224650062	0	0.4	0.46	1	40.8738591600049	41.6166619230062	"2"	52044.170774719	52041.688598334	1.5	0.1
0.01	1	0.525276592001319	1	68	NA	44.4980224650062	0	0.4	0.46	1	41.8420876300006	42.3673642220019	"2"	52044.170774719	52041.688598334	1.5	0.1
0.01	1	0.405361028999323	1	68	NA	44.4980224650062	0	0.4	0.46	1	42.5932903720022	42.9986514010016	"2"	52044.170774719	52041.688598334	1.5	0.1
0.01	1	0.380465264999657	1	68	NA	44.4980224650062	0	0.4	0.46	1	43.2277671950069	43.6082324600065	"2"	52044.170774719	52041.688598334	1.5	0.1
0.01	1	0.650788692997594	2	68	NA	44.4980224650062	0	0.4	0.46	1	43.8455660200052	44.4963547130028	"2"	52044.170774719	52041.688598334	1.5	0.1
0.01	1	0.514192712995282	1	33	69.5745893830026	NA	1	0	0.46	1	46.5332918500062	47.0474845630015	"3"	52044.170774719	52041.688598334	1.5	0.1
0.01	1	0.219161449997046	1	33	69.5745893830026	NA	1	0	0.46	1	47.2846253250027	47.5037867749998	"3"	52044.170774719	52041.688598334	1.5	0.1
0.01	1	0.0171396449950407	1	33	69.5745893830026	NA	1	0	0.46	1	47.7353547650055	47.7524944100005	"3"	52044.170774719	52041.688598334	1.5	0.1
0.01	1	0.0454985060059698	1	33	69.5745893830026	NA	1	0	0.46	1	47.985860615001	48.031359121007	"3"	52044.170774719	52041.688598334	1.5	0.1
0.01	1	0.602510021002672	1	33	69.5745893830026	NA	1	0	0.46	1	48.2695607920032	48.8720708130058	"3"	52044.170774719	52041.688598334	1.5	0.1
0.01	1	0.207382157001121	1	33	69.5745893830026	NA	1	0	0.46	1	49.1043067950013	49.3116889520024	"3"	52044.170774719	52041.688598334	1.5	0.1
0.01	1	0.189729672994872	1	33	69.5745893830026	NA	1	0	0.46	1	49.5384105700068	49.7281402430017	"3"	52044.170774719	52041.688598334	1.5	0.1
0.01	1	0.132034044996544	1	33	69.5745893830026	NA	1	0	0.46	1	49.955788050007	50.0878220950035	"3"	52044.170774719	52041.688598334	1.5	0.1
0.01	1	0.116987487002916	1	33	69.5745893830026	NA	1	0	0.46	1	50.32306599	50.4400534770029	"3"	52044.170774719	52041.688598334	1.5	0.1
0.01	1	0.101014431995281	1	33	69.5745893830026	NA	1	0	0.46	1	50.6736569000059	50.7746713320012	"3"	52044.170774719	52041.688598334	1.5	0.1
0.01	1	0.128057917005208	1	33	69.5745893830026	NA	1	0	0.46	1	51.0075601450008	51.135618062006	"3"	52044.170774719	52041.688598334	1.5	0.1
0.01	1	0.16997796799842	1	33	69.5745893830026	NA	1	0	0.46	1	51.3581568610025	51.5281348290009	"3"	52044.170774719	52041.688598334	1.5	0.1
0.01	1	0.151744953000161	1	33	69.5745893830026	NA	1	0	0.46	1	51.7588607050056	51.9106056580058	"3"	52044.170774719	52041.688598334	1.5	0.1
0.01	1	0.105540885000664	1	33	69.5745893830026	NA	1	0	0.46	1	52.1427723500019	52.2483132350026	"3"	52044.170774719	52041.688598334	1.5	0.1
0.01	1	0.00375403799989726	1	33	69.5745893830026	NA	1	0	0.46	1	52.4765642450002	52.4803182830001	"3"	52044.170774719	52041.688598334	1.5	0.1
0.01	1	0.00462756000342779	1	33	69.5745893830026	NA	1	0	0.46	1	52.7103680650034	52.7149956250068	"3"	52044.170774719	52041.688598334	1.5	0.1
0.01	1	0.0044810659965151	1	33	69.5745893830026	NA	1	0	0.46	1	52.9441158110058	52.9485968770023	"3"	52044.170774719	52041.688598334	1.5	0.1
0.01	1	0.00223766799899749	1	33	69.5745893830026	NA	1	0	0.46	1	53.1777643710011	53.1800020390001	"3"	52044.170774719	52041.688598334	1.5	0.1
0.01	1	0.00230973699945025	1	33	69.5745893830026	NA	1	0	0.46	1	53.4115803860041	53.4138901230035	"3"	52044.170774719	52041.688598334	1.5	0.1
0.01	1	0.00228015599714126	1	33	69.5745893830026	NA	1	0	0.46	1	53.6452648890045	53.6475450450016	"3"	52044.170774719	52041.688598334	1.5	0.1
0.01	1	0.00391927300370298	1	33	69.5745893830026	NA	1	0	0.46	1	53.8790203919998	53.8829396650035	"3"	52044.170774719	52041.688598334	1.5	0.1
0.01	1	0.00362811500235694	1	33	69.5745893830026	NA	1	0	0.46	1	54.1127305100017	54.1163586250041	"3"	52044.170774719	52041.688598334	1.5	0.1
0.01	1	0.804676125000697	1	33	69.5745893830026	NA	1	0	0.46	1	54.3464609620059	55.1511370870066	"3"	52044.170774719	52041.688598334	1.5	0.1
0.01	1	0.266119061001518	1	33	69.5745893830026	NA	1	0	0.46	1	55.3815614800042	55.6476805410057	"3"	52044.170774719	52041.688598334	1.5	0.1
0.01	1	0.172966145000828	1	33	69.5745893830026	NA	1	0	0.46	1	55.8823972800019	56.0553634250027	"3"	52044.170774719	52041.688598334	1.5	0.1
0.01	1	0.12385993800126	1	33	69.5745893830026	NA	1	0	0.46	1	56.2830781320008	56.4069380700021	"3"	52044.170774719	52041.688598334	1.5	0.1
0.01	1	0.158577646994672	1	33	69.5745893830026	NA	1	0	0.46	1	56.6337258980057	56.7923035450003	"3"	52044.170774719	52041.688598334	1.5	0.1
0.01	1	0.118616202002158	1	33	69.5745893830026	NA	1	0	0.46	1	57.0176736600042	57.1362898620064	"3"	52044.170774719	52041.688598334	1.5	0.1
0.01	1	10.8639650069963	1	33	69.5745893830026	NA	1	0	0.46	1	57.3681989150064	68.2321639220027	"3"	52044.170774719	52041.688598334	1.5	0.1
0.01	1	0.112562494003214	1	33	69.5745893830026	NA	1	0	0.46	1	68.4701717150019	68.5827342090051	"3"	52044.170774719	52041.688598334	1.5	0.1
0.01	1	0.091004948997579	1	33	69.5745893830026	NA	1	0	0.46	1	68.8208151300059	68.9118200790035	"3"	52044.170774719	52041.688598334	1.5	0.1
0.01	1	0.044656013000349	1	33	69.5745893830026	NA	1	0	0.46	1	69.1380682600065	69.1827242730069	"3"	52044.170774719	52041.688598334	1.5	0.1
0.01	1	0.0513586099987151	1	33	69.5745893830026	NA	1	0	0.46	1	69.4051424400022	69.456501050001	"3"	52044.170774719	52041.688598334	1.5	0.1
0.01	1	0.00377785700402455	1	105	NA	78.3051634290023	0	0.27	0.73	1	71.6254906800023	71.6292685370063	"4"	52044.170774719	52041.688598334	1.5	0.1
0.01	1	0.00387462499929825	1	105	NA	78.3051634290023	0	0.27	0.73	1	71.8592783320055	71.8631529570048	"4"	52044.170774719	52041.688598334	1.5	0.1
0.01	1	0.00368670000170823	1	105	NA	78.3051634290023	0	0.27	0.73	1	72.0930788650003	72.096765565002	"4"	52044.170774719	52041.688598334	1.5	0.1
0.01	1	0.00449183200544212	1	105	NA	78.3051634290023	0	0.27	0.73	1	72.3267649900008	72.3312568220063	"4"	52044.170774719	52041.688598334	1.5	0.1
0.01	1	0.00434309100091923	1	105	NA	78.3051634290023	0	0.27	0.73	1	72.5604137410046	72.5647568320055	"4"	52044.170774719	52041.688598334	1.5	0.1
0.01	1	0.00398166700324509	1	105	NA	78.3051634290023	0	0.27	0.73	1	72.794263982003	72.7982456490063	"4"	52044.170774719	52041.688598334	1.5	0.1
0.01	1	0.0037917000008747	1	105	NA	78.3051634290023	0	0.27	0.73	1	73.0278606650027	73.0316523650035	"4"	52044.170774719	52041.688598334	1.5	0.1
0.01	1	0.00453820500115398	1	105	NA	78.3051634290023	0	0.27	0.73	1	73.2616236800022	73.2661618850034	"4"	52044.170774719	52041.688598334	1.5	0.1
0.01	1	0.00357438700302737	1	105	NA	78.3051634290023	0	0.27	0.73	1	73.4952567500004	73.4988311370034	"4"	52044.170774719	52041.688598334	1.5	0.1
0.01	1	0.00388819000363583	1	105	NA	78.3051634290023	0	0.27	0.73	1	73.7290940750026	73.7329822650063	"4"	52044.170774719	52041.688598334	1.5	0.1
0.01	1	0.00384099799703108	1	105	NA	78.3051634290023	0	0.27	0.73	1	73.9627415550058	73.9665825530028	"4"	52044.170774719	52041.688598334	1.5	0.1
0.01	1	0.00450365600408986	1	105	NA	78.3051634290023	0	0.27	0.73	1	74.1966784140022	74.2011820700063	"4"	52044.170774719	52041.688598334	1.5	0.1
0.01	1	0.0045490270058508	1	105	NA	78.3051634290023	0	0.27	0.73	1	74.4304984900009	74.4350475170068	"4"	52044.170774719	52041.688598334	1.5	0.1
0.01	1	0.00360678400465986	1	105	NA	78.3051634290023	0	0.27	0.73	1	74.6640275350001	74.6676343190047	"4"	52044.170774719	52041.688598334	1.5	0.1
0.01	1	0.00413777100038715	1	105	NA	78.3051634290023	0	0.27	0.73	1	74.897786461006	74.9019242320064	"4"	52044.170774719	52041.688598334	1.5	0.1
0.01	1	0.00371373300004052	1	105	NA	78.3051634290023	0	0.27	0.73	1	75.1314280600054	75.1351417930055	"4"	52044.170774719	52041.688598334	1.5	0.1
0.01	1	0.00392023799940944	1	105	NA	78.3051634290023	0	0.27	0.73	1	75.3652167970067	75.3691370350061	"4"	52044.170774719	52041.688598334	1.5	0.1
0.01	1	0.00375767899822677	1	105	NA	78.3051634290023	0	0.27	0.73	1	75.5988501200045	75.6026077990027	"4"	52044.170774719	52041.688598334	1.5	0.1
0.01	1	0.00375068099674536	1	105	NA	78.3051634290023	0	0.27	0.73	1	75.832619810004	75.8363704910007	"4"	52044.170774719	52041.688598334	1.5	0.1
0.01	1	0.00459042299917201	1	105	NA	78.3051634290023	0	0.27	0.73	1	76.0663875570026	76.0709779800018	"4"	52044.170774719	52041.688598334	1.5	0.1
0.01	1	0.00401422099821502	1	105	NA	78.3051634290023	0	0.27	0.73	1	76.3000426700019	76.3040568910001	"4"	52044.170774719	52041.688598334	1.5	0.1
0.01	1	0.0038941579987295	1	105	NA	78.3051634290023	0	0.27	0.73	1	76.5338746250054	76.5377687830041	"4"	52044.170774719	52041.688598334	1.5	0.1
0.01	1	0.00374724999710452	1	105	NA	78.3051634290023	0	0.27	0.73	1	76.7675004050034	76.7712476550005	"4"	52044.170774719	52041.688598334	1.5	0.1
0.01	1	0.00355114199919626	1	105	NA	78.3051634290023	0	0.27	0.73	1	77.0012182850041	77.0047694270033	"4"	52044.170774719	52041.688598334	1.5	0.1
0.01	1	0.00372153899661498	1	105	NA	78.3051634290023	0	0.27	0.73	1	77.2348880000063	77.2386095390029	"4"	52044.170774719	52041.688598334	1.5	0.1
0.01	1	0.00542865099851042	1	105	NA	78.3051634290023	0	0.27	0.73	1	77.4686882520036	77.4741169030021	"4"	52044.170774719	52041.688598334	1.5	0.1
0.01	1	0.00390544500260148	1	105	NA	78.3051634290023	0	0.27	0.73	1	77.7024554000018	77.7063608450044	"4"	52044.170774719	52041.688598334	1.5	0.1
0.01	1	0.367281960003311	2	105	NA	78.3051634290023	0	0.27	0.73	1	77.9362135120027	78.303495472006	"4"	52044.170774719	52041.688598334	1.5	0.1
0.01	1	0.00381942799867829	1	73	NA	88.2660823950064	0	0.32	1.05	1	80.3402326570067	80.3440520850054	"5"	52044.170774719	52041.688598334	1.5	0.1
0.01	1	0.00454607699793996	1	73	NA	88.2660823950064	0	0.32	1.05	1	80.5739467400053	80.5784928170033	"5"	52044.170774719	52041.688598334	1.5	0.1
0.01	1	0.00367545899644028	1	73	NA	88.2660823950064	0	0.32	1.05	1	80.8077134820051	80.8113889410015	"5"	52044.170774719	52041.688598334	1.5	0.1
0.01	1	0.00457321199792204	1	73	NA	88.2660823950064	0	0.32	1.05	1	81.0415075850033	81.0460807970012	"5"	52044.170774719	52041.688598334	1.5	0.1
0.01	1	0.00391347400000086	1	73	NA	88.2660823950064	0	0.32	1.05	1	81.2751715850027	81.2790850590027	"5"	52044.170774719	52041.688598334	1.5	0.1
0.01	1	0.0031726079978398	1	73	NA	88.2660823950064	0	0.32	1.05	1	81.5089178550043	81.5120904630021	"5"	52044.170774719	52041.688598334	1.5	0.1
0.01	1	0.00319780199788511	1	73	NA	88.2660823950064	0	0.32	1.05	1	81.7425932930055	81.7457910950034	"5"	52044.170774719	52041.688598334	1.5	0.1
0.01	1	0.00431390199810266	1	73	NA	88.2660823950064	0	0.32	1.05	1	81.9762587700025	81.9805726720006	"5"	52044.170774719	52041.688598334	1.5	0.1
0.01	1	0.00406508200103417	1	73	NA	88.2660823950064	0	0.32	1.05	1	82.2100270310038	82.2140921130049	"5"	52044.170774719	52041.688598334	1.5	0.1
0.01	1	0.0045135299951653	1	73	NA	88.2660823950064	0	0.32	1.05	1	82.4437548500064	82.4482683800015	"5"	52044.170774719	52041.688598334	1.5	0.1
0.01	1	0.00389716000063345	1	73	NA	88.2660823950064	0	0.32	1.05	1	82.6774770470001	82.6813742070008	"5"	52044.170774719	52041.688598334	1.5	0.1
0.01	1	0.00454501200147206	1	73	NA	88.2660823950064	0	0.32	1.05	1	82.9111413900027	82.9156864020042	"5"	52044.170774719	52041.688598334	1.5	0.1
0.01	1	0.0037739879990113	1	73	NA	88.2660823950064	0	0.32	1.05	1	83.1449746550061	83.1487486430051	"5"	52044.170774719	52041.688598334	1.5	0.1
0.01	1	0.00400769599946216	1	73	NA	88.2660823950064	0	0.32	1.05	1	83.3787222710016	83.3827299670011	"5"	52044.170774719	52041.688598334	1.5	0.1
0.01	1	0.0033234540023841	1	73	NA	88.2660823950064	0	0.32	1.05	1	83.612349297	83.6156727510024	"5"	52044.170774719	52041.688598334	1.5	0.1
0.01	1	0.00346183000510791	1	73	NA	88.2660823950064	0	0.32	1.05	1	83.8461953250007	83.8496571550058	"5"	52044.170774719	52041.688598334	1.5	0.1
0.01	1	0.00217547400097828	1	73	NA	88.2660823950064	0	0.32	1.05	1	84.0797939180047	84.0819693920057	"5"	52044.170774719	52041.688598334	1.5	0.1
0.01	1	0.00457594700128539	1	73	NA	88.2660823950064	0	0.32	1.05	1	84.3134986900041	84.3180746370053	"5"	52044.170774719	52041.688598334	1.5	0.1
0.01	1	0.00449866699636914	1	73	NA	88.2660823950064	0	0.32	1.05	1	84.5473064250036	84.551805092	"5"	52044.170774719	52041.688598334	1.5	0.1
0.01	1	0.00349962199834408	1	73	NA	88.2660823950064	0	0.32	1.05	1	84.7809843630021	84.7844839850004	"5"	52044.170774719	52041.688598334	1.5	0.1
0.01	1	0.00451157200586749	1	73	NA	88.2660823950064	0	0.32	1.05	1	85.0147767800008	85.0192883520067	"5"	52044.170774719	52041.688598334	1.5	0.1
0.01	1	0.00380739100364735	1	73	NA	88.2660823950064	0	0.32	1.05	1	85.2485147100015	85.2523221010051	"5"	52044.170774719	52041.688598334	1.5	0.1
0.01	1	0.00384494299942162	1	73	NA	88.2660823950064	0	0.32	1.05	1	85.4821814620009	85.4860264050003	"5"	52044.170774719	52041.688598334	1.5	0.1
0.01	1	0.00384907600528095	1	73	NA	88.2660823950064	0	0.32	1.05	1	85.7158151170006	85.7196641930059	"5"	52044.170774719	52041.688598334	1.5	0.1
0.01	1	0.00393721299769823	1	73	NA	88.2660823950064	0	0.32	1.05	1	85.9496517700027	85.9535889830004	"5"	52044.170774719	52041.688598334	1.5	0.1
0.01	1	0.00377433199901134	1	73	NA	88.2660823950064	0	0.32	1.05	1	86.1833728070051	86.1871471390041	"5"	52044.170774719	52041.688598334	1.5	0.1
0.01	1	0.00450673000159441	1	73	NA	88.2660823950064	0	0.32	1.05	1	86.417025625	86.4215323550015	"5"	52044.170774719	52041.688598334	1.5	0.1
0.01	1	0.00389882000308717	1	73	NA	88.2660823950064	0	0.32	1.05	1	86.6507899170028	86.6546887370059	"5"	52044.170774719	52041.688598334	1.5	0.1
0.01	1	0.00328912999975728	1	73	NA	88.2660823950064	0	0.32	1.05	1	86.8846040570061	86.8878931870058	"5"	52044.170774719	52041.688598334	1.5	0.1
0.01	1	0.0036296609978308	1	73	NA	88.2660823950064	0	0.32	1.05	1	87.1182637600068	87.1218934210046	"5"	52044.170774719	52041.688598334	1.5	0.1
0.01	1	0.00449417799973162	1	73	NA	88.2660823950064	0	0.32	1.05	1	87.351927787	87.3564219649998	"5"	52044.170774719	52041.688598334	1.5	0.1
0.01	1	0.0039547360065626	1	73	NA	88.2660823950064	0	0.32	1.05	1	87.5857736170001	87.5897283530066	"5"	52044.170774719	52041.688598334	1.5	0.1
0.01	1	0.445021307998104	2	73	NA	88.2660823950064	0	0.32	1.05	1	87.8194450120063	88.2644663200044	"5"	52044.170774719	52041.688598334	1.5	0.1
0.01	1	0.0039381750029861	1	45	NA	99.5763531040066	0	0.38	1.43	1	90.2903280099999	90.2942661850029	"6"	52044.170774719	52041.688598334	1.5	0.1
0.01	1	0.00379705800150987	1	45	NA	99.5763531040066	0	0.38	1.43	1	90.5240396350055	90.527836693007	"6"	52044.170774719	52041.688598334	1.5	0.1
0.01	1	0.0044701399965561	1	45	NA	99.5763531040066	0	0.38	1.43	1	90.7577400350056	90.7622101750021	"6"	52044.170774719	52041.688598334	1.5	0.1
0.01	1	0.00376026600133628	1	45	NA	99.5763531040066	0	0.38	1.43	1	90.9915057370017	90.9952660030031	"6"	52044.170774719	52041.688598334	1.5	0.1
0.01	1	0.00383877099375241	1	45	NA	99.5763531040066	0	0.38	1.43	1	91.2251744100067	91.2290131810005	"6"	52044.170774719	52041.688598334	1.5	0.1
0.01	1	0.0038087849970907	1	45	NA	99.5763531040066	0	0.38	1.43	1	91.4589637400059	91.4627725250029	"6"	52044.170774719	52041.688598334	1.5	0.1
0.01	1	0.00394662500184495	1	45	NA	99.5763531040066	0	0.38	1.43	1	91.6926357800039	91.6965824050058	"6"	52044.170774719	52041.688598334	1.5	0.1
0.01	1	0.00337229200522415	1	45	NA	99.5763531040066	0	0.38	1.43	1	91.9263563450004	91.9297286370056	"6"	52044.170774719	52041.688598334	1.5	0.1
0.01	1	0.00330213800043566	1	45	NA	99.5763531040066	0	0.38	1.43	1	92.1601604170064	92.1634625550068	"6"	52044.170774719	52041.688598334	1.5	0.1
0.01	1	0.0044664279994322	1	45	NA	99.5763531040066	0	0.38	1.43	1	92.3937974640066	92.3982638920061	"6"	52044.170774719	52041.688598334	1.5	0.1
0.01	1	0.00369919099466642	1	45	NA	99.5763531040066	0	0.38	1.43	1	92.6276323520069	92.6313315430016	"6"	52044.170774719	52041.688598334	1.5	0.1
0.01	1	0.00446625699987635	1	45	NA	99.5763531040066	0	0.38	1.43	1	92.8612575050065	92.8657237620064	"6"	52044.170774719	52041.688598334	1.5	0.1
0.01	1	0.00356823800393613	1	45	NA	99.5763531040066	0	0.38	1.43	1	93.094973665	93.0985419030039	"6"	52044.170774719	52041.688598334	1.5	0.1
0.01	1	0.00382880400138674	1	45	NA	99.5763531040066	0	0.38	1.43	1	93.3286959750039	93.3325247790053	"6"	52044.170774719	52041.688598334	1.5	0.1
0.01	1	0.00457792000088375	1	45	NA	99.5763531040066	0	0.38	1.43	1	93.5624839900047	93.5670619100056	"6"	52044.170774719	52041.688598334	1.5	0.1
0.01	1	0.00448158499784768	1	45	NA	99.5763531040066	0	0.38	1.43	1	93.7961918850051	93.8006734700029	"6"	52044.170774719	52041.688598334	1.5	0.1
0.01	1	0.00343627000256674	1	45	NA	99.5763531040066	0	0.38	1.43	1	94.0299291970005	94.033365467003	"6"	52044.170774719	52041.688598334	1.5	0.1
0.01	1	0.00397304400394205	1	45	NA	99.5763531040066	0	0.38	1.43	1	94.2636860650018	94.2676591090058	"6"	52044.170774719	52041.688598334	1.5	0.1
0.01	1	0.00372302500181831	1	45	NA	99.5763531040066	0	0.38	1.43	1	94.4973000000027	94.5010230250045	"6"	52044.170774719	52041.688598334	1.5	0.1
0.01	1	0.00371861099847592	1	45	NA	99.5763531040066	0	0.38	1.43	1	94.7310757500018	94.7347943610002	"6"	52044.170774719	52041.688598334	1.5	0.1
0.01	1	0.0039727320036036	1	45	NA	99.5763531040066	0	0.38	1.43	1	94.9648713150018	94.9688440470054	"6"	52044.170774719	52041.688598334	1.5	0.1
0.01	1	0.00385077599639772	1	45	NA	99.5763531040066	0	0.38	1.43	1	95.1984777950056	95.202328571002	"6"	52044.170774719	52041.688598334	1.5	0.1
0.01	1	0.00355320899689104	1	45	NA	99.5763531040066	0	0.38	1.43	1	95.4323102500057	95.4358634590026	"6"	52044.170774719	52041.688598334	1.5	0.1
0.01	1	0.00392729199666064	1	45	NA	99.5763531040066	0	0.38	1.43	1	95.665948685004	95.6698759770006	"6"	52044.170774719	52041.688598334	1.5	0.1
0.01	1	0.00305262400070205	1	45	NA	99.5763531040066	0	0.38	1.43	1	95.8996702870063	95.902722911007	"6"	52044.170774719	52041.688598334	1.5	0.1
0.01	1	0.00366918099462055	1	45	NA	99.5763531040066	0	0.38	1.43	1	96.1334736320059	96.1371428130005	"6"	52044.170774719	52041.688598334	1.5	0.1
0.01	1	0.00397547000466147	1	45	NA	99.5763531040066	0	0.38	1.43	1	96.3672342270002	96.3712096970048	"6"	52044.170774719	52041.688598334	1.5	0.1
0.01	1	0.00387949799915077	1	45	NA	99.5763531040066	0	0.38	1.43	1	96.6008719650054	96.6047514630045	"6"	52044.170774719	52041.688598334	1.5	0.1
0.01	1	0.00316707199817756	1	45	NA	99.5763531040066	0	0.38	1.43	1	96.8345411710034	96.8377082430015	"6"	52044.170774719	52041.688598334	1.5	0.1
0.01	1	0.00377206900157034	1	45	NA	99.5763531040066	0	0.38	1.43	1	97.0683165500013	97.0720886190029	"6"	52044.170774719	52041.688598334	1.5	0.1
0.01	1	0.00372173800133169	1	45	NA	99.5763531040066	0	0.38	1.43	1	97.3020626050056	97.305784343007	"6"	52044.170774719	52041.688598334	1.5	0.1
0.01	1	0.00382103699666914	1	45	NA	99.5763531040066	0	0.38	1.43	1	97.5358331420066	97.5396541790033	"6"	52044.170774719	52041.688598334	1.5	0.1
0.01	1	0.00367659099720186	1	45	NA	99.5763531040066	0	0.38	1.43	1	97.7695841100067	97.7732607010039	"6"	52044.170774719	52041.688598334	1.5	0.1
0.01	1	0.00378508499852614	1	45	NA	99.5763531040066	0	0.38	1.43	1	98.0032757720037	98.0070608570022	"6"	52044.170774719	52041.688598334	1.5	0.1
0.01	1	0.00348333999863826	1	45	NA	99.5763531040066	0	0.38	1.43	1	98.2369860950057	98.2404694350043	"6"	52044.170774719	52041.688598334	1.5	0.1
0.01	1	0.00343770899780793	1	45	NA	99.5763531040066	0	0.38	1.43	1	98.4707139820021	98.4741516909999	"6"	52044.170774719	52041.688598334	1.5	0.1
0.01	1	0.00376340400543995	1	45	NA	99.5763531040066	0	0.38	1.43	1	98.7044156650009	98.7081790690063	"6"	52044.170774719	52041.688598334	1.5	0.1
0.01	1	0.00450750999880256	1	45	NA	99.5763531040066	0	0.38	1.43	1	98.9381104600034	98.9426179700022	"6"	52044.170774719	52041.688598334	1.5	0.1
0.01	1	0.402769298001658	2	45	NA	99.5763531040066	0	0.38	1.43	1	99.1718468520048	99.5746161500065	"6"	52044.170774719	52041.688598334	1.5	0.1
0.01	1	0.157914145995164	1	10	103.999965635005	NA	1	0	1.43	1	101.626092412007	101.784006558002	"7"	52044.170774719	52041.688598334	1.5	0.1
0.01	1	0.00454761000582948	1	10	103.999965635005	NA	1	0	1.43	1	102.01003687	102.014584480006	"7"	52044.170774719	52041.688598334	1.5	0.1
0.01	1	0.00445482699433342	1	10	103.999965635005	NA	1	0	1.43	1	102.243784535007	102.248239362001	"7"	52044.170774719	52041.688598334	1.5	0.1
0.01	1	0.00344319699797779	1	10	103.999965635005	NA	1	0	1.43	1	102.477460060007	102.480903257005	"7"	52044.170774719	52041.688598334	1.5	0.1
0.01	1	0.00453506000485504	1	10	103.999965635005	NA	1	0	1.43	1	102.711163765001	102.715698825006	"7"	52044.170774719	52041.688598334	1.5	0.1
0.01	1	0.00382374000037089	1	10	103.999965635005	NA	1	0	1.43	1	102.944894397006	102.948718137006	"7"	52044.170774719	52041.688598334	1.5	0.1
0.01	1	0.0038183750002645	1	10	103.999965635005	NA	1	0	1.43	1	103.178557340005	103.182375715005	"7"	52044.170774719	52041.688598334	1.5	0.1
0.01	1	0.00390730900107883	1	10	103.999965635005	NA	1	0	1.43	1	103.412352962005	103.416260271006	"7"	52044.170774719	52041.688598334	1.5	0.1
0.01	1	0.0038909849972697	1	10	103.999965635005	NA	1	0	1.43	1	103.646059720006	103.649950705003	"7"	52044.170774719	52041.688598334	1.5	0.1
0.01	1	0.0035269319996587	1	10	103.999965635005	NA	1	0	1.43	1	103.879834835003	103.883361767002	"7"	52044.170774719	52041.688598334	1.5	0.1
0.01	1	0.0041728649957804	1	37	114.582819455005	NA	1	0	1.43	1	106.050176307006	106.054349172002	"8"	52044.170774719	52041.688598334	1.5	0.1
0.01	1	0.00376923600560986	1	37	114.582819455005	NA	1	0	1.43	1	106.283785615	106.287554851006	"8"	52044.170774719	52041.688598334	1.5	0.1
0.01	1	0.00401019700075267	1	37	114.582819455005	NA	1	0	1.43	1	106.51761563	106.521625827001	"8"	52044.170774719	52041.688598334	1.5	0.1
0.01	1	0.0045948650003993	1	37	114.582819455005	NA	1	0	1.43	1	106.751368720004	106.755963585005	"8"	52044.170774719	52041.688598334	1.5	0.1
0.01	1	0.00327393399493303	1	37	114.582819455005	NA	1	0	1.43	1	106.985032603006	106.988306537001	"8"	52044.170774719	52041.688598334	1.5	0.1
0.01	1	0.00378023899975233	1	37	114.582819455005	NA	1	0	1.43	1	107.218760590004	107.222540829003	"8"	52044.170774719	52041.688598334	1.5	0.1
0.01	1	0.00391706499794964	1	37	114.582819455005	NA	1	0	1.43	1	107.452601540004	107.456518605002	"8"	52044.170774719	52041.688598334	1.5	0.1
0.01	1	0.00394223300099839	1	37	114.582819455005	NA	1	0	1.43	1	107.686210570006	107.690152803007	"8"	52044.170774719	52041.688598334	1.5	0.1
0.01	1	0.00363014900358394	1	37	114.582819455005	NA	1	0	1.43	1	107.919960532003	107.923590681006	"8"	52044.170774719	52041.688598334	1.5	0.1
0.01	1	0.00397896600043168	1	37	114.582819455005	NA	1	0	1.43	1	108.153584575004	108.157563541004	"8"	52044.170774719	52041.688598334	1.5	0.1
0.01	1	0.00455826699908357	1	37	114.582819455005	NA	1	0	1.43	1	108.387414210003	108.391972477002	"8"	52044.170774719	52041.688598334	1.5	0.1
0.01	1	0.00373822900291998	1	37	114.582819455005	NA	1	0	1.43	1	108.621077960001	108.624816189003	"8"	52044.170774719	52041.688598334	1.5	0.1
0.01	1	0.00346100500610191	1	37	114.582819455005	NA	1	0	1.43	1	108.854912340001	108.858373345007	"8"	52044.170774719	52041.688598334	1.5	0.1
0.01	1	0.00452798199694371	1	37	114.582819455005	NA	1	0	1.43	1	109.088540130004	109.093068112001	"8"	52044.170774719	52041.688598334	1.5	0.1
0.01	1	0.00371542000357294	1	37	114.582819455005	NA	1	0	1.43	1	109.322221905	109.325937325004	"8"	52044.170774719	52041.688598334	1.5	0.1
0.01	1	0.00455577699904097	1	37	114.582819455005	NA	1	0	1.43	1	109.555996000003	109.560551777002	"8"	52044.170774719	52041.688598334	1.5	0.1
0.01	1	0.00396892600110732	1	37	114.582819455005	NA	1	0	1.43	1	109.789809965005	109.793778891006	"8"	52044.170774719	52041.688598334	1.5	0.1
0.01	1	0.0035192499999539	1	37	114.582819455005	NA	1	0	1.43	1	110.023454365	110.026973615	"8"	52044.170774719	52041.688598334	1.5	0.1
0.01	1	0.00386678699578624	1	37	114.582819455005	NA	1	0	1.43	1	110.257177852007	110.261044639003	"8"	52044.170774719	52041.688598334	1.5	0.1
0.01	1	0.00365383299504174	1	37	114.582819455005	NA	1	0	1.43	1	110.491016650005	110.494670483	"8"	52044.170774719	52041.688598334	1.5	0.1
0.01	1	0.00383115400472889	1	37	114.582819455005	NA	1	0	1.43	1	110.724666317001	110.728497471006	"8"	52044.170774719	52041.688598334	1.5	0.1
0.01	1	0.00442741999722784	1	37	114.582819455005	NA	1	0	1.43	1	110.958423590004	110.962851010001	"8"	52044.170774719	52041.688598334	1.5	0.1
0.01	1	0.00395828700129641	1	37	114.582819455005	NA	1	0	1.43	1	111.192174962001	111.196133249003	"8"	52044.170774719	52041.688598334	1.5	0.1
0.01	1	0.00341016900347313	1	37	114.582819455005	NA	1	0	1.43	1	111.425778340003	111.429188509006	"8"	52044.170774719	52041.688598334	1.5	0.1
0.01	1	0.00398634999874048	1	37	114.582819455005	NA	1	0	1.43	1	111.659619175007	111.663605525006	"8"	52044.170774719	52041.688598334	1.5	0.1
0.01	1	0.00448720699932892	1	37	114.582819455005	NA	1	0	1.43	1	111.893277505005	111.897764712005	"8"	52044.170774719	52041.688598334	1.5	0.1
0.01	1	0.00372760299796937	1	37	114.582819455005	NA	1	0	1.43	1	112.127015542006	112.130743145004	"8"	52044.170774719	52041.688598334	1.5	0.1
0.01	1	0.00358539100125199	1	37	114.582819455005	NA	1	0	1.43	1	112.360666960005	112.364252351006	"8"	52044.170774719	52041.688598334	1.5	0.1
0.01	1	0.00392789600300603	1	37	114.582819455005	NA	1	0	1.43	1	112.594491235002	112.598419131005	"8"	52044.170774719	52041.688598334	1.5	0.1
0.01	1	0.00383402800071053	1	37	114.582819455005	NA	1	0	1.43	1	112.828174325005	112.832008353005	"8"	52044.170774719	52041.688598334	1.5	0.1
0.01	1	0.00379120299476199	1	37	114.582819455005	NA	1	0	1.43	1	113.061820532006	113.065611735001	"8"	52044.170774719	52041.688598334	1.5	0.1
0.01	1	0.00385545899916906	1	37	114.582819455005	NA	1	0	1.43	1	113.295658430005	113.299513889004	"8"	52044.170774719	52041.688598334	1.5	0.1
0.01	1	0.00454892700508935	1	37	114.582819455005	NA	1	0	1.43	1	113.52949565	113.534044577005	"8"	52044.170774719	52041.688598334	1.5	0.1
0.01	1	0.00383559599868022	1	37	114.582819455005	NA	1	0	1.43	1	113.763083157006	113.766918753005	"8"	52044.170774719	52041.688598334	1.5	0.1
0.01	1	0.0037476979996427	1	37	114.582819455005	NA	1	0	1.43	1	113.996832785	114.000580483	"8"	52044.170774719	52041.688598334	1.5	0.1
0.01	1	0.00374144499801332	1	37	114.582819455005	NA	1	0	1.43	1	114.230501690006	114.234243135004	"8"	52044.170774719	52041.688598334	1.5	0.1
0.01	1	0.00218385699554347	1	37	114.582819455005	NA	1	0	1.43	1	114.464277563005	114.466461420001	"8"	52044.170774719	52041.688598334	1.5	0.1
0.01	1	0.221111985003517	1	108	NA	125.296429260001	0	0.35	1.78	1	116.634602710001	116.855714695004	"9"	52044.170774719	52041.688598334	1.5	0.1
0.01	1	0.00391859899536939	1	108	NA	125.296429260001	0	0.35	1.78	1	117.085341572005	117.089260171	"9"	52044.170774719	52041.688598334	1.5	0.1
0.01	1	0.00371734900545562	1	108	NA	125.296429260001	0	0.35	1.78	1	117.319105702001	117.322823051007	"9"	52044.170774719	52041.688598334	1.5	0.1
0.01	1	0.00330886799929431	1	108	NA	125.296429260001	0	0.35	1.78	1	117.552786097003	117.556094965003	"9"	52044.170774719	52041.688598334	1.5	0.1
0.01	1	0.00368839500151807	1	108	NA	125.296429260001	0	0.35	1.78	1	117.786513292005	117.790201687007	"9"	52044.170774719	52041.688598334	1.5	0.1
0.01	1	0.00380386700271629	1	108	NA	125.296429260001	0	0.35	1.78	1	118.020236582001	118.024040449003	"9"	52044.170774719	52041.688598334	1.5	0.1
0.01	1	0.00393788100336678	1	108	NA	125.296429260001	0	0.35	1.78	1	118.254006682	118.257944563004	"9"	52044.170774719	52041.688598334	1.5	0.1
0.01	1	0.00382458099920768	1	108	NA	125.296429260001	0	0.35	1.78	1	118.487827850004	118.491652431003	"9"	52044.170774719	52041.688598334	1.5	0.1
0.01	1	0.00356224900315283	1	108	NA	125.296429260001	0	0.35	1.78	1	118.721418050001	118.724980299005	"9"	52044.170774719	52041.688598334	1.5	0.1
0.01	1	0.00335259499843232	1	108	NA	125.296429260001	0	0.35	1.78	1	118.955115490004	118.958468085002	"9"	52044.170774719	52041.688598334	1.5	0.1
0.01	1	0.00379361800150946	1	108	NA	125.296429260001	0	0.35	1.78	1	119.188884565003	119.192678183004	"9"	52044.170774719	52041.688598334	1.5	0.1
0.01	1	0.0038510100057465	1	108	NA	125.296429260001	0	0.35	1.78	1	119.422608825	119.426459835006	"9"	52044.170774719	52041.688598334	1.5	0.1
0.01	1	0.00352903299790341	1	108	NA	125.296429260001	0	0.35	1.78	1	119.656326032004	119.659855065001	"9"	52044.170774719	52041.688598334	1.5	0.1
0.01	1	0.0036933820010745	1	108	NA	125.296429260001	0	0.35	1.78	1	119.890016515004	119.893709897005	"9"	52044.170774719	52041.688598334	1.5	0.1
0.01	1	0.0036762660020031	1	108	NA	125.296429260001	0	0.35	1.78	1	120.123669077002	120.127345343004	"9"	52044.170774719	52041.688598334	1.5	0.1
0.01	1	0.00361610700201709	1	108	NA	125.296429260001	0	0.35	1.78	1	120.357554022004	120.361170129006	"9"	52044.170774719	52041.688598334	1.5	0.1
0.01	1	0.00425550100044347	1	108	NA	125.296429260001	0	0.35	1.78	1	120.591387361004	120.595642862005	"9"	52044.170774719	52041.688598334	1.5	0.1
0.01	1	0.00383005099865841	1	108	NA	125.296429260001	0	0.35	1.78	1	120.824998502001	120.828828553	"9"	52044.170774719	52041.688598334	1.5	0.1
0.01	1	0.0036380819947226	1	108	NA	125.296429260001	0	0.35	1.78	1	121.058786495007	121.062424577001	"9"	52044.170774719	52041.688598334	1.5	0.1
0.01	1	0.00382159299624618	1	108	NA	125.296429260001	0	0.35	1.78	1	121.292385600005	121.296207193001	"9"	52044.170774719	52041.688598334	1.5	0.1
0.01	1	0.00395094499981496	1	108	NA	125.296429260001	0	0.35	1.78	1	121.526183290007	121.530134235007	"9"	52044.170774719	52041.688598334	1.5	0.1
0.01	1	0.00391114100057166	1	108	NA	125.296429260001	0	0.35	1.78	1	121.759910072004	121.763821213004	"9"	52044.170774719	52041.688598334	1.5	0.1
0.01	1	0.00397576500108698	1	108	NA	125.296429260001	0	0.35	1.78	1	121.993652492005	121.997628257006	"9"	52044.170774719	52041.688598334	1.5	0.1
0.01	1	0.00461461200029589	1	108	NA	125.296429260001	0	0.35	1.78	1	122.227319310005	122.231933922005	"9"	52044.170774719	52041.688598334	1.5	0.1
0.01	1	0.00428332300361944	1	108	NA	125.296429260001	0	0.35	1.78	1	122.461026994002	122.465310317006	"9"	52044.170774719	52041.688598334	1.5	0.1
0.01	1	0.00327272600407014	1	108	NA	125.296429260001	0	0.35	1.78	1	122.694819005003	122.698091731007	"9"	52044.170774719	52041.688598334	1.5	0.1
0.01	1	0.00424098700023023	1	108	NA	125.296429260001	0	0.35	1.78	1	122.928521803005	122.932762790006	"9"	52044.170774719	52041.688598334	1.5	0.1
0.01	1	0.00357971800258383	1	108	NA	125.296429260001	0	0.35	1.78	1	123.162225557004	123.165805275006	"9"	52044.170774719	52041.688598334	1.5	0.1
0.01	1	0.0038923510001041	1	108	NA	125.296429260001	0	0.35	1.78	1	123.395971162005	123.399863513005	"9"	52044.170774719	52041.688598334	1.5	0.1
0.01	1	0.00455774500005646	1	108	NA	125.296429260001	0	0.35	1.78	1	123.629924330002	123.634482075002	"9"	52044.170774719	52041.688598334	1.5	0.1
0.01	1	0.00436845700460253	1	108	NA	125.296429260001	0	0.35	1.78	1	123.863440253001	123.867808710005	"9"	52044.170774719	52041.688598334	1.5	0.1
0.01	1	0.00381293399550486	1	108	NA	125.296429260001	0	0.35	1.78	1	124.097047735006	124.100860669001	"9"	52044.170774719	52041.688598334	1.5	0.1
0.01	1	0.00384180999390082	1	108	NA	125.296429260001	0	0.35	1.78	1	124.330866277007	124.334708087001	"9"	52044.170774719	52041.688598334	1.5	0.1
0.01	1	0.00450181699852692	1	108	NA	125.296429260001	0	0.35	1.78	1	124.564707455007	124.569209272006	"9"	52044.170774719	52041.688598334	1.5	0.1
0.01	1	0.00385404299595393	1	108	NA	125.296429260001	0	0.35	1.78	1	124.798330722006	124.802184765002	"9"	52044.170774719	52041.688598334	1.5	0.1
0.01	1	0.262707551002677	2	108	NA	125.296429260001	0	0.35	1.78	1	125.032037347002	125.294744898005	"9"	52044.170774719	52041.688598334	1.5	0.1
0.01	1	0.304301030999341	1	18	131.713134602003	NA	1	0	1.78	1	127.319292432003	127.623593463002	"10"	52044.170774719	52041.688598334	1.5	0.1
0.01	1	0.00376030299958074	1	18	131.713134602003	NA	1	0	1.78	1	127.853401412001	127.857161715001	"10"	52044.170774719	52041.688598334	1.5	0.1
0.01	1	0.00385083100263728	1	18	131.713134602003	NA	1	0	1.78	1	128.0871272	128.090978031003	"10"	52044.170774719	52041.688598334	1.5	0.1
0.01	1	0.00331746500160079	1	18	131.713134602003	NA	1	0	1.78	1	128.32090382	128.324221285002	"10"	52044.170774719	52041.688598334	1.5	0.1
0.01	1	0.00364697699842509	1	18	131.713134602003	NA	1	0	1.78	1	128.554677970002	128.558324947	"10"	52044.170774719	52041.688598334	1.5	0.1
0.01	1	0.00458305200299947	1	18	131.713134602003	NA	1	0	1.78	1	128.788418520002	128.793001572005	"10"	52044.170774719	52041.688598334	1.5	0.1
0.01	1	0.0038829760014778	1	18	131.713134602003	NA	1	0	1.78	1	129.022096277004	129.025979253005	"10"	52044.170774719	52041.688598334	1.5	0.1
0.01	1	0.00390894700103672	1	18	131.713134602003	NA	1	0	1.78	1	129.255953142005	129.259862089006	"10"	52044.170774719	52041.688598334	1.5	0.1
0.01	1	0.00347440099722007	1	18	131.713134602003	NA	1	0	1.78	1	129.489510852007	129.492985253004	"10"	52044.170774719	52041.688598334	1.5	0.1
0.01	1	0.00327526799810585	1	18	131.713134602003	NA	1	0	1.78	1	129.723266093002	129.726541361	"10"	52044.170774719	52041.688598334	1.5	0.1
0.01	1	0.00379842500115046	1	18	131.713134602003	NA	1	0	1.78	1	129.957090912001	129.960889337002	"10"	52044.170774719	52041.688598334	1.5	0.1
0.01	1	0.00390783100010594	1	18	131.713134602003	NA	1	0	1.78	1	130.190683762004	130.194591593005	"10"	52044.170774719	52041.688598334	1.5	0.1
0.01	1	0.00413212200510316	1	18	131.713134602003	NA	1	0	1.78	1	130.42448211	130.428614232005	"10"	52044.170774719	52041.688598334	1.5	0.1
0.01	1	0.00376829800370615	1	18	131.713134602003	NA	1	0	1.78	1	130.658192517003	130.661960815007	"10"	52044.170774719	52041.688598334	1.5	0.1
0.01	1	0.00423706800211221	1	18	131.713134602003	NA	1	0	1.78	1	130.891930935002	130.896168003004	"10"	52044.170774719	52041.688598334	1.5	0.1
0.01	1	0.00398080400191247	1	18	131.713134602003	NA	1	0	1.78	1	131.125557015002	131.129537819004	"10"	52044.170774719	52041.688598334	1.5	0.1
0.01	1	0.0038396010058932	1	18	131.713134602003	NA	1	0	1.78	1	131.35935626	131.363195861006	"10"	52044.170774719	52041.688598334	1.5	0.1
0.01	1	0.0033125860063592	1	18	131.713134602003	NA	1	0	1.78	1	131.593096327	131.596408913007	"10"	52044.170774719	52041.688598334	1.5	0.1
0.01	1	0.00386087300284998	1	2	134.100443375006	NA	1	0	1.78	1	133.74679705	133.750657923003	"11"	52044.170774719	52041.688598334	1.5	0.1
0.01	1	0.00391573600063566	1	2	134.100443375006	NA	1	0	1.78	1	133.980516517004	133.984432253004	"11"	52044.170774719	52041.688598334	1.5	0.1
0.01	1	0.216533947997959	1	107	NA	144.657855752004	0	0.34	2.12	1	136.134065705002	136.350599653	"12"	52044.170774719	52041.688598334	1.5	0.1
0.01	1	0.00391206899803365	1	107	NA	144.657855752004	0	0.34	2.12	1	136.584888000005	136.588800069003	"12"	52044.170774719	52041.688598334	1.5	0.1
0.01	1	0.00375094499759143	1	107	NA	144.657855752004	0	0.34	2.12	1	136.818592400006	136.822343345004	"12"	52044.170774719	52041.688598334	1.5	0.1
0.01	1	0.00368511999840848	1	107	NA	144.657855752004	0	0.34	2.12	1	137.052271095003	137.055956215001	"12"	52044.170774719	52041.688598334	1.5	0.1
0.01	1	0.00376207099907333	1	107	NA	144.657855752004	0	0.34	2.12	1	137.285972540005	137.289734611004	"12"	52044.170774719	52041.688598334	1.5	0.1
0.01	1	0.00395664799725637	1	107	NA	144.657855752004	0	0.34	2.12	1	137.519669947003	137.523626595001	"12"	52044.170774719	52041.688598334	1.5	0.1
0.01	1	0.00372512500325684	1	107	NA	144.657855752004	0	0.34	2.12	1	137.75344344	137.757168565004	"12"	52044.170774719	52041.688598334	1.5	0.1
0.01	1	0.0036628199959523	1	107	NA	144.657855752004	0	0.34	2.12	1	137.987157965006	137.990820785002	"12"	52044.170774719	52041.688598334	1.5	0.1
0.01	1	0.0046121769992169	1	107	NA	144.657855752004	0	0.34	2.12	1	138.220908315001	138.225520492	"12"	52044.170774719	52041.688598334	1.5	0.1
0.01	1	0.00347506099933526	1	107	NA	144.657855752004	0	0.34	2.12	1	138.454606082007	138.458081143006	"12"	52044.170774719	52041.688598334	1.5	0.1
0.01	1	0.00373864299763227	1	107	NA	144.657855752004	0	0.34	2.12	1	138.688318290006	138.692056933003	"12"	52044.170774719	52041.688598334	1.5	0.1
0.01	1	0.00453573500271887	1	107	NA	144.657855752004	0	0.34	2.12	1	138.922110350002	138.926646085005	"12"	52044.170774719	52041.688598334	1.5	0.1
0.01	1	0.0038139059979585	1	107	NA	144.657855752004	0	0.34	2.12	1	139.155857165002	139.159671071	"12"	52044.170774719	52041.688598334	1.5	0.1
0.01	1	0.00339879500097595	1	107	NA	144.657855752004	0	0.34	2.12	1	139.389558702002	139.392957497002	"12"	52044.170774719	52041.688598334	1.5	0.1
0.01	1	0.00333572900126455	1	107	NA	144.657855752004	0	0.34	2.12	1	139.623333212003	139.626668941004	"12"	52044.170774719	52041.688598334	1.5	0.1
0.01	1	0.00385135399847059	1	107	NA	144.657855752004	0	0.34	2.12	1	139.856979505006	139.860830859005	"12"	52044.170774719	52041.688598334	1.5	0.1
0.01	1	0.00371701500262134	1	107	NA	144.657855752004	0	0.34	2.12	1	140.090736210004	140.094453225007	"12"	52044.170774719	52041.688598334	1.5	0.1
0.01	1	0.00393269099731697	1	107	NA	144.657855752004	0	0.34	2.12	1	140.324444272002	140.328376963	"12"	52044.170774719	52041.688598334	1.5	0.1
0.01	1	0.0045414999985951	1	107	NA	144.657855752004	0	0.34	2.12	1	140.558152370002	140.562693870001	"12"	52044.170774719	52041.688598334	1.5	0.1
0.01	1	0.00345889399613952	1	107	NA	144.657855752004	0	0.34	2.12	1	140.792051817007	140.795510711003	"12"	52044.170774719	52041.688598334	1.5	0.1
0.01	1	0.00447503200120991	1	107	NA	144.657855752004	0	0.34	2.12	1	141.025745860003	141.030220892004	"12"	52044.170774719	52041.688598334	1.5	0.1
0.01	1	0.00454781000007642	1	107	NA	144.657855752004	0	0.34	2.12	1	141.259476635001	141.264024445001	"12"	52044.170774719	52041.688598334	1.5	0.1
0.01	1	0.00439572900359053	1	107	NA	144.657855752004	0	0.34	2.12	1	141.493044201001	141.497439930004	"12"	52044.170774719	52041.688598334	1.5	0.1
0.01	1	0.00337353400391294	1	107	NA	144.657855752004	0	0.34	2.12	1	141.726807665	141.730181199004	"12"	52044.170774719	52041.688598334	1.5	0.1
0.01	1	0.00399467299575917	1	107	NA	144.657855752004	0	0.34	2.12	1	141.960543892004	141.964538565	"12"	52044.170774719	52041.688598334	1.5	0.1
0.01	1	0.00436851399717852	1	107	NA	144.657855752004	0	0.34	2.12	1	142.194416408005	142.198784922002	"12"	52044.170774719	52041.688598334	1.5	0.1
0.01	1	0.00393887200334575	1	107	NA	144.657855752004	0	0.34	2.12	1	142.427953755003	142.431892627006	"12"	52044.170774719	52041.688598334	1.5	0.1
0.01	1	0.00341071900038514	1	107	NA	144.657855752004	0	0.34	2.12	1	142.661718682	142.665129401001	"12"	52044.170774719	52041.688598334	1.5	0.1
0.01	1	0.0032979579991661	1	107	NA	144.657855752004	0	0.34	2.12	1	142.895492617004	142.898790575004	"12"	52044.170774719	52041.688598334	1.5	0.1
0.01	1	0.00366744799976004	1	107	NA	144.657855752004	0	0.34	2.12	1	143.129122657003	143.132790105003	"12"	52044.170774719	52041.688598334	1.5	0.1
0.01	1	0.0039084259988158	1	107	NA	144.657855752004	0	0.34	2.12	1	143.362883535003	143.366791961002	"12"	52044.170774719	52041.688598334	1.5	0.1
0.01	1	0.00436092699965229	1	107	NA	144.657855752004	0	0.34	2.12	1	143.596572490002	143.600933417001	"12"	52044.170774719	52041.688598334	1.5	0.1
0.01	1	0.00349068000650732	1	107	NA	144.657855752004	0	0.34	2.12	1	143.830390657	143.833881337006	"12"	52044.170774719	52041.688598334	1.5	0.1
0.01	1	0.00366896700143116	1	107	NA	144.657855752004	0	0.34	2.12	1	144.06399807	144.067667037001	"12"	52044.170774719	52041.688598334	1.5	0.1
0.01	1	0.358287820999976	2	107	NA	144.657855752004	0	0.34	2.12	1	144.297893232004	144.656181053004	"12"	52044.170774719	52041.688598334	1.5	0.1
0.01	1	0.00389823700243142	1	119	NA	156.977284703004	0	0.42	2.54	1	146.701858982	146.705757219002	"13"	52044.170774719	52041.688598334	1.5	0.1
0.01	1	0.00380434500402771	1	119	NA	156.977284703004	0	0.42	2.54	1	146.935651772001	146.939456117005	"13"	52044.170774719	52041.688598334	1.5	0.1
0.01	1	0.00395842700527282	1	119	NA	156.977284703004	0	0.42	2.54	1	147.169361622	147.173320049005	"13"	52044.170774719	52041.688598334	1.5	0.1
0.01	1	0.00377828999626217	1	119	NA	156.977284703004	0	0.42	2.54	1	147.403017895005	147.406796185001	"13"	52044.170774719	52041.688598334	1.5	0.1
0.01	1	0.0038428450061474	1	119	NA	156.977284703004	0	0.42	2.54	1	147.6367665	147.640609345006	"13"	52044.170774719	52041.688598334	1.5	0.1
0.01	1	0.00365714500367176	1	119	NA	156.977284703004	0	0.42	2.54	1	147.870476882003	147.874134027006	"13"	52044.170774719	52041.688598334	1.5	0.1
0.01	1	0.00388332299917238	1	119	NA	156.977284703004	0	0.42	2.54	1	148.104088120002	148.107971443002	"13"	52044.170774719	52041.688598334	1.5	0.1
0.01	1	0.00353634200291708	1	119	NA	156.977284703004	0	0.42	2.54	1	148.337902485	148.341438827003	"13"	52044.170774719	52041.688598334	1.5	0.1
0.01	1	0.00457281999842962	1	119	NA	156.977284703004	0	0.42	2.54	1	148.571588925006	148.576161745004	"13"	52044.170774719	52041.688598334	1.5	0.1
0.01	1	0.00385652499971911	1	119	NA	156.977284703004	0	0.42	2.54	1	148.805385000007	148.809241525007	"13"	52044.170774719	52041.688598334	1.5	0.1
0.01	1	0.00449541499983752	1	119	NA	156.977284703004	0	0.42	2.54	1	149.039116915003	149.043612330002	"13"	52044.170774719	52041.688598334	1.5	0.1
0.01	1	0.00390585599961923	1	119	NA	156.977284703004	0	0.42	2.54	1	149.272908117004	149.276813973003	"13"	52044.170774719	52041.688598334	1.5	0.1
0.01	1	0.00373312300507678	1	119	NA	156.977284703004	0	0.42	2.54	1	149.506549532001	149.510282655006	"13"	52044.170774719	52041.688598334	1.5	0.1
0.01	1	0.00459247500111815	1	119	NA	156.977284703004	0	0.42	2.54	1	149.740373650005	149.744966125007	"13"	52044.170774719	52041.688598334	1.5	0.1
0.01	1	0.00331757499952801	1	119	NA	156.977284703004	0	0.42	2.54	1	149.974047132004	149.977364707003	"13"	52044.170774719	52041.688598334	1.5	0.1
0.01	1	0.0036404600032256	1	119	NA	156.977284703004	0	0.42	2.54	1	150.207832655004	150.211473115007	"13"	52044.170774719	52041.688598334	1.5	0.1
0.01	1	0.00364289500430459	1	119	NA	156.977284703004	0	0.42	2.54	1	150.441521330002	150.445164225006	"13"	52044.170774719	52041.688598334	1.5	0.1
0.01	1	0.00445589699666016	1	119	NA	156.977284703004	0	0.42	2.54	1	150.675119705003	150.679575602	"13"	52044.170774719	52041.688598334	1.5	0.1
0.01	1	0.00455767200037371	1	119	NA	156.977284703004	0	0.42	2.54	1	150.908935400003	150.913493072003	"13"	52044.170774719	52041.688598334	1.5	0.1
0.01	1	0.00340141500055324	1	119	NA	156.977284703004	0	0.42	2.54	1	151.142664152001	151.146065567002	"13"	52044.170774719	52041.688598334	1.5	0.1
0.01	1	0.00335956100025214	1	119	NA	156.977284703004	0	0.42	2.54	1	151.376325612	151.379685173	"13"	52044.170774719	52041.688598334	1.5	0.1
0.01	1	0.00441111699910834	1	119	NA	156.977284703004	0	0.42	2.54	1	151.610058915001	151.614470032	"13"	52044.170774719	52041.688598334	1.5	0.1
0.01	1	0.00354133200016804	1	119	NA	156.977284703004	0	0.42	2.54	1	151.843872737001	151.847414069001	"13"	52044.170774719	52041.688598334	1.5	0.1
0.01	1	0.00374517399905017	1	119	NA	156.977284703004	0	0.42	2.54	1	152.077596285002	152.081341459001	"13"	52044.170774719	52041.688598334	1.5	0.1
0.01	1	0.00338344299962046	1	119	NA	156.977284703004	0	0.42	2.54	1	152.311220430005	152.314603873005	"13"	52044.170774719	52041.688598334	1.5	0.1
0.01	1	0.00360888300201623	1	119	NA	156.977284703004	0	0.42	2.54	1	152.545010000002	152.548618883004	"13"	52044.170774719	52041.688598334	1.5	0.1
0.01	1	0.00448858200252289	1	119	NA	156.977284703004	0	0.42	2.54	1	152.778796675004	152.783285257006	"13"	52044.170774719	52041.688598334	1.5	0.1
0.01	1	0.0038274940015981	1	119	NA	156.977284703004	0	0.42	2.54	1	153.012431825002	153.016259319003	"13"	52044.170774719	52041.688598334	1.5	0.1
0.01	1	0.00322938199678902	1	119	NA	156.977284703004	0	0.42	2.54	1	153.246299333005	153.249528715001	"13"	52044.170774719	52041.688598334	1.5	0.1
0.01	1	0.00348084699362516	1	119	NA	156.977284703004	0	0.42	2.54	1	153.479932550006	153.483413397	"13"	52044.170774719	52041.688598334	1.5	0.1
0.01	1	0.00426373999653151	1	119	NA	156.977284703004	0	0.42	2.54	1	153.713669325007	153.717933065003	"13"	52044.170774719	52041.688598334	1.5	0.1
0.01	1	0.00382882499980042	1	119	NA	156.977284703004	0	0.42	2.54	1	153.947421640005	153.951250465005	"13"	52044.170774719	52041.688598334	1.5	0.1
0.01	1	0.00367344299593242	1	119	NA	156.977284703004	0	0.42	2.54	1	154.181073370004	154.184746813	"13"	52044.170774719	52041.688598334	1.5	0.1
0.01	1	0.00386507499933941	1	119	NA	156.977284703004	0	0.42	2.54	1	154.414855172006	154.418720247006	"13"	52044.170774719	52041.688598334	1.5	0.1
0.01	1	0.00451787000201875	1	119	NA	156.977284703004	0	0.42	2.54	1	154.648547215002	154.653065085004	"13"	52044.170774719	52041.688598334	1.5	0.1
0.01	1	0.00441871499788249	1	119	NA	156.977284703004	0	0.42	2.54	1	154.882314820003	154.886733535001	"13"	52044.170774719	52041.688598334	1.5	0.1
0.01	1	0.00607513899740297	1	119	NA	156.977284703004	0	0.42	2.54	1	155.115934860005	155.122009999002	"13"	52044.170774719	52041.688598334	1.5	0.1
0.01	1	0.00377519400353776	1	119	NA	156.977284703004	0	0.42	2.54	1	155.349714575001	155.353489769004	"13"	52044.170774719	52041.688598334	1.5	0.1
0.01	1	0.00387824900099076	1	119	NA	156.977284703004	0	0.42	2.54	1	155.583464660005	155.587342909006	"13"	52044.170774719	52041.688598334	1.5	0.1
0.01	1	0.00359908599784831	1	119	NA	156.977284703004	0	0.42	2.54	1	155.817211407004	155.820810493002	"13"	52044.170774719	52041.688598334	1.5	0.1
0.01	1	0.00452270200185012	1	119	NA	156.977284703004	0	0.42	2.54	1	156.050915690001	156.055438392003	"13"	52044.170774719	52041.688598334	1.5	0.1
0.01	1	0.00458847199479351	1	119	NA	156.977284703004	0	0.42	2.54	1	156.284614945005	156.289203417	"13"	52044.170774719	52041.688598334	1.5	0.1
0.01	1	0.457424814005208	2	119	NA	156.977284703004	0	0.42	2.54	1	156.518343632	156.975768446006	"13"	52044.170774719	52041.688598334	1.5	0.1
0.01	1	0.353915790998144	1	71	NA	169.240835253004	0	0.4	2.94	1	159.022540950005	159.376456741003	"14"	52044.170774719	52041.688598334	1.5	0.1
0.01	1	0.00391517399839358	1	71	NA	169.240835253004	0	0.4	2.94	1	159.606861095002	159.610776269001	"14"	52044.170774719	52041.688598334	1.5	0.1
0.01	1	0.0039641789990128	1	71	NA	169.240835253004	0	0.4	2.94	1	159.840708690004	159.844672869003	"14"	52044.170774719	52041.688598334	1.5	0.1
0.01	1	0.0032847580005182	1	71	NA	169.240835253004	0	0.4	2.94	1	160.074311635006	160.077596393006	"14"	52044.170774719	52041.688598334	1.5	0.1
0.01	1	0.00367278399789939	1	71	NA	169.240835253004	0	0.4	2.94	1	160.308080965006	160.311753749003	"14"	52044.170774719	52041.688598334	1.5	0.1
0.01	1	0.00395349299651571	1	71	NA	169.240835253004	0	0.4	2.94	1	160.541855430005	160.545808923001	"14"	52044.170774719	52041.688598334	1.5	0.1
0.01	1	0.00216783900395967	1	71	NA	169.240835253004	0	0.4	2.94	1	160.775489852	160.777657691004	"14"	52044.170774719	52041.688598334	1.5	0.1
0.01	1	0.0037563610021607	1	71	NA	169.240835253004	0	0.4	2.94	1	161.009152472005	161.012908833007	"14"	52044.170774719	52041.688598334	1.5	0.1
0.01	1	0.00393573300243588	1	71	NA	169.240835253004	0	0.4	2.94	1	161.242970740001	161.246906473003	"14"	52044.170774719	52041.688598334	1.5	0.1
0.01	1	0.00377237499924377	1	71	NA	169.240835253004	0	0.4	2.94	1	161.476634070001	161.480406445	"14"	52044.170774719	52041.688598334	1.5	0.1
0.01	1	0.0043188290001126	1	71	NA	169.240835253004	0	0.4	2.94	1	161.710457141002	161.714775970002	"14"	52044.170774719	52041.688598334	1.5	0.1
0.01	1	0.00363351599662565	1	71	NA	169.240835253004	0	0.4	2.94	1	161.944106017007	161.947739533003	"14"	52044.170774719	52041.688598334	1.5	0.1
0.01	1	0.00430651300121099	1	71	NA	169.240835253004	0	0.4	2.94	1	162.177886607002	162.182193120003	"14"	52044.170774719	52041.688598334	1.5	0.1
0.01	1	0.00333527100156061	1	71	NA	169.240835253004	0	0.4	2.94	1	162.411565832001	162.414901103002	"14"	52044.170774719	52041.688598334	1.5	0.1
0.01	1	0.00364958000136539	1	71	NA	169.240835253004	0	0.4	2.94	1	162.645254395	162.648903975001	"14"	52044.170774719	52041.688598334	1.5	0.1
0.01	1	0.00383896600396838	1	71	NA	169.240835253004	0	0.4	2.94	1	162.879048515002	162.882887481006	"14"	52044.170774719	52041.688598334	1.5	0.1
0.01	1	0.00461301500035916	1	71	NA	169.240835253004	0	0.4	2.94	1	163.112785245001	163.117398260001	"14"	52044.170774719	52041.688598334	1.5	0.1
0.01	1	0.0034775530002662	1	71	NA	169.240835253004	0	0.4	2.94	1	163.346547242007	163.350024795007	"14"	52044.170774719	52041.688598334	1.5	0.1
0.01	1	0.00397559799603187	1	71	NA	169.240835253004	0	0.4	2.94	1	163.580322199006	163.584297797002	"14"	52044.170774719	52041.688598334	1.5	0.1
0.01	1	0.00328342200373299	1	71	NA	169.240835253004	0	0.4	2.94	1	163.813951557	163.817234979004	"14"	52044.170774719	52041.688598334	1.5	0.1
0.01	1	0.00476182200509356	1	71	NA	169.240835253004	0	0.4	2.94	1	164.0477809	164.052542722005	"14"	52044.170774719	52041.688598334	1.5	0.1
0.01	1	0.00452542999846628	1	71	NA	169.240835253004	0	0.4	2.94	1	164.281466425004	164.285991855002	"14"	52044.170774719	52041.688598334	1.5	0.1
0.01	1	0.00393407699448289	1	71	NA	169.240835253004	0	0.4	2.94	1	164.515046080007	164.518980157001	"14"	52044.170774719	52041.688598334	1.5	0.1
0.01	1	0.00358718800271163	1	71	NA	169.240835253004	0	0.4	2.94	1	164.748850497002	164.752437685005	"14"	52044.170774719	52041.688598334	1.5	0.1
0.01	1	0.00384933199529769	1	71	NA	169.240835253004	0	0.4	2.94	1	164.982629795006	164.986479127001	"14"	52044.170774719	52041.688598334	1.5	0.1
0.01	1	0.00392600300256163	1	71	NA	169.240835253004	0	0.4	2.94	1	165.216348262002	165.220274265004	"14"	52044.170774719	52041.688598334	1.5	0.1
0.01	1	0.00407134000124643	1	71	NA	169.240835253004	0	0.4	2.94	1	165.450123277005	165.454194617007	"14"	52044.170774719	52041.688598334	1.5	0.1
0.01	1	0.00393438299943227	1	71	NA	169.240835253004	0	0.4	2.94	1	165.683764860005	165.687699243004	"14"	52044.170774719	52041.688598334	1.5	0.1
0.01	1	0.00316929800465005	1	71	NA	169.240835253004	0	0.4	2.94	1	165.917437819	165.920607117005	"14"	52044.170774719	52041.688598334	1.5	0.1
0.01	1	0.00374044000636786	1	71	NA	169.240835253004	0	0.4	2.94	1	166.151310875	166.155051315007	"14"	52044.170774719	52041.688598334	1.5	0.1
0.01	1	0.00382368900318397	1	71	NA	169.240835253004	0	0.4	2.94	1	166.384978642003	166.388802331006	"14"	52044.170774719	52041.688598334	1.5	0.1
0.01	1	0.00386135900043882	1	71	NA	169.240835253004	0	0.4	2.94	1	166.618675740006	166.622537099007	"14"	52044.170774719	52041.688598334	1.5	0.1
0.01	1	0.00325853799586184	1	71	NA	169.240835253004	0	0.4	2.94	1	166.852431511004	166.855690049	"14"	52044.170774719	52041.688598334	1.5	0.1
0.01	1	0.00337111300177639	1	71	NA	169.240835253004	0	0.4	2.94	1	167.086182292005	167.089553405007	"14"	52044.170774719	52041.688598334	1.5	0.1
0.01	1	0.00460913199640345	1	71	NA	169.240835253004	0	0.4	2.94	1	167.319897625006	167.324506757002	"14"	52044.170774719	52041.688598334	1.5	0.1
0.01	1	0.00388619000295876	1	71	NA	169.240835253004	0	0.4	2.94	1	167.553560767003	167.557446957006	"14"	52044.170774719	52041.688598334	1.5	0.1
0.01	1	0.00346406699827639	1	71	NA	169.240835253004	0	0.4	2.94	1	167.787401452006	167.790865519004	"14"	52044.170774719	52041.688598334	1.5	0.1
0.01	1	0.00341141499666264	1	71	NA	169.240835253004	0	0.4	2.94	1	168.021053300006	168.024464715003	"14"	52044.170774719	52041.688598334	1.5	0.1
0.01	1	0.00395150999975158	1	71	NA	169.240835253004	0	0.4	2.94	1	168.254758185001	168.258709695001	"14"	52044.170774719	52041.688598334	1.5	0.1
0.01	1	0.00378680200083181	1	71	NA	169.240835253004	0	0.4	2.94	1	168.488395665001	168.492182467002	"14"	52044.170774719	52041.688598334	1.5	0.1
0.01	1	0.517020466999384	2	71	NA	169.240835253004	0	0.4	2.94	1	168.722229397004	169.239249864004	"14"	52044.170774719	52041.688598334	1.5	0.1
0.01	1	0.331031095003709	1	32	178.975934242	NA	1	0	2.94	1	171.276528665003	171.607559760007	"15"	52044.170774719	52041.688598334	1.5	0.1
0.01	1	0.00368317299580667	1	32	178.975934242	NA	1	0	2.94	1	171.844149170007	171.847832343003	"15"	52044.170774719	52041.688598334	1.5	0.1
0.01	1	0.00387883400253486	1	32	178.975934242	NA	1	0	2.94	1	172.077883225	172.081762059002	"15"	52044.170774719	52041.688598334	1.5	0.1
0.01	1	0.00363300000026356	1	32	178.975934242	NA	1	0	2.94	1	172.311576337001	172.315209337001	"15"	52044.170774719	52041.688598334	1.5	0.1
0.01	1	0.00356109099811874	1	32	178.975934242	NA	1	0	2.94	1	172.545322942002	172.548884033	"15"	52044.170774719	52041.688598334	1.5	0.1
0.01	1	0.00419424700521631	1	32	178.975934242	NA	1	0	2.94	1	172.779017672001	172.783211919006	"15"	52044.170774719	52041.688598334	1.5	0.1
0.01	1	0.00453510700026527	1	32	178.975934242	NA	1	0	2.94	1	173.012748445006	173.017283552006	"15"	52044.170774719	52041.688598334	1.5	0.1
0.01	1	0.00453363500128035	1	32	178.975934242	NA	1	0	2.94	1	173.246478075002	173.251011710003	"15"	52044.170774719	52041.688598334	1.5	0.1
0.01	1	0.00327513200318208	1	32	178.975934242	NA	1	0	2.94	1	173.480264013	173.483539145003	"15"	52044.170774719	52041.688598334	1.5	0.1
0.01	1	0.00336817299830727	1	32	178.975934242	NA	1	0	2.94	1	173.713974832004	173.717343005002	"15"	52044.170774719	52041.688598334	1.5	0.1
0.01	1	0.00450774700584589	1	32	178.975934242	NA	1	0	2.94	1	173.947737955001	173.952245702007	"15"	52044.170774719	52041.688598334	1.5	0.1
0.01	1	0.0037901760006207	1	32	178.975934242	NA	1	0	2.94	1	174.181373375002	174.185163551003	"15"	52044.170774719	52041.688598334	1.5	0.1
0.01	1	0.00381203599681612	1	32	178.975934242	NA	1	0	2.94	1	174.415208445003	174.419020481	"15"	52044.170774719	52041.688598334	1.5	0.1
0.01	1	0.00362237799708964	1	32	178.975934242	NA	1	0	2.94	1	174.648882675006	174.652505053004	"15"	52044.170774719	52041.688598334	1.5	0.1
0.01	1	0.00334441100130789	1	32	178.975934242	NA	1	0	2.94	1	174.882590460002	174.885934871003	"15"	52044.170774719	52041.688598334	1.5	0.1
0.01	1	0.00394057500670897	1	32	178.975934242	NA	1	0	2.94	1	175.11627097	175.120211545007	"15"	52044.170774719	52041.688598334	1.5	0.1
0.01	1	0.00351851800223812	1	32	178.975934242	NA	1	0	2.94	1	175.349933195001	175.353451713003	"15"	52044.170774719	52041.688598334	1.5	0.1
0.01	1	0.00218244700226933	1	32	178.975934242	NA	1	0	2.94	1	175.583770213001	175.585952660003	"15"	52044.170774719	52041.688598334	1.5	0.1
0.01	1	0.00359748800110538	1	32	178.975934242	NA	1	0	2.94	1	175.817439425002	175.821036913003	"15"	52044.170774719	52041.688598334	1.5	0.1
0.01	1	0.00218346900510369	1	32	178.975934242	NA	1	0	2.94	1	176.051026795001	176.053210264006	"15"	52044.170774719	52041.688598334	1.5	0.1
0.01	1	0.00349866800388554	1	32	178.975934242	NA	1	0	2.94	1	176.285013505003	176.288512173007	"15"	52044.170774719	52041.688598334	1.5	0.1
0.01	1	0.00380357700487366	1	32	178.975934242	NA	1	0	2.94	1	176.518658410001	176.522461987006	"15"	52044.170774719	52041.688598334	1.5	0.1
0.01	1	0.00380512700212421	1	32	178.975934242	NA	1	0	2.94	1	176.752367212001	176.756172339003	"15"	52044.170774719	52041.688598334	1.5	0.1
0.01	1	0.00375063299725298	1	32	178.975934242	NA	1	0	2.94	1	176.986159470005	176.989910103002	"15"	52044.170774719	52041.688598334	1.5	0.1
0.01	1	0.00342934399668593	1	32	178.975934242	NA	1	0	2.94	1	177.219797157006	177.223226501003	"15"	52044.170774719	52041.688598334	1.5	0.1
0.01	1	0.00351186499756295	1	32	178.975934242	NA	1	0	2.94	1	177.453442222002	177.456954087	"15"	52044.170774719	52041.688598334	1.5	0.1
0.01	1	0.00387229100306286	1	32	178.975934242	NA	1	0	2.94	1	177.687313100003	177.691185391006	"15"	52044.170774719	52041.688598334	1.5	0.1
0.01	1	0.00392215199826751	1	32	178.975934242	NA	1	0	2.94	1	177.921083715002	177.925005867	"15"	52044.170774719	52041.688598334	1.5	0.1
0.01	1	0.00387060699722497	1	32	178.975934242	NA	1	0	2.94	1	178.154713810007	178.158584417004	"15"	52044.170774719	52041.688598334	1.5	0.1
0.01	1	0.00387160300306277	1	32	178.975934242	NA	1	0	2.94	1	178.388412200002	178.392283803005	"15"	52044.170774719	52041.688598334	1.5	0.1
0.01	1	0.00350531000003684	1	32	178.975934242	NA	1	0	2.94	1	178.622144505003	178.625649815003	"15"	52044.170774719	52041.688598334	1.5	0.1
0.01	1	0.00420097800088115	1	32	178.975934242	NA	1	0	2.94	1	178.855978427004	178.860179405005	"15"	52044.170774719	52041.688598334	1.5	0.1
0.01	1	0.0038279469954432	1	7	182.548588925005	NA	1	0	2.94	1	181.026179602006	181.030007549001	"16"	52044.170774719	52041.688598334	1.5	0.1
0.01	1	0.00365820499428082	1	7	182.548588925005	NA	1	0	2.94	1	181.260023842005	181.263682047	"16"	52044.170774719	52041.688598334	1.5	0.1
0.01	1	0.00392719199589919	1	7	182.548588925005	NA	1	0	2.94	1	181.493654235004	181.497581427	"16"	52044.170774719	52041.688598334	1.5	0.1
0.01	1	0.0036948869965272	1	7	182.548588925005	NA	1	0	2.94	1	181.727348812004	181.731043699001	"16"	52044.170774719	52041.688598334	1.5	0.1
0.01	1	0.00395994700375013	1	7	182.548588925005	NA	1	0	2.94	1	181.96113951	181.965099457004	"16"	52044.170774719	52041.688598334	1.5	0.1
0.01	1	0.00458065499697113	1	7	182.548588925005	NA	1	0	2.94	1	182.194887030004	182.199467685001	"16"	52044.170774719	52041.688598334	1.5	0.1
0.01	1	0.00388464699790347	1	7	182.548588925005	NA	1	0	2.94	1	182.428566842005	182.432451489003	"16"	52044.170774719	52041.688598334	1.5	0.1
0.01	1	0.0042642269982025	1	49	NA	192.121137508002	0	0.31	3.25	1	184.598943230005	184.603207457003	"17"	52044.170774719	52041.688598334	1.5	0.1
0.01	1	0.00396329700015485	1	49	NA	192.121137508002	0	0.31	3.25	1	184.832605932002	184.836569229003	"17"	52044.170774719	52041.688598334	1.5	0.1
0.01	1	0.00397908299783012	1	49	NA	192.121137508002	0	0.31	3.25	1	185.066385150007	185.070364233005	"17"	52044.170774719	52041.688598334	1.5	0.1
0.01	1	0.0038567539959331	1	49	NA	192.121137508002	0	0.31	3.25	1	185.300018785005	185.303875539001	"17"	52044.170774719	52041.688598334	1.5	0.1
0.01	1	0.00334990499686683	1	49	NA	192.121137508002	0	0.31	3.25	1	185.533818792006	185.537168697003	"17"	52044.170774719	52041.688598334	1.5	0.1
0.01	1	0.00385120700229891	1	49	NA	192.121137508002	0	0.31	3.25	1	185.767611380004	185.771462587007	"17"	52044.170774719	52041.688598334	1.5	0.1
0.01	1	0.00398285600385861	1	49	NA	192.121137508002	0	0.31	3.25	1	186.001278645002	186.005261501006	"17"	52044.170774719	52041.688598334	1.5	0.1
0.01	1	0.004334977005783	1	49	NA	192.121137508002	0	0.31	3.25	1	186.235043893001	186.239378870006	"17"	52044.170774719	52041.688598334	1.5	0.1
0.01	1	0.00378306899801828	1	49	NA	192.121137508002	0	0.31	3.25	1	186.468789992003	186.472573061001	"17"	52044.170774719	52041.688598334	1.5	0.1
0.01	1	0.00364603799971519	1	49	NA	192.121137508002	0	0.31	3.25	1	186.702499325002	186.706145363001	"17"	52044.170774719	52041.688598334	1.5	0.1
0.01	1	0.00392975399881834	1	49	NA	192.121137508002	0	0.31	3.25	1	186.936196267001	186.940126021	"17"	52044.170774719	52041.688598334	1.5	0.1
0.01	1	0.00393290299689397	1	49	NA	192.121137508002	0	0.31	3.25	1	187.169862630006	187.173795533003	"17"	52044.170774719	52041.688598334	1.5	0.1
0.01	1	0.00384768399817403	1	49	NA	192.121137508002	0	0.31	3.25	1	187.403628055006	187.407475739004	"17"	52044.170774719	52041.688598334	1.5	0.1
0.01	1	0.00386465599876828	1	49	NA	192.121137508002	0	0.31	3.25	1	187.637398515006	187.641263171005	"17"	52044.170774719	52041.688598334	1.5	0.1
0.01	1	0.00451342000451405	1	49	NA	192.121137508002	0	0.31	3.25	1	187.871134050001	187.875647470006	"17"	52044.170774719	52041.688598334	1.5	0.1
0.01	1	0.00401592499838443	1	49	NA	192.121137508002	0	0.31	3.25	1	188.104770260004	188.108786185003	"17"	52044.170774719	52041.688598334	1.5	0.1
0.01	1	0.00388196299900301	1	49	NA	192.121137508002	0	0.31	3.25	1	188.338608040001	188.342490003	"17"	52044.170774719	52041.688598334	1.5	0.1
0.01	1	0.00476156199874822	1	49	NA	192.121137508002	0	0.31	3.25	1	188.572246380005	188.577007942004	"17"	52044.170774719	52041.688598334	1.5	0.1
0.01	1	0.00383950200193794	1	49	NA	192.121137508002	0	0.31	3.25	1	188.805938835001	188.809778337003	"17"	52044.170774719	52041.688598334	1.5	0.1
0.01	1	0.00450614000146743	1	49	NA	192.121137508002	0	0.31	3.25	1	189.039777605001	189.044283745003	"17"	52044.170774719	52041.688598334	1.5	0.1
0.01	1	0.00384163200214971	1	49	NA	192.121137508002	0	0.31	3.25	1	189.273398065001	189.277239697003	"17"	52044.170774719	52041.688598334	1.5	0.1
0.01	1	0.00452192200464197	1	49	NA	192.121137508002	0	0.31	3.25	1	189.507255730001	189.511777652006	"17"	52044.170774719	52041.688598334	1.5	0.1
0.01	1	0.00368004199845018	1	49	NA	192.121137508002	0	0.31	3.25	1	189.740883795006	189.744563837005	"17"	52044.170774719	52041.688598334	1.5	0.1
0.01	1	0.0033994920013356	1	49	NA	192.121137508002	0	0.31	3.25	1	189.974635735001	189.978035227003	"17"	52044.170774719	52041.688598334	1.5	0.1
0.01	1	0.00327560200094013	1	49	NA	192.121137508002	0	0.31	3.25	1	190.208403215001	190.211678817002	"17"	52044.170774719	52041.688598334	1.5	0.1
0.01	1	0.00384519899671432	1	49	NA	192.121137508002	0	0.31	3.25	1	190.442011230007	190.445856429003	"17"	52044.170774719	52041.688598334	1.5	0.1
0.01	1	0.00371794399688952	1	49	NA	192.121137508002	0	0.31	3.25	1	190.675749785005	190.679467729002	"17"	52044.170774719	52041.688598334	1.5	0.1
0.01	1	0.00452781200147001	1	49	NA	192.121137508002	0	0.31	3.25	1	190.909628925001	190.914156737002	"17"	52044.170774719	52041.688598334	1.5	0.1
0.01	1	0.00220727099804208	1	49	NA	192.121137508002	0	0.31	3.25	1	191.143233785006	191.145441056004	"17"	52044.170774719	52041.688598334	1.5	0.1
0.01	1	0.0032686519989511	1	49	NA	192.121137508002	0	0.31	3.25	1	191.376931525003	191.380200177002	"17"	52044.170774719	52041.688598334	1.5	0.1
0.01	1	0.00377615400066134	1	49	NA	192.121137508002	0	0.31	3.25	1	191.610747457002	191.614523611002	"17"	52044.170774719	52041.688598334	1.5	0.1
0.01	1	0.275063582004805	2	49	NA	192.121137508002	0	0.31	3.25	1	191.844475090002	192.119538672006	"17"	52044.170774719	52041.688598334	1.5	0.1
0.01	1	0.322458376002032	1	17	198.341797305002	NA	1	0	3.25	1	194.164936797002	194.487395173004	"18"	52044.170774719	52041.688598334	1.5	0.1
0.01	1	0.00379777100170031	1	17	198.341797305002	NA	1	0	3.25	1	194.715931052	194.719728823002	"18"	52044.170774719	52041.688598334	1.5	0.1
0.01	1	0.00398769300227286	1	17	198.341797305002	NA	1	0	3.25	1	194.949689612004	194.953677305006	"18"	52044.170774719	52041.688598334	1.5	0.1
0.01	1	0.00486929700127803	1	17	198.341797305002	NA	1	0	3.25	1	195.183415295003	195.188284592004	"18"	52044.170774719	52041.688598334	1.5	0.1
0.01	1	0.00390270099887857	1	17	198.341797305002	NA	1	0	3.25	1	195.417104112006	195.421006813005	"18"	52044.170774719	52041.688598334	1.5	0.1
0.01	1	0.00385748199914815	1	17	198.341797305002	NA	1	0	3.25	1	195.650802285003	195.654659767002	"18"	52044.170774719	52041.688598334	1.5	0.1
0.01	1	0.0037219739970169	1	17	198.341797305002	NA	1	0	3.25	1	195.884564645006	195.888286619003	"18"	52044.170774719	52041.688598334	1.5	0.1
0.01	1	0.00237917600315996	1	17	198.341797305002	NA	1	0	3.25	1	196.118230795	196.120609971003	"18"	52044.170774719	52041.688598334	1.5	0.1
0.01	1	0.0035511040041456	1	17	198.341797305002	NA	1	0	3.25	1	196.351973655001	196.355524759005	"18"	52044.170774719	52041.688598334	1.5	0.1
0.01	1	0.00394723299541511	1	17	198.341797305002	NA	1	0	3.25	1	196.585690652006	196.589637885001	"18"	52044.170774719	52041.688598334	1.5	0.1
0.01	1	0.00387516099726781	1	17	198.341797305002	NA	1	0	3.25	1	196.819429940006	196.823305101003	"18"	52044.170774719	52041.688598334	1.5	0.1
0.01	1	0.00377565199596575	1	17	198.341797305002	NA	1	0	3.25	1	197.053201017006	197.056976669002	"18"	52044.170774719	52041.688598334	1.5	0.1
0.01	1	0.00365405000047758	1	17	198.341797305002	NA	1	0	3.25	1	197.286864957001	197.290519007001	"18"	52044.170774719	52041.688598334	1.5	0.1
0.01	1	0.00399710900092032	1	17	198.341797305002	NA	1	0	3.25	1	197.520685062002	197.524682171002	"18"	52044.170774719	52041.688598334	1.5	0.1
0.01	1	0.00383673699980136	1	17	198.341797305002	NA	1	0	3.25	1	197.754415532007	197.758252269006	"18"	52044.170774719	52041.688598334	1.5	0.1
0.01	1	0.00383331900229678	1	17	198.341797305002	NA	1	0	3.25	1	197.988077572001	197.991910891003	"18"	52044.170774719	52041.688598334	1.5	0.1
0.01	1	0.0035126059956383	1	17	198.341797305002	NA	1	0	3.25	1	198.221758085005	198.225270691	"18"	52044.170774719	52041.688598334	1.5	0.1
0.01	1	0.00391019800008507	1	20	204.937459680004	NA	1	0	3.25	1	200.375467305006	200.379377503006	"19"	52044.170774719	52041.688598334	1.5	0.1
0.01	1	0.00383779299590969	1	20	204.937459680004	NA	1	0	3.25	1	200.609248290006	200.613086083002	"19"	52044.170774719	52041.688598334	1.5	0.1
0.01	1	0.00456608699460048	1	20	204.937459680004	NA	1	0	3.25	1	200.842972565006	200.847538652	"19"	52044.170774719	52041.688598334	1.5	0.1
0.01	1	0.00323040399962338	1	20	204.937459680004	NA	1	0	3.25	1	201.076558927001	201.079789331001	"19"	52044.170774719	52041.688598334	1.5	0.1
0.01	1	0.00394302800123114	1	20	204.937459680004	NA	1	0	3.25	1	201.310365385005	201.314308413006	"19"	52044.170774719	52041.688598334	1.5	0.1
0.01	1	0.00389646399707999	1	20	204.937459680004	NA	1	0	3.25	1	201.544085037007	201.547981501004	"19"	52044.170774719	52041.688598334	1.5	0.1
0.01	1	0.0045480300032068	1	20	204.937459680004	NA	1	0	3.25	1	201.77791348	201.782461510003	"19"	52044.170774719	52041.688598334	1.5	0.1
0.01	1	0.00391733000287786	1	20	204.937459680004	NA	1	0	3.25	1	202.011427235004	202.015344565007	"19"	52044.170774719	52041.688598334	1.5	0.1
0.01	1	0.0046347550014616	1	20	204.937459680004	NA	1	0	3.25	1	202.245356015002	202.249990770004	"19"	52044.170774719	52041.688598334	1.5	0.1
0.01	1	0.00452508699527243	1	20	204.937459680004	NA	1	0	3.25	1	202.479023745007	202.483548832002	"19"	52044.170774719	52041.688598334	1.5	0.1
0.01	1	0.00450651499704691	1	20	204.937459680004	NA	1	0	3.25	1	202.712771005004	202.717277520002	"19"	52044.170774719	52041.688598334	1.5	0.1
0.01	1	0.00396115299372468	1	20	204.937459680004	NA	1	0	3.25	1	202.946495432006	202.950456585	"19"	52044.170774719	52041.688598334	1.5	0.1
0.01	1	0.00376043200230924	1	20	204.937459680004	NA	1	0	3.25	1	203.180246397002	203.184006829004	"19"	52044.170774719	52041.688598334	1.5	0.1
0.01	1	0.0032800339977257	1	20	204.937459680004	NA	1	0	3.25	1	203.413876935003	203.417156969001	"19"	52044.170774719	52041.688598334	1.5	0.1
0.01	1	0.00396918899787124	1	20	204.937459680004	NA	1	0	3.25	1	203.647664390002	203.651633579	"19"	52044.170774719	52041.688598334	1.5	0.1
0.01	1	0.00394142299774103	1	20	204.937459680004	NA	1	0	3.25	1	203.881289300007	203.885230723004	"19"	52044.170774719	52041.688598334	1.5	0.1
0.01	1	0.00398485000187065	1	20	204.937459680004	NA	1	0	3.25	1	204.115119915004	204.119104765006	"19"	52044.170774719	52041.688598334	1.5	0.1
0.01	1	0.00381999000092037	1	20	204.937459680004	NA	1	0	3.25	1	204.348871135	204.352691125001	"19"	52044.170774719	52041.688598334	1.5	0.1
0.01	1	0.00370568499783985	1	20	204.937459680004	NA	1	0	3.25	1	204.582564580007	204.586270265005	"19"	52044.170774719	52041.688598334	1.5	0.1
0.01	1	0.00403709899546811	1	20	204.937459680004	NA	1	0	3.25	1	204.816260900006	204.820297999002	"19"	52044.170774719	52041.688598334	1.5	0.1
0.01	1	0.00377140600176062	1	21	211.764233392001	NA	1	0	3.25	1	206.969798005004	206.973569411006	"20"	52044.170774719	52041.688598334	1.5	0.1
0.01	1	0.00452682499599177	1	21	211.764233392001	NA	1	0	3.25	1	207.203604215007	207.208131040003	"20"	52044.170774719	52041.688598334	1.5	0.1
0.01	1	0.00332314099796349	1	21	211.764233392001	NA	1	0	3.25	1	207.437347190003	207.440670331001	"20"	52044.170774719	52041.688598334	1.5	0.1
0.01	1	0.00335870299750241	1	21	211.764233392001	NA	1	0	3.25	1	207.671050460005	207.674409163003	"20"	52044.170774719	52041.688598334	1.5	0.1
0.01	1	0.00380126600066433	1	21	211.764233392001	NA	1	0	3.25	1	207.904790275003	207.908591541003	"20"	52044.170774719	52041.688598334	1.5	0.1
0.01	1	0.00392719500086969	1	21	211.764233392001	NA	1	0	3.25	1	208.138473662002	208.142400857003	"20"	52044.170774719	52041.688598334	1.5	0.1
0.01	1	0.0046255650013336	1	21	211.764233392001	NA	1	0	3.25	1	208.372273585002	208.376899150004	"20"	52044.170774719	52041.688598334	1.5	0.1
0.01	1	0.00366903099347837	1	21	211.764233392001	NA	1	0	3.25	1	208.605958130007	208.609627161	"20"	52044.170774719	52041.688598334	1.5	0.1
0.01	1	0.00360750799882226	1	21	211.764233392001	NA	1	0	3.25	1	208.839636847006	208.843244355005	"20"	52044.170774719	52041.688598334	1.5	0.1
0.01	1	0.00399656900117407	1	21	211.764233392001	NA	1	0	3.25	1	209.073454440004	209.077451009005	"20"	52044.170774719	52041.688598334	1.5	0.1
0.01	1	0.00393406800139928	1	21	211.764233392001	NA	1	0	3.25	1	209.307160925004	209.311094993005	"20"	52044.170774719	52041.688598334	1.5	0.1
0.01	1	0.00382715400337474	1	21	211.764233392001	NA	1	0	3.25	1	209.540859765002	209.544686919005	"20"	52044.170774719	52041.688598334	1.5	0.1
0.01	1	0.0033674969963613	1	21	211.764233392001	NA	1	0	3.25	1	209.774587270003	209.777954767	"20"	52044.170774719	52041.688598334	1.5	0.1
0.01	1	0.00368812299711863	1	21	211.764233392001	NA	1	0	3.25	1	210.008384190005	210.012072313002	"20"	52044.170774719	52041.688598334	1.5	0.1
0.01	1	0.003612050000811	1	21	211.764233392001	NA	1	0	3.25	1	210.242016815006	210.245628865006	"20"	52044.170774719	52041.688598334	1.5	0.1
0.01	1	0.00366960400424432	1	21	211.764233392001	NA	1	0	3.25	1	210.475723445001	210.479393049005	"20"	52044.170774719	52041.688598334	1.5	0.1
0.01	1	0.00325968199467752	1	21	211.764233392001	NA	1	0	3.25	1	210.709538179006	210.712797861001	"20"	52044.170774719	52041.688598334	1.5	0.1
0.01	1	0.003555385999789	1	21	211.764233392001	NA	1	0	3.25	1	210.943164617005	210.946720003005	"20"	52044.170774719	52041.688598334	1.5	0.1
0.01	1	0.00379710899869679	1	21	211.764233392001	NA	1	0	3.25	1	211.176916350007	211.180713459005	"20"	52044.170774719	52041.688598334	1.5	0.1
0.01	1	0.00391871600004379	1	21	211.764233392001	NA	1	0	3.25	1	211.410674957006	211.414593673006	"20"	52044.170774719	52041.688598334	1.5	0.1
0.01	1	0.00378679799905512	1	21	211.764233392001	NA	1	0	3.25	1	211.644393715003	211.648180513002	"20"	52044.170774719	52041.688598334	1.5	0.1
0.01	1	0.0038396290037781	1	26	220.245970082004	NA	1	0	3.25	1	213.814733462001	213.818573091005	"21"	52044.170774719	52041.688598334	1.5	0.1
0.01	1	0.00377035999554209	1	26	220.245970082004	NA	1	0	3.25	1	214.048410685005	214.052181045001	"21"	52044.170774719	52041.688598334	1.5	0.1
0.01	1	0.00398201299685752	1	26	220.245970082004	NA	1	0	3.25	1	214.282086112005	214.286068125002	"21"	52044.170774719	52041.688598334	1.5	0.1
0.01	1	0.00383734700153582	1	26	220.245970082004	NA	1	0	3.25	1	214.515912492003	214.519749839004	"21"	52044.170774719	52041.688598334	1.5	0.1
0.01	1	0.00375317499856465	1	26	220.245970082004	NA	1	0	3.25	1	214.749572500004	214.753325675003	"21"	52044.170774719	52041.688598334	1.5	0.1
0.01	1	0.00455786800011992	1	26	220.245970082004	NA	1	0	3.25	1	214.983388527005	214.987946395006	"21"	52044.170774719	52041.688598334	1.5	0.1
0.01	1	0.00389935299608624	1	26	220.245970082004	NA	1	0	3.25	1	215.216981692007	215.220881045003	"21"	52044.170774719	52041.688598334	1.5	0.1
0.01	1	0.00355031899380265	1	26	220.245970082004	NA	1	0	3.25	1	215.450864132006	215.454414451	"21"	52044.170774719	52041.688598334	1.5	0.1
0.01	1	0.00451752200024202	1	26	220.245970082004	NA	1	0	3.25	1	215.684542970004	215.689060492005	"21"	52044.170774719	52041.688598334	1.5	0.1
0.01	1	0.00370557099813595	1	26	220.245970082004	NA	1	0	3.25	1	215.918284800005	215.921990371004	"21"	52044.170774719	52041.688598334	1.5	0.1
0.01	1	0.00397365300159436	1	26	220.245970082004	NA	1	0	3.25	1	216.152027292002	216.156000945004	"21"	52044.170774719	52041.688598334	1.5	0.1
0.01	1	0.00401935200352455	1	26	220.245970082004	NA	1	0	3.25	1	216.385764835002	216.389784187006	"21"	52044.170774719	52041.688598334	1.5	0.1
0.01	1	0.00348293100250885	1	26	220.245970082004	NA	1	0	3.25	1	216.619456402004	216.622939333007	"21"	52044.170774719	52041.688598334	1.5	0.1
0.01	1	0.0032411240026704	1	26	220.245970082004	NA	1	0	3.25	1	216.853130189003	216.856371313006	"21"	52044.170774719	52041.688598334	1.5	0.1
0.01	1	0.00386843900196254	1	26	220.245970082004	NA	1	0	3.25	1	217.086886672005	217.090755111007	"21"	52044.170774719	52041.688598334	1.5	0.1
0.01	1	0.00376399200467858	1	26	220.245970082004	NA	1	0	3.25	1	217.320613215001	217.324377207005	"21"	52044.170774719	52041.688598334	1.5	0.1
0.01	1	0.00486092999926768	1	26	220.245970082004	NA	1	0	3.25	1	217.554383555005	217.559244485004	"21"	52044.170774719	52041.688598334	1.5	0.1
0.01	1	0.00335536000056891	1	26	220.245970082004	NA	1	0	3.25	1	217.788077217003	217.791432577003	"21"	52044.170774719	52041.688598334	1.5	0.1
0.01	1	0.0034833570025512	1	26	220.245970082004	NA	1	0	3.25	1	218.021781900003	218.025265257005	"21"	52044.170774719	52041.688598334	1.5	0.1
0.01	1	0.00364551600068808	1	26	220.245970082004	NA	1	0	3.25	1	218.255494517005	218.259140033006	"21"	52044.170774719	52041.688598334	1.5	0.1
0.01	1	0.00395854999806033	1	26	220.245970082004	NA	1	0	3.25	1	218.489232155007	218.493190705005	"21"	52044.170774719	52041.688598334	1.5	0.1
0.01	1	0.00443336100579472	1	26	220.245970082004	NA	1	0	3.25	1	218.722973074	218.727406435006	"21"	52044.170774719	52041.688598334	1.5	0.1
0.01	1	0.467437639999844	1	26	220.245970082004	NA	1	0	3.25	1	218.956751655001	219.424189295001	"21"	52044.170774719	52041.688598334	1.5	0.1
0.01	1	0.00461911700404016	1	26	220.245970082004	NA	1	0	3.25	1	219.6579413	219.662560417004	"21"	52044.170774719	52041.688598334	1.5	0.1
0.01	1	0.00376294200395932	1	26	220.245970082004	NA	1	0	3.25	1	219.891643155002	219.895406097006	"21"	52044.170774719	52041.688598334	1.5	0.1
0.01	1	0.00328794399683829	1	26	220.245970082004	NA	1	0	3.25	1	220.125355375007	220.128643319003	"21"	52044.170774719	52041.688598334	1.5	0.1
0.01	1	0.00375802499911515	1	97	NA	228.744689783001	0	0.26	3.51	1	222.278924382001	222.282682407	"22"	52044.170774719	52041.688598334	1.5	0.1
0.01	1	0.0040623430031701	1	97	NA	228.744689783001	0	0.26	3.51	1	222.512647354	222.516709697004	"22"	52044.170774719	52041.688598334	1.5	0.1
0.01	1	0.00455396000324981	1	97	NA	228.744689783001	0	0.26	3.51	1	222.746441875002	222.750995835006	"22"	52044.170774719	52041.688598334	1.5	0.1
0.01	1	0.00453267500415677	1	97	NA	228.744689783001	0	0.26	3.51	1	222.980220835001	222.984753510005	"22"	52044.170774719	52041.688598334	1.5	0.1
0.01	1	0.0046016049964237	1	97	NA	228.744689783001	0	0.26	3.51	1	223.213858685005	223.218460290002	"22"	52044.170774719	52041.688598334	1.5	0.1
0.01	1	0.00383581100322772	1	97	NA	228.744689783001	0	0.26	3.51	1	223.447580790002	223.451416601005	"22"	52044.170774719	52041.688598334	1.5	0.1
0.01	1	0.00454827999783447	1	97	NA	228.744689783001	0	0.26	3.51	1	223.681337590002	223.68588587	"22"	52044.170774719	52041.688598334	1.5	0.1
0.01	1	0.00394055300421314	1	97	NA	228.744689783001	0	0.26	3.51	1	223.915106462002	223.919047015006	"22"	52044.170774719	52041.688598334	1.5	0.1
0.01	1	0.00446509999892442	1	97	NA	228.744689783001	0	0.26	3.51	1	224.148790695006	224.153255795005	"22"	52044.170774719	52041.688598334	1.5	0.1
0.01	1	0.00451427700318163	1	97	NA	228.744689783001	0	0.26	3.51	1	224.382588255001	224.387102532004	"22"	52044.170774719	52041.688598334	1.5	0.1
0.01	1	0.00393835899740225	1	97	NA	228.744689783001	0	0.26	3.51	1	224.616160180005	224.620098539002	"22"	52044.170774719	52041.688598334	1.5	0.1
0.01	1	0.00444501700258115	1	97	NA	228.744689783001	0	0.26	3.51	1	224.849976623002	224.854421640004	"22"	52044.170774719	52041.688598334	1.5	0.1
0.01	1	0.00376777299970854	1	97	NA	228.744689783001	0	0.26	3.51	1	225.083722680007	225.087490453006	"22"	52044.170774719	52041.688598334	1.5	0.1
0.01	1	0.00345011999888811	1	97	NA	228.744689783001	0	0.26	3.51	1	225.317375737002	225.320825857001	"22"	52044.170774719	52041.688598334	1.5	0.1
0.01	1	0.00356510699930368	1	97	NA	228.744689783001	0	0.26	3.51	1	225.551115352006	225.554680459005	"22"	52044.170774719	52041.688598334	1.5	0.1
0.01	1	0.00373749899881659	1	97	NA	228.744689783001	0	0.26	3.51	1	225.784840352004	225.788577851003	"22"	52044.170774719	52041.688598334	1.5	0.1
0.01	1	0.00377168900013203	1	97	NA	228.744689783001	0	0.26	3.51	1	226.018685852003	226.022457541003	"22"	52044.170774719	52041.688598334	1.5	0.1
0.01	1	0.00354942499689059	1	97	NA	228.744689783001	0	0.26	3.51	1	226.252352040006	226.255901465003	"22"	52044.170774719	52041.688598334	1.5	0.1
0.01	1	0.00373428600141779	1	97	NA	228.744689783001	0	0.26	3.51	1	226.486023205005	226.489757491006	"22"	52044.170774719	52041.688598334	1.5	0.1
0.01	1	0.00402647900045849	1	97	NA	228.744689783001	0	0.26	3.51	1	226.719705452	226.723731931001	"22"	52044.170774719	52041.688598334	1.5	0.1
0.01	1	0.00438369200128363	1	97	NA	228.744689783001	0	0.26	3.51	1	226.953510013002	226.957893705003	"22"	52044.170774719	52041.688598334	1.5	0.1
0.01	1	0.0038111480025691	1	97	NA	228.744689783001	0	0.26	3.51	1	227.187235915	227.191047063003	"22"	52044.170774719	52041.688598334	1.5	0.1
0.01	1	0.00338455400196835	1	97	NA	228.744689783001	0	0.26	3.51	1	227.420955865004	227.424340419006	"22"	52044.170774719	52041.688598334	1.5	0.1
0.01	1	0.00362659300299129	1	97	NA	228.744689783001	0	0.26	3.51	1	227.654698500002	227.658325093005	"22"	52044.170774719	52041.688598334	1.5	0.1
0.01	1	0.00455663700267905	1	97	NA	228.744689783001	0	0.26	3.51	1	227.888418995004	227.892975632007	"22"	52044.170774719	52041.688598334	1.5	0.1
0.01	1	0.00452429200231563	1	97	NA	228.744689783001	0	0.26	3.51	1	228.122105740003	228.126630032006	"22"	52044.170774719	52041.688598334	1.5	0.1
0.01	1	0.387248646002263	2	97	NA	228.744689783001	0	0.26	3.51	1	228.355870247004	228.743118893006	"22"	52044.170774719	52041.688598334	1.5	0.1
0.01	1	0.24727850099589	1	118	NA	242.952598513002	0	0.29	3.8	1	230.793256533005	231.040535034001	"23"	52044.170774719	52041.688598334	1.5	0.1
0.01	1	0.0035472759991535	1	118	NA	242.952598513002	0	0.29	3.8	1	231.277368317002	231.280915593001	"23"	52044.170774719	52041.688598334	1.5	0.1
0.01	1	0.00457974700111663	1	118	NA	242.952598513002	0	0.29	3.8	1	231.511135295004	231.515715042005	"23"	52044.170774719	52041.688598334	1.5	0.1
0.01	1	0.00347010800032876	1	118	NA	242.952598513002	0	0.29	3.8	1	231.744784611001	231.748254719001	"23"	52044.170774719	52041.688598334	1.5	0.1
0.01	1	0.00357474500196986	1	118	NA	242.952598513002	0	0.29	3.8	1	231.978610450002	231.982185195004	"23"	52044.170774719	52041.688598334	1.5	0.1
0.01	1	0.00386391699430533	1	118	NA	242.952598513002	0	0.29	3.8	1	232.212249022006	232.216112939001	"23"	52044.170774719	52041.688598334	1.5	0.1
0.01	1	0.00462203999632038	1	118	NA	242.952598513002	0	0.29	3.8	1	232.445986515006	232.450608555002	"23"	52044.170774719	52041.688598334	1.5	0.1
0.01	1	0.00390157199581154	1	118	NA	242.952598513002	0	0.29	3.8	1	232.679837277006	232.683738849002	"23"	52044.170774719	52041.688598334	1.5	0.1
0.01	1	0.00330037600360811	1	118	NA	242.952598513002	0	0.29	3.8	1	232.913536189	232.916836565004	"23"	52044.170774719	52041.688598334	1.5	0.1
0.01	1	0.00370526500046253	1	118	NA	242.952598513002	0	0.29	3.8	1	233.147215230005	233.150920495005	"23"	52044.170774719	52041.688598334	1.5	0.1
0.01	1	0.00394612400123151	1	118	NA	242.952598513002	0	0.29	3.8	1	233.380954945002	233.384901069003	"23"	52044.170774719	52041.688598334	1.5	0.1
0.01	1	0.00383547900128178	1	118	NA	242.952598513002	0	0.29	3.8	1	233.614640102001	233.618475581003	"23"	52044.170774719	52041.688598334	1.5	0.1
0.01	1	0.00385527999605983	1	118	NA	242.952598513002	0	0.29	3.8	1	233.848384337005	233.852239617001	"23"	52044.170774719	52041.688598334	1.5	0.1
0.01	1	0.00347070600400912	1	118	NA	242.952598513002	0	0.29	3.8	1	234.082096637001	234.085567343005	"23"	52044.170774719	52041.688598334	1.5	0.1
0.01	1	0.00385872700280743	1	118	NA	242.952598513002	0	0.29	3.8	1	234.315856182002	234.319714909005	"23"	52044.170774719	52041.688598334	1.5	0.1
0.01	1	0.00375332000112394	1	118	NA	242.952598513002	0	0.29	3.8	1	234.549576845006	234.553330165007	"23"	52044.170774719	52041.688598334	1.5	0.1
0.01	1	0.00409009400027571	1	118	NA	242.952598513002	0	0.29	3.8	1	234.783263771002	234.787353865002	"23"	52044.170774719	52041.688598334	1.5	0.1
0.01	1	0.00370176900469232	1	118	NA	242.952598513002	0	0.29	3.8	1	235.017121402001	235.020823171006	"23"	52044.170774719	52041.688598334	1.5	0.1
0.01	1	0.00331287199514918	1	118	NA	242.952598513002	0	0.29	3.8	1	235.250781411007	235.254094283002	"23"	52044.170774719	52041.688598334	1.5	0.1
0.01	1	0.00384608499734895	1	118	NA	242.952598513002	0	0.29	3.8	1	235.484497572004	235.488343657002	"23"	52044.170774719	52041.688598334	1.5	0.1
0.01	1	1.76118129400129	1	118	NA	242.952598513002	0	0.29	3.8	1	235.718234365006	237.479415659007	"23"	52044.170774719	52041.688598334	1.5	0.1
0.01	1	0.00380812500225147	1	118	NA	242.952598513002	0	0.29	3.8	1	237.704847122004	237.708655247006	"23"	52044.170774719	52041.688598334	1.5	0.1
0.01	1	0.00377210299484432	1	118	NA	242.952598513002	0	0.29	3.8	1	237.938696790006	237.942468893001	"23"	52044.170774719	52041.688598334	1.5	0.1
0.01	1	0.00464107500010869	1	118	NA	242.952598513002	0	0.29	3.8	1	238.172316535005	238.176957610005	"23"	52044.170774719	52041.688598334	1.5	0.1
0.01	1	0.00367221700435039	1	118	NA	242.952598513002	0	0.29	3.8	1	238.406123442001	238.409795659005	"23"	52044.170774719	52041.688598334	1.5	0.1
0.01	1	0.00370013999781804	1	118	NA	242.952598513002	0	0.29	3.8	1	238.639821845005	238.643521985003	"23"	52044.170774719	52041.688598334	1.5	0.1
0.01	1	0.00480807500571245	1	118	NA	242.952598513002	0	0.29	3.8	1	238.873520105	238.878328180006	"23"	52044.170774719	52041.688598334	1.5	0.1
0.01	1	1.74113124699943	1	118	NA	242.952598513002	0	0.29	3.8	1	239.107271580004	240.848402827003	"23"	52044.170774719	52041.688598334	1.5	0.1
0.01	1	0.601540245006618	1	118	NA	242.952598513002	0	0.29	3.8	1	241.077212245	241.678752490006	"23"	52044.170774719	52041.688598334	1.5	0.1
0.01	1	1.03900594999868	2	118	NA	242.952598513002	0	0.29	3.8	1	241.912014017005	242.951019967004	"23"	52044.170774719	52041.688598334	1.5	0.1
0.01	1	0.00388262299384223	1	100	NA	252.834124164001	0	0.32	4.12	1	244.983852822006	244.987735445	"24"	52044.170774719	52041.688598334	1.5	0.1
0.01	1	0.00424034399475204	1	100	NA	252.834124164001	0	0.32	4.12	1	245.217460308006	245.221700652	"24"	52044.170774719	52041.688598334	1.5	0.1
0.01	1	0.00375760300084949	1	100	NA	252.834124164001	0	0.32	4.12	1	245.451296960004	245.455054563005	"24"	52044.170774719	52041.688598334	1.5	0.1
0.01	1	0.00390684100420913	1	100	NA	252.834124164001	0	0.32	4.12	1	245.685028002001	245.688934843005	"24"	52044.170774719	52041.688598334	1.5	0.1
0.01	1	0.0036102860030951	1	100	NA	252.834124164001	0	0.32	4.12	1	245.918754765	245.922365051003	"24"	52044.170774719	52041.688598334	1.5	0.1
0.01	1	0.00395447300252272	1	100	NA	252.834124164001	0	0.32	4.12	1	246.152535292	246.156489765002	"24"	52044.170774719	52041.688598334	1.5	0.1
0.01	1	0.00388214300619438	1	100	NA	252.834124164001	0	0.32	4.12	1	246.38617238	246.390054523006	"24"	52044.170774719	52041.688598334	1.5	0.1
0.01	1	0.00439904199447483	1	100	NA	252.834124164001	0	0.32	4.12	1	246.619988688006	246.62438773	"24"	52044.170774719	52041.688598334	1.5	0.1
0.01	1	0.00332549800077686	1	100	NA	252.834124164001	0	0.32	4.12	1	246.853566755002	246.856892253003	"24"	52044.170774719	52041.688598334	1.5	0.1
0.01	1	0.00346626700047636	1	100	NA	252.834124164001	0	0.32	4.12	1	247.087342332001	247.090808599001	"24"	52044.170774719	52041.688598334	1.5	0.1
0.01	1	0.0037517810051213	1	100	NA	252.834124164001	0	0.32	4.12	1	247.321160300002	247.324912081007	"24"	52044.170774719	52041.688598334	1.5	0.1
0.01	1	0.00457494999864139	1	100	NA	252.834124164001	0	0.32	4.12	1	247.554862815006	247.559437765005	"24"	52044.170774719	52041.688598334	1.5	0.1
0.01	1	0.00456086499616504	1	100	NA	252.834124164001	0	0.32	4.12	1	247.788541240006	247.793102105003	"24"	52044.170774719	52041.688598334	1.5	0.1
0.01	1	0.00345856800413458	1	100	NA	252.834124164001	0	0.32	4.12	1	248.022153505	248.025612073005	"24"	52044.170774719	52041.688598334	1.5	0.1
0.01	1	0.00386920199525775	1	100	NA	252.834124164001	0	0.32	4.12	1	248.255963817006	248.259833019001	"24"	52044.170774719	52041.688598334	1.5	0.1
0.01	1	0.003640703005658	1	100	NA	252.834124164001	0	0.32	4.12	1	248.489778062001	248.493418765007	"24"	52044.170774719	52041.688598334	1.5	0.1
0.01	1	0.00371970400010468	1	100	NA	252.834124164001	0	0.32	4.12	1	248.723372845001	248.727092549001	"24"	52044.170774719	52041.688598334	1.5	0.1
0.01	1	0.0036758260030183	1	100	NA	252.834124164001	0	0.32	4.12	1	248.957131845003	248.960807671006	"24"	52044.170774719	52041.688598334	1.5	0.1
0.01	1	0.00373945300088963	1	100	NA	252.834124164001	0	0.32	4.12	1	249.190843900004	249.194583353004	"24"	52044.170774719	52041.688598334	1.5	0.1
0.01	1	0.0040174549940275	1	100	NA	252.834124164001	0	0.32	4.12	1	249.424631960006	249.428649415	"24"	52044.170774719	52041.688598334	1.5	0.1
0.01	1	0.00456592199770967	1	100	NA	252.834124164001	0	0.32	4.12	1	249.658316755005	249.662882677003	"24"	52044.170774719	52041.688598334	1.5	0.1
0.01	1	0.0040054639976006	1	100	NA	252.834124164001	0	0.32	4.12	1	249.892070817004	249.896076281002	"24"	52044.170774719	52041.688598334	1.5	0.1
0.01	1	0.00461296999856131	1	100	NA	252.834124164001	0	0.32	4.12	1	250.125856475002	250.130469445001	"24"	52044.170774719	52041.688598334	1.5	0.1
0.01	1	0.0045890870023868	1	100	NA	252.834124164001	0	0.32	4.12	1	250.359440325003	250.364029412005	"24"	52044.170774719	52041.688598334	1.5	0.1
0.01	1	0.00391244599450147	1	100	NA	252.834124164001	0	0.32	4.12	1	250.593222997006	250.597135443	"24"	52044.170774719	52041.688598334	1.5	0.1
0.01	1	0.00362876599683659	1	100	NA	252.834124164001	0	0.32	4.12	1	250.827019325006	250.830648091003	"24"	52044.170774719	52041.688598334	1.5	0.1
0.01	1	0.00371514300059061	1	100	NA	252.834124164001	0	0.32	4.12	1	251.060680030001	251.064395173002	"24"	52044.170774719	52041.688598334	1.5	0.1
0.01	1	0.00391812599991681	1	100	NA	252.834124164001	0	0.32	4.12	1	251.294427175002	251.298345301002	"24"	52044.170774719	52041.688598334	1.5	0.1
0.01	1	0.00359970299905399	1	100	NA	252.834124164001	0	0.32	4.12	1	251.528185672003	251.531785375002	"24"	52044.170774719	52041.688598334	1.5	0.1
0.01	1	0.00376307199621806	1	100	NA	252.834124164001	0	0.32	4.12	1	251.761919305005	251.765682377001	"24"	52044.170774719	52041.688598334	1.5	0.1
0.01	1	0.00454584499675548	1	100	NA	252.834124164001	0	0.32	4.12	1	251.995597035006	252.000142880002	"24"	52044.170774719	52041.688598334	1.5	0.1
0.01	1	0.00325945000076899	1	100	NA	252.834124164001	0	0.32	4.12	1	252.229244535003	252.232503985004	"24"	52044.170774719	52041.688598334	1.5	0.1
0.01	1	0.369496383995283	2	100	NA	252.834124164001	0	0.32	4.12	1	252.463091797006	252.832588181001	"24"	52044.170774719	52041.688598334	1.5	0.1
0.01	1	0.293249394002487	1	46	NA	264.202059413001	0	0.38	4.5	1	254.867042657002	255.160292051005	"25"	52044.170774719	52041.688598334	1.5	0.1
0.01	1	0.0037870899977861	1	46	NA	264.202059413001	0	0.38	4.5	1	255.401219065003	255.405006155001	"25"	52044.170774719	52041.688598334	1.5	0.1
0.01	1	0.00384776999999303	1	46	NA	264.202059413001	0	0.38	4.5	1	255.635005515003	255.638853285003	"25"	52044.170774719	52041.688598334	1.5	0.1
0.01	1	0.00370795599883422	1	46	NA	264.202059413001	0	0.38	4.5	1	255.868806305007	255.872514261006	"25"	52044.170774719	52041.688598334	1.5	0.1
0.01	1	0.00388238499726867	1	46	NA	264.202059413001	0	0.38	4.5	1	256.102476110005	256.106358495002	"25"	52044.170774719	52041.688598334	1.5	0.1
0.01	1	0.00240066700644093	1	46	NA	264.202059413001	0	0.38	4.5	1	256.336175147	256.338575814007	"25"	52044.170774719	52041.688598334	1.5	0.1
0.01	1	0.00391362800291972	1	46	NA	264.202059413001	0	0.38	4.5	1	256.569928315002	256.573841943005	"25"	52044.170774719	52041.688598334	1.5	0.1
0.01	1	0.00434359499922721	1	46	NA	264.202059413001	0	0.38	4.5	1	256.803646240005	256.807989835004	"25"	52044.170774719	52041.688598334	1.5	0.1
0.01	1	0.00454577699565561	1	46	NA	264.202059413001	0	0.38	4.5	1	257.037522125007	257.042067902003	"25"	52044.170774719	52041.688598334	1.5	0.1
0.01	1	0.00386114800494397	1	46	NA	264.202059413001	0	0.38	4.5	1	257.271155955001	257.275017103006	"25"	52044.170774719	52041.688598334	1.5	0.1
0.01	1	0.00456775699421996	1	46	NA	264.202059413001	0	0.38	4.5	1	257.504934325007	257.509502082001	"25"	52044.170774719	52041.688598334	1.5	0.1
0.01	1	0.00373443299758947	1	46	NA	264.202059413001	0	0.38	4.5	1	257.738709030004	257.742443463001	"25"	52044.170774719	52041.688598334	1.5	0.1
0.01	1	0.00387740400037728	1	46	NA	264.202059413001	0	0.38	4.5	1	257.972282975003	257.976160379003	"25"	52044.170774719	52041.688598334	1.5	0.1
0.01	1	0.00446265299979132	1	46	NA	264.202059413001	0	0.38	4.5	1	258.205968287002	258.210430940002	"25"	52044.170774719	52041.688598334	1.5	0.1
0.01	1	0.00318243000219809	1	46	NA	264.202059413001	0	0.38	4.5	1	258.439712491003	258.442894921005	"25"	52044.170774719	52041.688598334	1.5	0.1
0.01	1	0.00373015800141729	1	46	NA	264.202059413001	0	0.38	4.5	1	258.673521575001	258.677251733003	"25"	52044.170774719	52041.688598334	1.5	0.1
0.01	1	0.00362772300286451	1	46	NA	264.202059413001	0	0.38	4.5	1	258.907170010003	258.910797733006	"25"	52044.170774719	52041.688598334	1.5	0.1
0.01	1	0.0045860870013712	1	46	NA	264.202059413001	0	0.38	4.5	1	259.140944910003	259.145530997004	"25"	52044.170774719	52041.688598334	1.5	0.1
0.01	1	0.00381385099899489	1	46	NA	264.202059413001	0	0.38	4.5	1	259.374685032002	259.378498883001	"25"	52044.170774719	52041.688598334	1.5	0.1
0.01	1	0.00370992500393186	1	46	NA	264.202059413001	0	0.38	4.5	1	259.608400632002	259.612110557006	"25"	52044.170774719	52041.688598334	1.5	0.1
0.01	1	0.00358513900573598	1	46	NA	264.202059413001	0	0.38	4.5	1	259.842043842	259.845628981006	"25"	52044.170774719	52041.688598334	1.5	0.1
0.01	1	0.00368134600284975	1	46	NA	264.202059413001	0	0.38	4.5	1	260.075921117001	260.079602463004	"25"	52044.170774719	52041.688598334	1.5	0.1
0.01	1	0.00456752500031143	1	46	NA	264.202059413001	0	0.38	4.5	1	260.309654565004	260.314222090004	"25"	52044.170774719	52041.688598334	1.5	0.1
0.01	1	0.00462211800186196	1	46	NA	264.202059413001	0	0.38	4.5	1	260.543310874004	260.547932992005	"25"	52044.170774719	52041.688598334	1.5	0.1
0.01	1	0.00338929900317453	1	46	NA	264.202059413001	0	0.38	4.5	1	260.777003192001	260.780392491004	"25"	52044.170774719	52041.688598334	1.5	0.1
0.01	1	0.00395369100442622	1	46	NA	264.202059413001	0	0.38	4.5	1	261.010748250003	261.014701941007	"25"	52044.170774719	52041.688598334	1.5	0.1
0.01	1	0.0036867090020678	1	46	NA	264.202059413001	0	0.38	4.5	1	261.244524920003	261.248211629005	"25"	52044.170774719	52041.688598334	1.5	0.1
0.01	1	0.00466653500188841	1	46	NA	264.202059413001	0	0.38	4.5	1	261.478156675003	261.482823210004	"25"	52044.170774719	52041.688598334	1.5	0.1
0.01	1	0.00391286300146021	1	46	NA	264.202059413001	0	0.38	4.5	1	261.711979652006	261.715892515007	"25"	52044.170774719	52041.688598334	1.5	0.1
0.01	1	0.00340161599888233	1	46	NA	264.202059413001	0	0.38	4.5	1	261.945626995002	261.949028611001	"25"	52044.170774719	52041.688598334	1.5	0.1
0.01	1	0.00370229599502636	1	46	NA	264.202059413001	0	0.38	4.5	1	262.179298197007	262.183000493002	"25"	52044.170774719	52041.688598334	1.5	0.1
0.01	1	0.0035974120037281	1	46	NA	264.202059413001	0	0.38	4.5	1	262.413085715001	262.416683127005	"25"	52044.170774719	52041.688598334	1.5	0.1
0.01	1	0.00491597200016258	1	46	NA	264.202059413001	0	0.38	4.5	1	262.646783750002	262.651699722002	"25"	52044.170774719	52041.688598334	1.5	0.1
0.01	1	0.00382338100462221	1	46	NA	264.202059413001	0	0.38	4.5	1	262.880644762001	262.884468143006	"25"	52044.170774719	52041.688598334	1.5	0.1
0.01	1	0.00341920399660012	1	46	NA	264.202059413001	0	0.38	4.5	1	263.114316985004	263.117736189	"25"	52044.170774719	52041.688598334	1.5	0.1
0.01	1	0.00392897699930472	1	46	NA	264.202059413001	0	0.38	4.5	1	263.347948020004	263.351876997003	"25"	52044.170774719	52041.688598334	1.5	0.1
0.01	1	0.00386941100441618	1	46	NA	264.202059413001	0	0.38	4.5	1	263.581773482001	263.585642893006	"25"	52044.170774719	52041.688598334	1.5	0.1
0.01	1	0.00374766200548038	1	46	NA	264.202059413001	0	0.38	4.5	1	263.815451285001	263.819198947007	"25"	52044.170774719	52041.688598334	1.5	0.1
0.01	1	0.151330714994401	2	46	NA	264.202059413001	0	0.38	4.5	1	264.049187585006	264.2005183	"25"	52044.170774719	52041.688598334	1.5	0.1
0.01	1	0.290452886998537	1	102	NA	273.89811052	0	0.3	4.8	1	266.252889822004	266.543342709003	"26"	52044.170774719	52041.688598334	1.5	0.1
0.01	1	0.00373605999629945	1	102	NA	273.89811052	0	0.3	4.8	1	266.770489145005	266.774225205001	"26"	52044.170774719	52041.688598334	1.5	0.1
0.01	1	0.0021040970023023	1	102	NA	273.89811052	0	0.3	4.8	1	267.004234462001	267.006338559004	"26"	52044.170774719	52041.688598334	1.5	0.1
0.01	1	0.00221685699943919	1	102	NA	273.89811052	0	0.3	4.8	1	267.237892147001	267.240109004	"26"	52044.170774719	52041.688598334	1.5	0.1
0.01	1	0.00371114500012482	1	102	NA	273.89811052	0	0.3	4.8	1	267.471689312006	267.475400457006	"26"	52044.170774719	52041.688598334	1.5	0.1
0.01	1	0.00382507200265536	1	102	NA	273.89811052	0	0.3	4.8	1	267.705341555004	267.709166627006	"26"	52044.170774719	52041.688598334	1.5	0.1
0.01	1	0.00381862000358524	1	102	NA	273.89811052	0	0.3	4.8	1	267.939068877	267.942887497004	"26"	52044.170774719	52041.688598334	1.5	0.1
0.01	1	0.00458918500225991	1	102	NA	273.89811052	0	0.3	4.8	1	268.172887555003	268.177476740006	"26"	52044.170774719	52041.688598334	1.5	0.1
0.01	1	0.00384615099756047	1	102	NA	273.89811052	0	0.3	4.8	1	268.406427220005	268.410273371002	"26"	52044.170774719	52041.688598334	1.5	0.1
0.01	1	0.00372553800116293	1	102	NA	273.89811052	0	0.3	4.8	1	268.640224255003	268.643949793004	"26"	52044.170774719	52041.688598334	1.5	0.1
0.01	1	0.00380324800062226	1	102	NA	273.89811052	0	0.3	4.8	1	268.873991197004	268.877794445005	"26"	52044.170774719	52041.688598334	1.5	0.1
0.01	1	0.00394487899757223	1	102	NA	273.89811052	0	0.3	4.8	1	269.107684990006	269.111629869003	"26"	52044.170774719	52041.688598334	1.5	0.1
0.01	1	0.00387941699591465	1	102	NA	273.89811052	0	0.3	4.8	1	269.341366962006	269.345246379002	"26"	52044.170774719	52041.688598334	1.5	0.1
