"payoff.level"	"balloon"	"rt"	"resp"	"explode.trial"	"explode.time"	"finish.time"	"exploded"	"trial.total"	"cumulative.total"	"finished"	"trial.start"	"trial.end"	"trial.num"	"secs"	"start.time"	"iti"	"isi"
0.01	1	2.61376624399418	1	64	NA	43.4327642369972	0	0.25	0.25	1	0.0090316600035294	2.62279790399771	"1"	38096.759886237	38093.778987839	1.5	0.1
0.01	1	0.873458874004427	1	64	NA	43.4327642369972	0	0.25	0.25	1	2.99736761199892	3.87082648600335	"1"	38096.759886237	38093.778987839	1.5	0.1
0.01	1	0.580726889995276	1	64	NA	43.4327642369972	0	0.25	0.25	1	4.09913209600199	4.67985898599727	"1"	38096.759886237	38093.778987839	1.5	0.1
0.01	1	0.481001471998752	1	64	NA	43.4327642369972	0	0.25	0.25	1	4.91718256199965	5.3981840339984	"1"	38096.759886237	38093.778987839	1.5	0.1
0.01	1	1.06058846099768	1	64	NA	43.4327642369972	0	0.25	0.25	1	5.63520931899984	6.69579777999752	"1"	38096.759886237	38093.778987839	1.5	0.1
0.01	1	1.82379657500132	1	64	NA	43.4327642369972	0	0.25	0.25	1	6.92058482499851	8.74438139999984	"1"	38096.759886237	38093.778987839	1.5	0.1
0.01	1	1.92922311300208	1	64	NA	43.4327642369972	0	0.25	0.25	1	8.97407557300176	10.9032986860038	"1"	38096.759886237	38093.778987839	1.5	0.1
0.01	1	0.927724846005731	1	64	NA	43.4327642369972	0	0.25	0.25	1	11.1276151959974	12.0553400420031	"1"	38096.759886237	38093.778987839	1.5	0.1
0.01	1	1.22371358900273	1	64	NA	43.4327642369972	0	0.25	0.25	1	12.296257668997	13.5199712579997	"1"	38096.759886237	38093.778987839	1.5	0.1
0.01	1	0.986238473000412	1	64	NA	43.4327642369972	0	0.25	0.25	1	13.7488413669998	14.7350798400003	"1"	38096.759886237	38093.778987839	1.5	0.1
0.01	1	0.887813207002182	1	64	NA	43.4327642369972	0	0.25	0.25	1	14.9675201709979	15.8553333780001	"1"	38096.759886237	38093.778987839	1.5	0.1
0.01	1	1.27220790700085	1	64	NA	43.4327642369972	0	0.25	0.25	1	16.0861228619979	17.3583307689987	"1"	38096.759886237	38093.778987839	1.5	0.1
0.01	1	1.89788996200514	1	64	NA	43.4327642369972	0	0.25	0.25	1	17.5885600019974	19.4864499640025	"1"	38096.759886237	38093.778987839	1.5	0.1
0.01	1	0.810297839998384	1	64	NA	43.4327642369972	0	0.25	0.25	1	19.725556121004	20.5358539610024	"1"	38096.759886237	38093.778987839	1.5	0.1
0.01	1	0.983904544002144	1	64	NA	43.4327642369972	0	0.25	0.25	1	20.7606421070013	21.7445466510035	"1"	38096.759886237	38093.778987839	1.5	0.1
0.01	1	1.28378814100142	1	64	NA	43.4327642369972	0	0.25	0.25	1	21.9793765119975	23.263164652999	"1"	38096.759886237	38093.778987839	1.5	0.1
0.01	1	0.820458506997966	1	64	NA	43.4327642369972	0	0.25	0.25	1	23.4985028299998	24.3189613369977	"1"	38096.759886237	38093.778987839	1.5	0.1
0.01	1	0.905376656002773	1	64	NA	43.4327642369972	0	0.25	0.25	1	24.5503305439997	25.4557072000025	"1"	38096.759886237	38093.778987839	1.5	0.1
0.01	1	0.82449240799906	1	64	NA	43.4327642369972	0	0.25	0.25	1	25.685571328002	26.510063736001	"1"	38096.759886237	38093.778987839	1.5	0.1
0.01	1	1.32578256100533	1	64	NA	43.4327642369972	0	0.25	0.25	1	26.7373638389981	28.0631464000035	"1"	38096.759886237	38093.778987839	1.5	0.1
0.01	1	5.63695723599812	1	64	NA	43.4327642369972	0	0.25	0.25	1	28.2898908970019	33.926848133	"1"	38096.759886237	38093.778987839	1.5	0.1
0.01	1	0.544755397997505	1	64	NA	43.4327642369972	0	0.25	0.25	1	34.1664791319999	34.7112345299975	"1"	38096.759886237	38093.778987839	1.5	0.1
0.01	1	0.784152477004682	1	64	NA	43.4327642369972	0	0.25	0.25	1	34.9344112539984	35.7185637310031	"1"	38096.759886237	38093.778987839	1.5	0.1
0.01	1	1.74974834299792	1	64	NA	43.4327642369972	0	0.25	0.25	1	35.9528929320004	37.7026412749983	"1"	38096.759886237	38093.778987839	1.5	0.1
0.01	1	0.602851222000027	1	64	NA	43.4327642369972	0	0.25	0.25	1	37.9394315419995	38.5422827639995	"1"	38096.759886237	38093.778987839	1.5	0.1
0.01	1	4.65688654500264	2	64	NA	43.4327642369972	0	0.25	0.25	1	38.7742660619988	43.4311526070014	"1"	38096.759886237	38093.778987839	1.5	0.1
0.01	1	0.601793308997003	1	102	NA	70.3764349499979	0	0.3	0.55	1	45.4855366390038	46.0873299480008	"2"	38096.759886237	38093.778987839	1.5	0.1
0.01	1	0.206779047999589	1	102	NA	70.3764349499979	0	0.3	0.55	1	46.3203425320025	46.5271215800021	"2"	38096.759886237	38093.778987839	1.5	0.1
0.01	1	0.0858214350009803	1	102	NA	70.3764349499979	0	0.3	0.55	1	46.7543738219974	46.8401952569984	"2"	38096.759886237	38093.778987839	1.5	0.1
0.01	1	0.207688535003399	1	102	NA	70.3764349499979	0	0.3	0.55	1	47.071459601997	47.2791481370004	"2"	38096.759886237	38093.778987839	1.5	0.1
0.01	1	0.260554253996816	1	102	NA	70.3764349499979	0	0.3	0.55	1	47.5056985670017	47.7662528209985	"2"	38096.759886237	38093.778987839	1.5	0.1
0.01	1	0.257886660998338	1	102	NA	70.3764349499979	0	0.3	0.55	1	47.9897693439998	48.2476560049981	"2"	38096.759886237	38093.778987839	1.5	0.1
0.01	1	0.213732897995214	1	102	NA	70.3764349499979	0	0.3	0.55	1	48.4738940520037	48.687626949999	"2"	38096.759886237	38093.778987839	1.5	0.1
0.01	1	0.209903663999285	1	102	NA	70.3764349499979	0	0.3	0.55	1	48.9247083040027	49.134611968002	"2"	38096.759886237	38093.778987839	1.5	0.1
0.01	1	0.222823367999808	1	102	NA	70.3764349499979	0	0.3	0.55	1	49.3753739390013	49.5981973070011	"2"	38096.759886237	38093.778987839	1.5	0.1
0.01	1	0.235886709000624	1	102	NA	70.3764349499979	0	0.3	0.55	1	49.8261659810014	50.062052690002	"2"	38096.759886237	38093.778987839	1.5	0.1
0.01	1	0.593913488999533	1	102	NA	70.3764349499979	0	0.3	0.55	1	50.2935706069984	50.8874840959979	"2"	38096.759886237	38093.778987839	1.5	0.1
0.01	1	0.207817438000347	1	102	NA	70.3764349499979	0	0.3	0.55	1	51.1117531269992	51.3195705649996	"2"	38096.759886237	38093.778987839	1.5	0.1
0.01	1	0.196663791000901	1	102	NA	70.3764349499979	0	0.3	0.55	1	51.5457313989973	51.7423951899982	"2"	38096.759886237	38093.778987839	1.5	0.1
0.01	1	0.218874272999528	1	102	NA	70.3764349499979	0	0.3	0.55	1	51.9797452620041	52.1986195350037	"2"	38096.759886237	38093.778987839	1.5	0.1
0.01	1	0.177430304000154	1	102	NA	70.3764349499979	0	0.3	0.55	1	52.4305534040031	52.6079837080033	"2"	38096.759886237	38093.778987839	1.5	0.1
0.01	1	0.272758742001315	1	102	NA	70.3764349499979	0	0.3	0.55	1	52.8312754369981	53.1040341789994	"2"	38096.759886237	38093.778987839	1.5	0.1
0.01	1	0.186919797997689	1	102	NA	70.3764349499979	0	0.3	0.55	1	53.3321794020012	53.5190991999989	"2"	38096.759886237	38093.778987839	1.5	0.1
0.01	1	0.2023487760016	1	102	NA	70.3764349499979	0	0.3	0.55	1	53.7495061480004	53.951854924002	"2"	38096.759886237	38093.778987839	1.5	0.1
0.01	1	0.239677431003656	1	102	NA	70.3764349499979	0	0.3	0.55	1	54.1835653469971	54.4232427780007	"2"	38096.759886237	38093.778987839	1.5	0.1
0.01	1	0.323481480001647	1	102	NA	70.3764349499979	0	0.3	0.55	1	54.6509025470004	54.9743840270021	"2"	38096.759886237	38093.778987839	1.5	0.1
0.01	1	1.27746636500524	1	102	NA	70.3764349499979	0	0.3	0.55	1	55.2018926989986	56.4793590640038	"2"	38096.759886237	38093.778987839	1.5	0.1
0.01	1	0.238256600998284	1	102	NA	70.3764349499979	0	0.3	0.55	1	56.7044986690016	56.9427552699999	"2"	38096.759886237	38093.778987839	1.5	0.1
0.01	1	0.219402071001241	1	102	NA	70.3764349499979	0	0.3	0.55	1	57.1717982100017	57.391200281003	"2"	38096.759886237	38093.778987839	1.5	0.1
0.01	1	0.216828810000152	1	102	NA	70.3764349499979	0	0.3	0.55	1	57.6226245170037	57.8394533270039	"2"	38096.759886237	38093.778987839	1.5	0.1
0.01	1	0.205511422995187	1	102	NA	70.3764349499979	0	0.3	0.55	1	58.0734501620027	58.2789615849979	"2"	38096.759886237	38093.778987839	1.5	0.1
0.01	1	0.580585271003656	1	102	NA	70.3764349499979	0	0.3	0.55	1	58.5073889569976	59.0879742280013	"2"	38096.759886237	38093.778987839	1.5	0.1
0.01	1	0.609640277005383	1	102	NA	70.3764349499979	0	0.3	0.55	1	59.3254861969981	59.9351264740035	"2"	38096.759886237	38093.778987839	1.5	0.1
0.01	1	0.494204615999479	1	102	NA	70.3764349499979	0	0.3	0.55	1	60.1602340680038	60.6544386840033	"2"	38096.759886237	38093.778987839	1.5	0.1
0.01	1	0.58398010199744	1	102	NA	70.3764349499979	0	0.3	0.55	1	60.8948754880039	61.4788555900013	"2"	38096.759886237	38093.778987839	1.5	0.1
0.01	1	2.77452584300045	1	102	NA	70.3764349499979	0	0.3	0.55	1	61.7129555270003	64.4874813700008	"2"	38096.759886237	38093.778987839	1.5	0.1
0.01	1	5.65693508500408	2	102	NA	70.3764349499979	0	0.3	0.55	1	64.7179035189984	70.3748386040024	"2"	38096.759886237	38093.778987839	1.5	0.1
0.01	1	0.600302261002071	1	97	NA	106.888685035003	0	0.45	1	1	72.4309157870011	73.0312180480032	"3"	38096.759886237	38093.778987839	1.5	0.1
0.01	1	1.37294451700291	1	97	NA	106.888685035003	0	0.45	1	1	73.2655610759975	74.6385055930004	"3"	38096.759886237	38093.778987839	1.5	0.1
0.01	1	0.226316334999865	1	97	NA	106.888685035003	0	0.45	1	1	74.8683458689993	75.0946622039992	"3"	38096.759886237	38093.778987839	1.5	0.1
0.01	1	0.0409580550040118	1	97	NA	106.888685035003	0	0.45	1	1	75.3190138619975	75.3599719170015	"3"	38096.759886237	38093.778987839	1.5	0.1
0.01	1	0.0289556399948196	1	97	NA	106.888685035003	0	0.45	1	1	75.5861368870028	75.6150925269976	"3"	38096.759886237	38093.778987839	1.5	0.1
0.01	1	0.0106040850005229	1	97	NA	106.888685035003	0	0.45	1	1	75.8532940820005	75.863898167001	"3"	38096.759886237	38093.778987839	1.5	0.1
0.01	1	0.0551137660004315	1	97	NA	106.888685035003	0	0.45	1	1	76.0870347070013	76.1421484730017	"3"	38096.759886237	38093.778987839	1.5	0.1
0.01	1	0.019931009002903	1	97	NA	106.888685035003	0	0.45	1	1	76.3707747619992	76.3907057710021	"3"	38096.759886237	38093.778987839	1.5	0.1
0.01	1	0.0167976869997801	1	97	NA	106.888685035003	0	0.45	1	1	76.6212376690019	76.6380353560016	"3"	38096.759886237	38093.778987839	1.5	0.1
0.01	1	0.0156894939937047	1	97	NA	106.888685035003	0	0.45	1	1	76.8716363120038	76.8873258059975	"3"	38096.759886237	38093.778987839	1.5	0.1
0.01	1	0.0690539529969101	1	97	NA	106.888685035003	0	0.45	1	1	77.122184949003	77.1912389019999	"3"	38096.759886237	38093.778987839	1.5	0.1
0.01	1	0.336199420999037	1	97	NA	106.888685035003	0	0.45	1	1	77.4227428790036	77.7589423000027	"3"	38096.759886237	38093.778987839	1.5	0.1
0.01	1	0.0961084200025653	1	97	NA	106.888685035003	0	0.45	1	1	77.9902502719997	78.0863586920022	"3"	38096.759886237	38093.778987839	1.5	0.1
0.01	1	0.147519963997183	1	97	NA	106.888685035003	0	0.45	1	1	78.307427107	78.4549470709972	"3"	38096.759886237	38093.778987839	1.5	0.1
0.01	1	0.172010545000376	1	97	NA	106.888685035003	0	0.45	1	1	78.6913761370015	78.8633866820019	"3"	38096.759886237	38093.778987839	1.5	0.1
0.01	1	0.122621255999547	1	97	NA	106.888685035003	0	0.45	1	1	79.0920949840001	79.2147162399997	"3"	38096.759886237	38093.778987839	1.5	0.1
0.01	1	0.243754985000123	1	97	NA	106.888685035003	0	0.45	1	1	79.4426439719973	79.6863989569974	"3"	38096.759886237	38093.778987839	1.5	0.1
0.01	1	0.0567447260036715	1	97	NA	106.888685035003	0	0.45	1	1	79.9268708989985	79.9836156250021	"3"	38096.759886237	38093.778987839	1.5	0.1
0.01	1	0.195676692994311	1	97	NA	106.888685035003	0	0.45	1	1	80.2106214040032	80.4062980969975	"3"	38096.759886237	38093.778987839	1.5	0.1
0.01	1	0.114580986999499	1	97	NA	106.888685035003	0	0.45	1	1	80.6447671920032	80.7593481790027	"3"	38096.759886237	38093.778987839	1.5	0.1
0.01	1	0.347369041999627	1	97	NA	106.888685035003	0	0.45	1	1	80.9953319519991	81.3427009939987	"3"	38096.759886237	38093.778987839	1.5	0.1
0.01	1	0.115428274999431	1	97	NA	106.888685035003	0	0.45	1	1	81.5795990990009	81.6950273740003	"3"	38096.759886237	38093.778987839	1.5	0.1
0.01	1	0.197609126000316	1	97	NA	106.888685035003	0	0.45	1	1	81.9301694469978	82.1277785729981	"3"	38096.759886237	38093.778987839	1.5	0.1
0.01	1	0.178404913996928	1	97	NA	106.888685035003	0	0.45	1	1	82.364396197001	82.542801110998	"3"	38096.759886237	38093.778987839	1.5	0.1
0.01	1	0.200460079002369	1	97	NA	106.888685035003	0	0.45	1	1	82.7816471089973	82.9821071879996	"3"	38096.759886237	38093.778987839	1.5	0.1
0.01	1	0.151747611998871	1	97	NA	106.888685035003	0	0.45	1	1	83.2157685670027	83.3675161790015	"3"	38096.759886237	38093.778987839	1.5	0.1
0.01	1	0.150558055996953	1	97	NA	106.888685035003	0	0.45	1	1	83.5996739320035	83.7502319880005	"3"	38096.759886237	38093.778987839	1.5	0.1
0.01	1	0.144067562003329	1	97	NA	106.888685035003	0	0.45	1	1	83.9835925669977	84.127660129001	"3"	38096.759886237	38093.778987839	1.5	0.1
0.01	1	0.113188584000454	1	97	NA	106.888685035003	0	0.45	1	1	84.350897604003	84.4640861880034	"3"	38096.759886237	38093.778987839	1.5	0.1
0.01	1	0.170404019998387	1	97	NA	106.888685035003	0	0.45	1	1	84.7015129440042	84.8719169640026	"3"	38096.759886237	38093.778987839	1.5	0.1
0.01	1	0.449262144000386	1	97	NA	106.888685035003	0	0.45	1	1	85.1021880519984	85.5514501959988	"3"	38096.759886237	38093.778987839	1.5	0.1
0.01	1	0.268082116999722	1	97	NA	106.888685035003	0	0.45	1	1	85.7867347220017	86.0548168390014	"3"	38096.759886237	38093.778987839	1.5	0.1
0.01	1	0.431735543003015	1	97	NA	106.888685035003	0	0.45	1	1	86.2876339569993	86.7193695000024	"3"	38096.759886237	38093.778987839	1.5	0.1
0.01	1	1.15647178800282	1	97	NA	106.888685035003	0	0.45	1	1	86.9552867719976	88.1117585600005	"3"	38096.759886237	38093.778987839	1.5	0.1
0.01	1	0.274228811002104	1	97	NA	106.888685035003	0	0.45	1	1	88.3409980069991	88.6152268180012	"3"	38096.759886237	38093.778987839	1.5	0.1
0.01	1	0.517564413996297	1	97	NA	106.888685035003	0	0.45	1	1	88.8419213020024	89.3594857159987	"3"	38096.759886237	38093.778987839	1.5	0.1
0.01	1	0.358444267003506	1	97	NA	106.888685035003	0	0.45	1	1	89.5931923120006	89.9516365790041	"3"	38096.759886237	38093.778987839	1.5	0.1
0.01	1	0.422199321001244	1	97	NA	106.888685035003	0	0.45	1	1	90.1775070369986	90.5997063579998	"3"	38096.759886237	38093.778987839	1.5	0.1
0.01	1	0.475427238998236	1	97	NA	106.888685035003	0	0.45	1	1	90.8284910720031	91.3039183110013	"3"	38096.759886237	38093.778987839	1.5	0.1
0.01	1	0.637869472993771	1	97	NA	106.888685035003	0	0.45	1	1	91.5297679170035	92.1676373899973	"3"	38096.759886237	38093.778987839	1.5	0.1
0.01	1	7.70603483300511	1	97	NA	106.888685035003	0	0.45	1	1	92.3977757289977	100.103810562003	"3"	38096.759886237	38093.778987839	1.5	0.1
0.01	1	0.413581242995861	1	97	NA	106.888685035003	0	0.45	1	1	100.344536187004	100.758117429999	"3"	38096.759886237	38093.778987839	1.5	0.1
0.01	1	0.396001127002819	1	97	NA	106.888685035003	0	0.45	1	1	100.995657134001	101.391658261004	"3"	38096.759886237	38093.778987839	1.5	0.1
0.01	1	0.521125905004737	1	97	NA	106.888685035003	0	0.45	1	1	101.613213698998	102.134339604003	"3"	38096.759886237	38093.778987839	1.5	0.1
0.01	1	0.561828311998397	1	97	NA	106.888685035003	0	0.45	1	1	102.364535007	102.926363318998	"3"	38096.759886237	38093.778987839	1.5	0.1
0.01	1	3.73797751299571	2	97	NA	106.888685035003	0	0.45	1	1	103.149144681003	106.887122193999	"3"	38096.759886237	38093.778987839	1.5	0.1
0.01	1	0.63243095400685	1	51	126.908896909001	NA	1	0	1	1	108.942295155997	109.574726110004	"4"	38096.759886237	38093.778987839	1.5	0.1
0.01	1	0.0602372590001323	1	51	126.908896909001	NA	1	0	1	1	109.810491996999	109.870729255999	"4"	38096.759886237	38093.778987839	1.5	0.1
0.01	1	0.0402364230030798	1	51	126.908896909001	NA	1	0	1	1	110.094238225	110.134474648003	"4"	38096.759886237	38093.778987839	1.5	0.1
0.01	1	0.108768021003925	1	51	126.908896909001	NA	1	0	1	1	110.361343033997	110.470111055001	"4"	38096.759886237	38093.778987839	1.5	0.1
0.01	1	0.0476431380011491	1	51	126.908896909001	NA	1	0	1	1	110.695300699001	110.742943837002	"4"	38096.759886237	38093.778987839	1.5	0.1
0.01	1	0.252700358003494	1	51	126.908896909001	NA	1	0	1	1	110.979145746998	111.231846105002	"4"	38096.759886237	38093.778987839	1.5	0.1
0.01	1	0.0227521819979302	1	51	126.908896909001	NA	1	0	1	1	111.463275717004	111.486027899002	"4"	38096.759886237	38093.778987839	1.5	0.1
0.01	1	0.00599108999449527	1	51	126.908896909001	NA	1	0	1	1	111.713672848004	111.719663937998	"4"	38096.759886237	38093.778987839	1.5	0.1
0.01	1	0.00217419800173957	1	51	126.908896909001	NA	1	0	1	1	111.947395579002	111.949569777003	"4"	38096.759886237	38093.778987839	1.5	0.1
0.01	1	0.00221379700087709	1	51	126.908896909001	NA	1	0	1	1	112.181061716001	112.183275513002	"4"	38096.759886237	38093.778987839	1.5	0.1
0.01	1	0.361169880998204	1	51	126.908896909001	NA	1	0	1	1	112.414715290004	112.775885171002	"4"	38096.759886237	38093.778987839	1.5	0.1
0.01	1	0.0392353749994072	1	51	126.908896909001	NA	1	0	1	1	113.015847519004	113.055082894003	"4"	38096.759886237	38093.778987839	1.5	0.1
0.01	1	0.0288495229979162	1	51	126.908896909001	NA	1	0	1	1	113.282974257003	113.311823780001	"4"	38096.759886237	38093.778987839	1.5	0.1
0.01	1	0.0255108409983222	1	51	126.908896909001	NA	1	0	1	1	113.53328173	113.558792570999	"4"	38096.759886237	38093.778987839	1.5	0.1
0.01	1	0.0306177200036473	1	51	126.908896909001	NA	1	0	1	1	113.783712229997	113.814329950001	"4"	38096.759886237	38093.778987839	1.5	0.1
0.01	1	0.172455438994803	1	51	126.908896909001	NA	1	0	1	1	114.050852676002	114.223308114997	"4"	38096.759886237	38093.778987839	1.5	0.1
0.01	1	0.019437693998043	1	51	126.908896909001	NA	1	0	1	1	114.451526509001	114.470964202999	"4"	38096.759886237	38093.778987839	1.5	0.1
0.01	1	0.00227412700041896	1	51	126.908896909001	NA	1	0	1	1	114.702000357	114.704274484	"4"	38096.759886237	38093.778987839	1.5	0.1
0.01	1	0.00270355700195068	1	51	126.908896909001	NA	1	0	1	1	114.935734788	114.938438345001	"4"	38096.759886237	38093.778987839	1.5	0.1
0.01	1	0.0211212340000202	1	51	126.908896909001	NA	1	0	1	1	115.169429677	115.190550911	"4"	38096.759886237	38093.778987839	1.5	0.1
0.01	1	0.3387112279961	1	51	126.908896909001	NA	1	0	1	1	115.419791072003	115.758502299999	"4"	38096.759886237	38093.778987839	1.5	0.1
0.01	1	0.0514332880047732	1	51	126.908896909001	NA	1	0	1	1	115.987529621998	116.038962910003	"4"	38096.759886237	38093.778987839	1.5	0.1
0.01	1	0.016546755003219	1	51	126.908896909001	NA	1	0	1	1	116.271367522	116.287914277003	"4"	38096.759886237	38093.778987839	1.5	0.1
0.01	1	0.00222858999768505	1	51	126.908896909001	NA	1	0	1	1	116.521758590003	116.52398718	"4"	38096.759886237	38093.778987839	1.5	0.1
0.01	1	0.00251090800156817	1	51	126.908896909001	NA	1	0	1	1	116.755486435999	116.757997344001	"4"	38096.759886237	38093.778987839	1.5	0.1
0.01	1	0.666778087004786	1	51	126.908896909001	NA	1	0	1	1	116.989263308998	117.656041396003	"4"	38096.759886237	38093.778987839	1.5	0.1
0.01	1	0.051628104003612	1	51	126.908896909001	NA	1	0	1	1	117.890788249999	117.942416354002	"4"	38096.759886237	38093.778987839	1.5	0.1
0.01	1	0.0325370060018031	1	51	126.908896909001	NA	1	0	1	1	118.174580489998	118.207117496	"4"	38096.759886237	38093.778987839	1.5	0.1
0.01	1	0.00236578600015491	1	51	126.908896909001	NA	1	0	1	1	118.441619473997	118.443985259997	"4"	38096.759886237	38093.778987839	1.5	0.1
0.01	1	0.00226208499952918	1	51	126.908896909001	NA	1	0	1	1	118.675329721998	118.677591806998	"4"	38096.759886237	38093.778987839	1.5	0.1
0.01	1	0.36939005900058	1	51	126.908896909001	NA	1	0	1	1	118.909222052003	119.278612111004	"4"	38096.759886237	38093.778987839	1.5	0.1
0.01	1	0.00225449100253172	1	51	126.908896909001	NA	1	0	1	1	119.510030990001	119.512285481003	"4"	38096.759886237	38093.778987839	1.5	0.1
0.01	1	0.0225128110032529	1	51	126.908896909001	NA	1	0	1	1	119.743786161998	119.766298973002	"4"	38096.759886237	38093.778987839	1.5	0.1
0.01	1	0.00320624800224323	1	51	126.908896909001	NA	1	0	1	1	119.994288353999	119.997494602001	"4"	38096.759886237	38093.778987839	1.5	0.1
0.01	1	0.0180087400003686	1	51	126.908896909001	NA	1	0	1	1	120.227953219997	120.245961959998	"4"	38096.759886237	38093.778987839	1.5	0.1
0.01	1	0.401476551996893	1	51	126.908896909001	NA	1	0	1	1	120.478304900003	120.879781452	"4"	38096.759886237	38093.778987839	1.5	0.1
0.01	1	0.0300703549946775	1	51	126.908896909001	NA	1	0	1	1	121.112689494003	121.142759848997	"4"	38096.759886237	38093.778987839	1.5	0.1
0.01	1	0.0115672100000666	1	51	126.908896909001	NA	1	0	1	1	121.379947239002	121.391514449002	"4"	38096.759886237	38093.778987839	1.5	0.1
0.01	1	0.00234232399816392	1	51	126.908896909001	NA	1	0	1	1	121.613636533999	121.615978857997	"4"	38096.759886237	38093.778987839	1.5	0.1
0.01	1	0.0230614679967402	1	51	126.908896909001	NA	1	0	1	1	121.847462502003	121.870523969999	"4"	38096.759886237	38093.778987839	1.5	0.1
0.01	1	0.725274349999381	1	51	126.908896909001	NA	1	0	1	1	122.097707350003	122.822981700003	"4"	38096.759886237	38093.778987839	1.5	0.1
0.01	1	0.0447549050004454	1	51	126.908896909001	NA	1	0	1	1	123.049510814002	123.094265719003	"4"	38096.759886237	38093.778987839	1.5	0.1
0.01	1	0.00237329200172098	1	51	126.908896909001	NA	1	0	1	1	123.333205577001	123.335578869002	"4"	38096.759886237	38093.778987839	1.5	0.1
0.01	1	0.0105911400023615	1	51	126.908896909001	NA	1	0	1	1	123.566964493999	123.577555634001	"4"	38096.759886237	38093.778987839	1.5	0.1
0.01	1	0.0390312339950469	1	51	126.908896909001	NA	1	0	1	1	123.800678204003	123.839709437998	"4"	38096.759886237	38093.778987839	1.5	0.1
0.01	1	0.563923740002792	1	51	126.908896909001	NA	1	0	1	1	124.067711586998	124.631635327001	"4"	38096.759886237	38093.778987839	1.5	0.1
0.01	1	0.0100895049981773	1	51	126.908896909001	NA	1	0	1	1	124.869098511001	124.879188015999	"4"	38096.759886237	38093.778987839	1.5	0.1
0.01	1	0.00812575199961429	1	51	126.908896909001	NA	1	0	1	1	125.102852647004	125.110978399003	"4"	38096.759886237	38093.778987839	1.5	0.1
0.01	1	0.00220296999759739	1	51	126.908896909001	NA	1	0	1	1	125.336560107004	125.338763077001	"4"	38096.759886237	38093.778987839	1.5	0.1
0.01	1	0.0447146440055803	1	51	126.908896909001	NA	1	0	1	1	125.570234455998	125.614949100003	"4"	38096.759886237	38093.778987839	1.5	0.1
0.01	1	0.954533823001839	1	51	126.908896909001	NA	1	0	1	1	125.83740787	126.791941693002	"4"	38096.759886237	38093.778987839	1.5	0.1
0.01	1	0.49495299699629	1	116	NA	142.279967046001	0	0.4	1.4	1	128.959343913004	129.45429691	"5"	38096.759886237	38093.778987839	1.5	0.1
0.01	1	0.00220137100404827	1	116	NA	142.279967046001	0	0.4	1.4	1	129.693885740999	129.696087112003	"5"	38096.759886237	38093.778987839	1.5	0.1
0.01	1	0.00217580600292422	1	116	NA	142.279967046001	0	0.4	1.4	1	129.927621413997	129.92979722	"5"	38096.759886237	38093.778987839	1.5	0.1
0.01	1	0.00207361600041622	1	116	NA	142.279967046001	0	0.4	1.4	1	130.161301829998	130.163375445998	"5"	38096.759886237	38093.778987839	1.5	0.1
0.01	1	0.00218267799937166	1	116	NA	142.279967046001	0	0.4	1.4	1	130.395033264002	130.397215942001	"5"	38096.759886237	38093.778987839	1.5	0.1
0.01	1	0.106270639000286	1	116	NA	142.279967046001	0	0.4	1.4	1	130.628834007999	130.735104646999	"5"	38096.759886237	38093.778987839	1.5	0.1
0.01	1	0.00426243700349005	1	116	NA	142.279967046001	0	0.4	1.4	1	130.962721889999	130.966984327002	"5"	38096.759886237	38093.778987839	1.5	0.1
0.01	1	0.00229055900126696	1	116	NA	142.279967046001	0	0.4	1.4	1	131.196355223998	131.198645782999	"5"	38096.759886237	38093.778987839	1.5	0.1
0.01	1	0.00206217199593084	1	116	NA	142.279967046001	0	0.4	1.4	1	131.430160930002	131.432223101998	"5"	38096.759886237	38093.778987839	1.5	0.1
0.01	1	0.00207753800350474	1	116	NA	142.279967046001	0	0.4	1.4	1	131.663792879001	131.665870417004	"5"	38096.759886237	38093.778987839	1.5	0.1
0.01	1	0.110320626001339	1	116	NA	142.279967046001	0	0.4	1.4	1	131.897561163998	132.007881789999	"5"	38096.759886237	38093.778987839	1.5	0.1
0.01	1	0.00230499800090911	1	116	NA	142.279967046001	0	0.4	1.4	1	132.231442816003	132.233747814003	"5"	38096.759886237	38093.778987839	1.5	0.1
0.01	1	0.00214625899388921	1	116	NA	142.279967046001	0	0.4	1.4	1	132.465139787004	132.467286045998	"5"	38096.759886237	38093.778987839	1.5	0.1
0.01	1	0.00222186899918597	1	116	NA	142.279967046001	0	0.4	1.4	1	132.698933780004	132.701155649003	"5"	38096.759886237	38093.778987839	1.5	0.1
0.01	1	0.298899098001129	1	116	NA	142.279967046001	0	0.4	1.4	1	132.932822082003	133.231721180004	"5"	38096.759886237	38093.778987839	1.5	0.1
0.01	1	0.00272115599364042	1	116	NA	142.279967046001	0	0.4	1.4	1	133.466923370004	133.469644525998	"5"	38096.759886237	38093.778987839	1.5	0.1
0.01	1	0.00205373200151371	1	116	NA	142.279967046001	0	0.4	1.4	1	133.700621926997	133.702675658998	"5"	38096.759886237	38093.778987839	1.5	0.1
0.01	1	0.128224808999221	1	116	NA	142.279967046001	0	0.4	1.4	1	133.934348957999	134.062573766998	"5"	38096.759886237	38093.778987839	1.5	0.1
0.01	1	0.322476362001908	1	116	NA	142.279967046001	0	0.4	1.4	1	134.284850420001	134.607326782003	"5"	38096.759886237	38093.778987839	1.5	0.1
0.01	1	0.00229154200496851	1	116	NA	142.279967046001	0	0.4	1.4	1	134.835879181999	134.838170724004	"5"	38096.759886237	38093.778987839	1.5	0.1
0.01	1	0.00220839900430292	1	116	NA	142.279967046001	0	0.4	1.4	1	135.069749597998	135.071957997003	"5"	38096.759886237	38093.778987839	1.5	0.1
0.01	1	0.144414909998886	1	116	NA	142.279967046001	0	0.4	1.4	1	135.303270802004	135.447685712003	"5"	38096.759886237	38093.778987839	1.5	0.1
0.01	1	0.232796832999156	1	116	NA	142.279967046001	0	0.4	1.4	1	135.670531409	135.903328241999	"5"	38096.759886237	38093.778987839	1.5	0.1
0.01	1	0.00203072300064377	1	116	NA	142.279967046001	0	0.4	1.4	1	136.138219706998	136.140250429999	"5"	38096.759886237	38093.778987839	1.5	0.1
0.01	1	0.00210171399521641	1	116	NA	142.279967046001	0	0.4	1.4	1	136.371790324003	136.373892037998	"5"	38096.759886237	38093.778987839	1.5	0.1
0.01	1	0.177925654999854	1	116	NA	142.279967046001	0	0.4	1.4	1	136.605529364002	136.783455019002	"5"	38096.759886237	38093.778987839	1.5	0.1
0.01	1	0.417355255005532	1	116	NA	142.279967046001	0	0.4	1.4	1	137.006183197998	137.423538453004	"5"	38096.759886237	38093.778987839	1.5	0.1
0.01	1	0.00632718000269961	1	116	NA	142.279967046001	0	0.4	1.4	1	137.657295778001	137.663622958004	"5"	38096.759886237	38093.778987839	1.5	0.1
0.01	1	0.00221914300345816	1	116	NA	142.279967046001	0	0.4	1.4	1	137.891010264	137.893229407004	"5"	38096.759886237	38093.778987839	1.5	0.1
0.01	1	0.00216363000072306	1	116	NA	142.279967046001	0	0.4	1.4	1	138.124714746002	138.126878376002	"5"	38096.759886237	38093.778987839	1.5	0.1
0.01	1	0.0020576299939421	1	116	NA	142.279967046001	0	0.4	1.4	1	138.358449272004	138.360506901998	"5"	38096.759886237	38093.778987839	1.5	0.1
0.01	1	0.303681937002693	1	116	NA	142.279967046001	0	0.4	1.4	1	138.592141082001	138.895823019004	"5"	38096.759886237	38093.778987839	1.5	0.1
0.01	1	0.00229047700122464	1	116	NA	142.279967046001	0	0.4	1.4	1	139.126399672998	139.128690149999	"5"	38096.759886237	38093.778987839	1.5	0.1
0.01	1	0.00236467799550155	1	116	NA	142.279967046001	0	0.4	1.4	1	139.360156654002	139.362521331997	"5"	38096.759886237	38093.778987839	1.5	0.1
0.01	1	0.141400848006015	1	116	NA	142.279967046001	0	0.4	1.4	1	139.593835945998	139.735236794004	"5"	38096.759886237	38093.778987839	1.5	0.1
0.01	1	0.566679916002613	1	116	NA	142.279967046001	0	0.4	1.4	1	139.961087080999	140.527766997002	"5"	38096.759886237	38093.778987839	1.5	0.1
0.01	1	0.148073845004546	1	116	NA	142.279967046001	0	0.4	1.4	1	140.762513567999	140.910587413004	"5"	38096.759886237	38093.778987839	1.5	0.1
0.01	1	0.0368809060018975	1	116	NA	142.279967046001	0	0.4	1.4	1	141.146497909998	141.183378816	"5"	38096.759886237	38093.778987839	1.5	0.1
0.01	1	0.0330608900039806	1	116	NA	142.279967046001	0	0.4	1.4	1	141.413581241999	141.446642132003	"5"	38096.759886237	38093.778987839	1.5	0.1
0.01	1	0.0542683280000347	1	116	NA	142.279967046001	0	0.4	1.4	1	141.680698001997	141.734966329997	"5"	38096.759886237	38093.778987839	1.5	0.1
0.01	1	0.313795807000133	2	116	NA	142.279967046001	0	0.4	1.4	1	141.964530559999	142.278326366999	"5"	38096.759886237	38093.778987839	1.5	0.1
0.01	1	0.97475465000025	1	118	NA	166.600864476997	0	0.45	1.85	1	144.33533306	145.310087710001	"6"	38096.759886237	38093.778987839	1.5	0.1
0.01	1	0.00213999699917622	1	118	NA	166.600864476997	0	0.45	1.85	1	145.537190034003	145.539330031002	"6"	38096.759886237	38093.778987839	1.5	0.1
0.01	1	0.00212418600131059	1	118	NA	166.600864476997	0	0.45	1.85	1	145.770970247999	145.773094434	"6"	38096.759886237	38093.778987839	1.5	0.1
0.01	1	0.107005434998428	1	118	NA	166.600864476997	0	0.45	1.85	1	146.004587367002	146.111592802001	"6"	38096.759886237	38093.778987839	1.5	0.1
0.01	1	0.268172058997152	1	118	NA	166.600864476997	0	0.45	1.85	1	146.338557011004	146.606729070001	"6"	38096.759886237	38093.778987839	1.5	0.1
0.01	1	0.00224109899863834	1	118	NA	166.600864476997	0	0.45	1.85	1	146.839414797003	146.841655896002	"6"	38096.759886237	38093.778987839	1.5	0.1
0.01	1	0.00267521500063594	1	118	NA	166.600864476997	0	0.45	1.85	1	147.073073079002	147.075748294003	"6"	38096.759886237	38093.778987839	1.5	0.1
0.01	1	0.00222046499402495	1	118	NA	166.600864476997	0	0.45	1.85	1	147.306833362003	147.309053826997	"6"	38096.759886237	38093.778987839	1.5	0.1
0.01	1	0.714712392997171	1	118	NA	166.600864476997	0	0.45	1.85	1	147.540600564003	148.255312957001	"6"	38096.759886237	38093.778987839	1.5	0.1
0.01	1	0.00227209700096864	1	118	NA	166.600864476997	0	0.45	1.85	1	148.492124231001	148.494396328002	"6"	38096.759886237	38093.778987839	1.5	0.1
0.01	1	0.00226572799874702	1	118	NA	166.600864476997	0	0.45	1.85	1	148.725873212003	148.728138940001	"6"	38096.759886237	38093.778987839	1.5	0.1
0.01	1	0.00809879999724217	1	118	NA	166.600864476997	0	0.45	1.85	1	148.959621264003	148.967720064	"6"	38096.759886237	38093.778987839	1.5	0.1
0.01	1	0.0223366229984094	1	118	NA	166.600864476997	0	0.45	1.85	1	149.193418647003	149.215755270001	"6"	38096.759886237	38093.778987839	1.5	0.1
0.01	1	0.12326666899753	1	118	NA	166.600864476997	0	0.45	1.85	1	149.443705990001	149.566972658999	"6"	38096.759886237	38093.778987839	1.5	0.1
0.01	1	0.0126288370011025	1	118	NA	166.600864476997	0	0.45	1.85	1	149.794359489002	149.806988326003	"6"	38096.759886237	38093.778987839	1.5	0.1
0.01	1	0.0022265849984251	1	118	NA	166.600864476997	0	0.45	1.85	1	150.044740994002	150.046967579001	"6"	38096.759886237	38093.778987839	1.5	0.1
0.01	1	0.00208011899667326	1	118	NA	166.600864476997	0	0.45	1.85	1	150.278516701001	150.280596819997	"6"	38096.759886237	38093.778987839	1.5	0.1
0.01	1	0.00205737200303702	1	118	NA	166.600864476997	0	0.45	1.85	1	150.512278203998	150.514335576001	"6"	38096.759886237	38093.778987839	1.5	0.1
0.01	1	0.781279587004974	1	118	NA	166.600864476997	0	0.45	1.85	1	150.745910459998	151.527190047003	"6"	38096.759886237	38093.778987839	1.5	0.1
0.01	1	0.00227143600204727	1	118	NA	166.600864476997	0	0.45	1.85	1	151.764327527002	151.766598963004	"6"	38096.759886237	38093.778987839	1.5	0.1
0.01	1	0.00212043400097173	1	118	NA	166.600864476997	0	0.45	1.85	1	151.998110811997	152.000231245998	"6"	38096.759886237	38093.778987839	1.5	0.1
0.01	1	0.00222416299948236	1	118	NA	166.600864476997	0	0.45	1.85	1	152.231776847002	152.234001010002	"6"	38096.759886237	38093.778987839	1.5	0.1
0.01	1	0.00348166599724209	1	118	NA	166.600864476997	0	0.45	1.85	1	152.465619428003	152.469101094001	"6"	38096.759886237	38093.778987839	1.5	0.1
0.01	1	0.0681998519939953	1	118	NA	166.600864476997	0	0.45	1.85	1	152.699203811004	152.767403662998	"6"	38096.759886237	38093.778987839	1.5	0.1
0.01	1	0.0158580549978069	1	118	NA	166.600864476997	0	0.45	1.85	1	152.999731869	153.015589923998	"6"	38096.759886237	38093.778987839	1.5	0.1
0.01	1	0.00234340599854477	1	118	NA	166.600864476997	0	0.45	1.85	1	153.250133330999	153.252476736998	"6"	38096.759886237	38093.778987839	1.5	0.1
0.01	1	0.00221824100299273	1	118	NA	166.600864476997	0	0.45	1.85	1	153.483878462997	153.486096704	"6"	38096.759886237	38093.778987839	1.5	0.1
0.01	1	0.0655862069979776	1	118	NA	166.600864476997	0	0.45	1.85	1	153.717814180003	153.783400387001	"6"	38096.759886237	38093.778987839	1.5	0.1
0.01	1	0.844638624999789	1	118	NA	166.600864476997	0	0.45	1.85	1	154.018128634001	154.862767259001	"6"	38096.759886237	38093.778987839	1.5	0.1
0.01	1	0.00801515900093364	1	118	NA	166.600864476997	0	0.45	1.85	1	155.103264106001	155.111279265002	"6"	38096.759886237	38093.778987839	1.5	0.1
0.01	1	0.014280745999713	1	118	NA	166.600864476997	0	0.45	1.85	1	155.336974634003	155.351255380003	"6"	38096.759886237	38093.778987839	1.5	0.1
0.01	1	0.00220018200343475	1	118	NA	166.600864476997	0	0.45	1.85	1	155.587403284997	155.589603467	"6"	38096.759886237	38093.778987839	1.5	0.1
0.01	1	0.00222411299910164	1	118	NA	166.600864476997	0	0.45	1.85	1	155.821247261003	155.823471374002	"6"	38096.759886237	38093.778987839	1.5	0.1
0.01	1	0.351211326997145	1	118	NA	166.600864476997	0	0.45	1.85	1	156.054954482002	156.406165809	"6"	38096.759886237	38093.778987839	1.5	0.1
0.01	1	0.0156916720006848	1	118	NA	166.600864476997	0	0.45	1.85	1	156.639165476001	156.654857148002	"6"	38096.759886237	38093.778987839	1.5	0.1
0.01	1	0.00205878999986453	1	118	NA	166.600864476997	0	0.45	1.85	1	156.889672329002	156.891731119002	"6"	38096.759886237	38093.778987839	1.5	0.1
0.01	1	0.00256292099948041	1	118	NA	166.600864476997	0	0.45	1.85	1	157.123378067998	157.125940988997	"6"	38096.759886237	38093.778987839	1.5	0.1
0.01	1	0.00204120900161797	1	118	NA	166.600864476997	0	0.45	1.85	1	157.357033717999	157.359074927001	"6"	38096.759886237	38093.778987839	1.5	0.1
0.01	1	0.767972014000406	1	118	NA	166.600864476997	0	0.45	1.85	1	157.590842046004	158.358814060004	"6"	38096.759886237	38093.778987839	1.5	0.1
0.01	1	0.254767546997755	1	118	NA	166.600864476997	0	0.45	1.85	1	158.592521821003	158.847289368001	"6"	38096.759886237	38093.778987839	1.5	0.1
0.01	1	0.130420230001619	1	118	NA	166.600864476997	0	0.45	1.85	1	159.076593997001	159.207014227002	"6"	38096.759886237	38093.778987839	1.5	0.1
0.01	1	0.0827659750066232	1	118	NA	166.600864476997	0	0.45	1.85	1	159.443896557998	159.526662533004	"6"	38096.759886237	38093.778987839	1.5	0.1
0.01	1	0.0543174229969736	1	118	NA	166.600864476997	0	0.45	1.85	1	159.761088502004	159.815405925001	"6"	38096.759886237	38093.778987839	1.5	0.1
0.01	1	0.954487627001072	1	118	NA	166.600864476997	0	0.45	1.85	1	160.044887247001	160.999374874002	"6"	38096.759886237	38093.778987839	1.5	0.1
0.01	1	0.927960860004532	1	118	NA	166.600864476997	0	0.45	1.85	1	161.230307926999	162.158268787003	"6"	38096.759886237	38093.778987839	1.5	0.1
0.01	1	4.20023715200659	2	118	NA	166.600864476997	0	0.45	1.85	1	162.399009180997	166.599246333004	"6"	38096.759886237	38093.778987839	1.5	0.1
0.01	1	0.771350529001211	1	87	NA	203.00846474	0	0.5	2.35	1	168.659589308001	169.430939837002	"7"	38096.759886237	38093.778987839	1.5	0.1
0.01	1	0.241299956003786	1	87	NA	203.00846474	0	0.5	2.35	1	169.661110020999	169.902409977003	"7"	38096.759886237	38093.778987839	1.5	0.1
0.01	1	0.294459191005444	1	87	NA	203.00846474	0	0.5	2.35	1	170.128599240998	170.423058432003	"7"	38096.759886237	38093.778987839	1.5	0.1
0.01	1	0.215954925006372	1	87	NA	203.00846474	0	0.5	2.35	1	170.646070914998	170.862025840004	"7"	38096.759886237	38093.778987839	1.5	0.1
0.01	1	0.246822740002244	1	87	NA	203.00846474	0	0.5	2.35	1	171.096853383999	171.343676124001	"7"	38096.759886237	38093.778987839	1.5	0.1
0.01	1	0.217240991994913	1	87	NA	203.00846474	0	0.5	2.35	1	171.581066067003	171.798307058998	"7"	38096.759886237	38093.778987839	1.5	0.1
0.01	1	0.191967735001526	1	87	NA	203.00846474	0	0.5	2.35	1	172.031782487	172.223750222001	"7"	38096.759886237	38093.778987839	1.5	0.1
0.01	1	0.237384688996826	1	87	NA	203.00846474	0	0.5	2.35	1	172.449120427002	172.686505115998	"7"	38096.759886237	38093.778987839	1.5	0.1
0.01	1	0.187191677003284	1	87	NA	203.00846474	0	0.5	2.35	1	172.916555372998	173.103747050001	"7"	38096.759886237	38093.778987839	1.5	0.1
0.01	1	0.217926549994445	1	87	NA	203.00846474	0	0.5	2.35	1	173.334019710004	173.551946259999	"7"	38096.759886237	38093.778987839	1.5	0.1
0.01	1	0.19747367099626	1	87	NA	203.00846474	0	0.5	2.35	1	173.784780444003	173.982254114999	"7"	38096.759886237	38093.778987839	1.5	0.1
0.01	1	0.228928571006691	1	87	NA	203.00846474	0	0.5	2.35	1	174.218764842997	174.447693414004	"7"	38096.759886237	38093.778987839	1.5	0.1
0.01	1	0.193790666002315	1	87	NA	203.00846474	0	0.5	2.35	1	174.669620658002	174.863411324004	"7"	38096.759886237	38093.778987839	1.5	0.1
0.01	1	0.223009565001121	1	87	NA	203.00846474	0	0.5	2.35	1	175.086951532001	175.309961097002	"7"	38096.759886237	38093.778987839	1.5	0.1
0.01	1	0.221373408996442	1	87	NA	203.00846474	0	0.5	2.35	1	175.537696826003	175.759070234999	"7"	38096.759886237	38093.778987839	1.5	0.1
0.01	1	0.250647865002975	1	87	NA	203.00846474	0	0.5	2.35	1	175.988508896	176.239156761003	"7"	38096.759886237	38093.778987839	1.5	0.1
0.01	1	0.269506254997395	1	87	NA	203.00846474	0	0.5	2.35	1	176.472663843	176.742170097998	"7"	38096.759886237	38093.778987839	1.5	0.1
0.01	1	0.272629965002125	1	87	NA	203.00846474	0	0.5	2.35	1	176.973454592	177.246084557002	"7"	38096.759886237	38093.778987839	1.5	0.1
0.01	1	0.245575681001355	1	87	NA	203.00846474	0	0.5	2.35	1	177.474260360003	177.719836041004	"7"	38096.759886237	38093.778987839	1.5	0.1
0.01	1	0.217547050997382	1	87	NA	203.00846474	0	0.5	2.35	1	177.941826486	178.159373536997	"7"	38096.759886237	38093.778987839	1.5	0.1
0.01	1	0.23079449999932	1	87	NA	203.00846474	0	0.5	2.35	1	178.392513033999	178.623307533999	"7"	38096.759886237	38093.778987839	1.5	0.1
0.01	1	0.245122634005384	1	87	NA	203.00846474	0	0.5	2.35	1	178.859915959998	179.105038594003	"7"	38096.759886237	38093.778987839	1.5	0.1
0.01	1	0.223344722995535	1	87	NA	203.00846474	0	0.5	2.35	1	179.344052872002	179.567397594998	"7"	38096.759886237	38093.778987839	1.5	0.1
0.01	1	0.235193680004159	1	87	NA	203.00846474	0	0.5	2.35	1	179.794827969999	180.030021650004	"7"	38096.759886237	38093.778987839	1.5	0.1
0.01	1	0.224184492995846	1	87	NA	203.00846474	0	0.5	2.35	1	180.262344624003	180.486529116999	"7"	38096.759886237	38093.778987839	1.5	0.1
0.01	1	0.246511112003645	1	87	NA	203.00846474	0	0.5	2.35	1	180.713056932	180.959568044003	"7"	38096.759886237	38093.778987839	1.5	0.1
0.01	1	0.257855270996515	1	87	NA	203.00846474	0	0.5	2.35	1	181.197156488	181.455011758997	"7"	38096.759886237	38093.778987839	1.5	0.1
0.01	1	0.23810630900698	1	87	NA	203.00846474	0	0.5	2.35	1	181.681393904997	181.919500214004	"7"	38096.759886237	38093.778987839	1.5	0.1
0.01	1	0.283229166998353	1	87	NA	203.00846474	0	0.5	2.35	1	182.148878587002	182.432107754001	"7"	38096.759886237	38093.778987839	1.5	0.1
0.01	1	0.171650093005155	1	87	NA	203.00846474	0	0.5	2.35	1	182.666363566997	182.838013660003	"7"	38096.759886237	38093.778987839	1.5	0.1
0.01	1	0.251984138994885	1	87	NA	203.00846474	0	0.5	2.35	1	183.067045141004	183.319029279999	"7"	38096.759886237	38093.778987839	1.5	0.1
0.01	1	0.232142890003161	1	87	NA	203.00846474	0	0.5	2.35	1	183.551138743998	183.783281634001	"7"	38096.759886237	38093.778987839	1.5	0.1
0.01	1	0.25188039400382	1	87	NA	203.00846474	0	0.5	2.35	1	184.018636098997	184.270516493001	"7"	38096.759886237	38093.778987839	1.5	0.1
0.01	1	0.279489403998014	1	87	NA	203.00846474	0	0.5	2.35	1	184.502700310004	184.782189714002	"7"	38096.759886237	38093.778987839	1.5	0.1
0.01	1	0.21913650699571	1	87	NA	203.00846474	0	0.5	2.35	1	185.020383927003	185.239520433999	"7"	38096.759886237	38093.778987839	1.5	0.1
0.01	1	0.296667916998558	1	87	NA	203.00846474	0	0.5	2.35	1	185.471169402001	185.767837318999	"7"	38096.759886237	38093.778987839	1.5	0.1
0.01	1	0.297995978995459	1	87	NA	203.00846474	0	0.5	2.35	1	185.988647951002	186.286643929998	"7"	38096.759886237	38093.778987839	1.5	0.1
0.01	1	0.267438472998037	1	87	NA	203.00846474	0	0.5	2.35	1	186.522898096002	186.790336569	"7"	38096.759886237	38093.778987839	1.5	0.1
0.01	1	0.231885121000232	1	87	NA	203.00846474	0	0.5	2.35	1	187.023716026	187.255601147001	"7"	38096.759886237	38093.778987839	1.5	0.1
0.01	1	0.244515562000743	1	87	NA	203.00846474	0	0.5	2.35	1	187.491143257997	187.735658819998	"7"	38096.759886237	38093.778987839	1.5	0.1
0.01	1	0.424369423002645	1	87	NA	203.00846474	0	0.5	2.35	1	187.958562353997	188.382931777	"7"	38096.759886237	38093.778987839	1.5	0.1
0.01	1	0.276554260999546	1	87	NA	203.00846474	0	0.5	2.35	1	188.609635089	188.88618935	"7"	38096.759886237	38093.778987839	1.5	0.1
0.01	1	0.385496489005163	1	87	NA	203.00846474	0	0.5	2.35	1	189.110548204997	189.496044694002	"7"	38096.759886237	38093.778987839	1.5	0.1
0.01	1	0.517931004003913	1	87	NA	203.00846474	0	0.5	2.35	1	189.728180487	190.246111491004	"7"	38096.759886237	38093.778987839	1.5	0.1
0.01	1	0.790397759003099	1	87	NA	203.00846474	0	0.5	2.35	1	190.479619498001	191.270017257004	"7"	38096.759886237	38093.778987839	1.5	0.1
0.01	1	5.91814455999702	1	87	NA	203.00846474	0	0.5	2.35	1	191.497838019	197.415982578998	"7"	38096.759886237	38093.778987839	1.5	0.1
0.01	1	0.430359568003041	1	87	NA	203.00846474	0	0.5	2.35	1	197.641547175997	198.071906744	"7"	38096.759886237	38093.778987839	1.5	0.1
0.01	1	0.512964610999916	1	87	NA	203.00846474	0	0.5	2.35	1	198.309334379002	198.822298990002	"7"	38096.759886237	38093.778987839	1.5	0.1
0.01	1	0.570890871997108	1	87	NA	203.00846474	0	0.5	2.35	1	199.043931658001	199.614822529998	"7"	38096.759886237	38093.778987839	1.5	0.1
0.01	1	0.483021772000939	1	87	NA	203.00846474	0	0.5	2.35	1	199.845234640001	200.328256412002	"7"	38096.759886237	38093.778987839	1.5	0.1
0.01	1	2.44371913099894	2	87	NA	203.00846474	0	0.5	2.35	1	200.563171784001	203.006890915	"7"	38096.759886237	38093.778987839	1.5	0.1
0.01	1	0.344026377002592	1	6	207.275893350001	NA	1	0	2.35	1	205.054057271002	205.398083648004	"8"	38096.759886237	38093.778987839	1.5	0.1
0.01	1	0.113210700998025	1	6	207.275893350001	NA	1	0	2.35	1	205.63830174	205.751512440998	"8"	38096.759886237	38093.778987839	1.5	0.1
0.01	1	0.00224067200178979	1	6	207.275893350001	NA	1	0	2.35	1	205.988909307998	205.99114998	"8"	38096.759886237	38093.778987839	1.5	0.1
0.01	1	0.105135145000531	1	6	207.275893350001	NA	1	0	2.35	1	206.222633842997	206.327768987998	"8"	38096.759886237	38093.778987839	1.5	0.1
0.01	1	0.0743273389962269	1	6	207.275893350001	NA	1	0	2.35	1	206.556499894003	206.630827232999	"8"	38096.759886237	38093.778987839	1.5	0.1
0.01	1	0.302816796996922	1	6	207.275893350001	NA	1	0	2.35	1	206.857080720001	207.159897516998	"8"	38096.759886237	38093.778987839	1.5	0.1
0.01	1	0.472094406999531	1	106	NA	242.553517995999	0	0.5	2.85	1	209.327816693003	209.799911100003	"9"	38096.759886237	38093.778987839	1.5	0.1
0.01	1	0.241248158999952	1	106	NA	242.553517995999	0	0.5	2.85	1	210.029000064002	210.270248223002	"9"	38096.759886237	38093.778987839	1.5	0.1
0.01	1	0.174053002003348	1	106	NA	242.553517995999	0	0.5	2.85	1	210.496519913999	210.670572916002	"9"	38096.759886237	38093.778987839	1.5	0.1
0.01	1	0.269560888002161	1	106	NA	242.553517995999	0	0.5	2.85	1	210.897284749997	211.166845637999	"9"	38096.759886237	38093.778987839	1.5	0.1
0.01	1	0.273421251993568	1	106	NA	242.553517995999	0	0.5	2.85	1	211.398096866003	211.671518117997	"9"	38096.759886237	38093.778987839	1.5	0.1
0.01	1	0.26041215499572	1	106	NA	242.553517995999	0	0.5	2.85	1	211.898930522002	212.159342676998	"9"	38096.759886237	38093.778987839	1.5	0.1
0.01	1	0.161210949998349	1	106	NA	242.553517995999	0	0.5	2.85	1	212.383032276004	212.544243226002	"9"	38096.759886237	38093.778987839	1.5	0.1
0.01	1	0.0565734629999497	1	106	NA	242.553517995999	0	0.5	2.85	1	212.767088143999	212.823661606999	"9"	38096.759886237	38093.778987839	1.5	0.1
0.01	1	0.116816511996149	1	106	NA	242.553517995999	0	0.5	2.85	1	213.050771537004	213.167588049	"9"	38096.759886237	38093.778987839	1.5	0.1
0.01	1	0.141570808998949	1	106	NA	242.553517995999	0	0.5	2.85	1	213.401519402003	213.543090211002	"9"	38096.759886237	38093.778987839	1.5	0.1
0.01	1	1.03056594000373	1	106	NA	242.553517995999	0	0.5	2.85	1	213.768728472998	214.799294413002	"9"	38096.759886237	38093.778987839	1.5	0.1
0.01	1	0.209864998003468	1	106	NA	242.553517995999	0	0.5	2.85	1	215.037528658999	215.247393657002	"9"	38096.759886237	38093.778987839	1.5	0.1
0.01	1	0.175747799999954	1	106	NA	242.553517995999	0	0.5	2.85	1	215.471574711002	215.647322511002	"9"	38096.759886237	38093.778987839	1.5	0.1
0.01	1	0.159181827002612	1	106	NA	242.553517995999	0	0.5	2.85	1	215.872276652	216.031458479003	"9"	38096.759886237	38093.778987839	1.5	0.1
0.01	1	0.143184281005233	1	106	NA	242.553517995999	0	0.5	2.85	1	216.256252045998	216.399436327003	"9"	38096.759886237	38093.778987839	1.5	0.1
0.01	1	0.160462510997604	1	106	NA	242.553517995999	0	0.5	2.85	1	216.623498146	216.783960656998	"9"	38096.759886237	38093.778987839	1.5	0.1
0.01	1	0.151034495000204	1	106	NA	242.553517995999	0	0.5	2.85	1	217.007472908997	217.158507403998	"9"	38096.759886237	38093.778987839	1.5	0.1
0.01	1	0.135956491998513	1	106	NA	242.553517995999	0	0.5	2.85	1	217.391475502001	217.527431994	"9"	38096.759886237	38093.778987839	1.5	0.1
0.01	1	0.120723611995345	1	106	NA	242.553517995999	0	0.5	2.85	1	217.758760987002	217.879484598998	"9"	38096.759886237	38093.778987839	1.5	0.1
0.01	1	0.130180687003303	1	106	NA	242.553517995999	0	0.5	2.85	1	218.109294376998	218.239475064001	"9"	38096.759886237	38093.778987839	1.5	0.1
0.01	1	0.345898544001102	1	106	NA	242.553517995999	0	0.5	2.85	1	218.476646868003	218.822545412004	"9"	38096.759886237	38093.778987839	1.5	0.1
0.01	1	0.203808433994709	1	106	NA	242.553517995999	0	0.5	2.85	1	219.044265743003	219.248074176998	"9"	38096.759886237	38093.778987839	1.5	0.1
0.01	1	0.144512265003868	1	106	NA	242.553517995999	0	0.5	2.85	1	219.478237365998	219.622749631002	"9"	38096.759886237	38093.778987839	1.5	0.1
0.01	1	0.161586654998246	1	106	NA	242.553517995999	0	0.5	2.85	1	219.845587773001	220.007174427999	"9"	38096.759886237	38093.778987839	1.5	0.1
0.01	1	0.240822526000557	1	106	NA	242.553517995999	0	0.5	2.85	1	220.22958295	220.470405476	"9"	38096.759886237	38093.778987839	1.5	0.1
0.01	1	0.143188768997788	1	106	NA	242.553517995999	0	0.5	2.85	1	220.696950306999	220.840139075997	"9"	38096.759886237	38093.778987839	1.5	0.1
0.01	1	0.12584186699678	1	106	NA	242.553517995999	0	0.5	2.85	1	221.080982067004	221.206823934001	"9"	38096.759886237	38093.778987839	1.5	0.1
0.01	1	0.126425725000445	1	106	NA	242.553517995999	0	0.5	2.85	1	221.431608282997	221.558034007998	"9"	38096.759886237	38093.778987839	1.5	0.1
0.01	1	0.241120605998731	1	106	NA	242.553517995999	0	0.5	2.85	1	221.782185374002	222.023305980001	"9"	38096.759886237	38093.778987839	1.5	0.1
0.01	1	0.100923418001912	1	106	NA	242.553517995999	0	0.5	2.85	1	222.249684322	222.350607740002	"9"	38096.759886237	38093.778987839	1.5	0.1
0.01	1	0.455290665006032	1	106	NA	242.553517995999	0	0.5	2.85	1	222.583472610997	223.038763276003	"9"	38096.759886237	38093.778987839	1.5	0.1
0.01	1	0.554093064994959	1	106	NA	242.553517995999	0	0.5	2.85	1	223.267989131004	223.822082195999	"9"	38096.759886237	38093.778987839	1.5	0.1
0.01	1	0.195714045999921	1	106	NA	242.553517995999	0	0.5	2.85	1	224.052665584	224.24837963	"9"	38096.759886237	38093.778987839	1.5	0.1
0.01	1	0.21682357499958	1	106	NA	242.553517995999	0	0.5	2.85	1	224.486631177002	224.703454752002	"9"	38096.759886237	38093.778987839	1.5	0.1
0.01	1	0.109339422997436	1	106	NA	242.553517995999	0	0.5	2.85	1	224.937427484001	225.046766906999	"9"	38096.759886237	38093.778987839	1.5	0.1
0.01	1	0.22397289500077	1	106	NA	242.553517995999	0	0.5	2.85	1	225.271360468003	225.495333363004	"9"	38096.759886237	38093.778987839	1.5	0.1
0.01	1	0.173553956003161	1	106	NA	242.553517995999	0	0.5	2.85	1	225.722034578997	225.895588535001	"9"	38096.759886237	38093.778987839	1.5	0.1
0.01	1	0.180510211997898	1	106	NA	242.553517995999	0	0.5	2.85	1	226.122725592002	226.303235804	"9"	38096.759886237	38093.778987839	1.5	0.1
0.01	1	0.130205508001382	1	106	NA	242.553517995999	0	0.5	2.85	1	226.540117361001	226.670322869002	"9"	38096.759886237	38093.778987839	1.5	0.1
0.01	1	0.156541914999252	1	106	NA	242.553517995999	0	0.5	2.85	1	226.907467399004	227.064009314003	"9"	38096.759886237	38093.778987839	1.5	0.1
0.01	1	0.379488793994824	1	106	NA	242.553517995999	0	0.5	2.85	1	227.291416147003	227.670904940998	"9"	38096.759886237	38093.778987839	1.5	0.1
0.01	1	1.07387459900201	1	106	NA	242.553517995999	0	0.5	2.85	1	227.909207614	228.983082213002	"9"	38096.759886237	38093.778987839	1.5	0.1
0.01	1	0.46834372500598	1	106	NA	242.553517995999	0	0.5	2.85	1	229.211388370997	229.679732096003	"9"	38096.759886237	38093.778987839	1.5	0.1
0.01	1	0.679169231996639	1	106	NA	242.553517995999	0	0.5	2.85	1	229.912505134002	230.591674365998	"9"	38096.759886237	38093.778987839	1.5	0.1
0.01	1	0.416845728002954	1	106	NA	242.553517995999	0	0.5	2.85	1	230.830754620001	231.247600348004	"9"	38096.759886237	38093.778987839	1.5	0.1
0.01	1	0.684679594000045	1	106	NA	242.553517995999	0	0.5	2.85	1	231.48186254	232.166542134	"9"	38096.759886237	38093.778987839	1.5	0.1
0.01	1	2.29592300699733	1	106	NA	242.553517995999	0	0.5	2.85	1	232.399985064003	234.695908071	"9"	38096.759886237	38093.778987839	1.5	0.1
0.01	1	0.319098517000384	1	106	NA	242.553517995999	0	0.5	2.85	1	234.920940420001	235.240038937001	"9"	38096.759886237	38093.778987839	1.5	0.1
0.01	1	0.353837710004882	1	106	NA	242.553517995999	0	0.5	2.85	1	235.471993728999	235.825831439004	"9"	38096.759886237	38093.778987839	1.5	0.1
0.01	1	4.04734023399942	1	106	NA	242.553517995999	0	0.5	2.85	1	236.056129734003	240.103469968002	"9"	38096.759886237	38093.778987839	1.5	0.1
0.01	1	2.22167299399734	2	106	NA	242.553517995999	0	0.5	2.85	1	240.330124594002	242.551797587999	"9"	38096.759886237	38093.778987839	1.5	0.1
0.01	1	1.86718886100425	1	21	253.303457070004	NA	1	0	2.85	1	244.604038489997	246.471227351001	"10"	38096.759886237	38093.778987839	1.5	0.1
0.01	1	0.316159082001832	1	21	253.303457070004	NA	1	0	2.85	1	246.707406125002	247.023565207004	"10"	38096.759886237	38093.778987839	1.5	0.1
0.01	1	0.259837479003181	1	21	253.303457070004	NA	1	0	2.85	1	247.258451768997	247.518289248001	"10"	38096.759886237	38093.778987839	1.5	0.1
0.01	1	0.185212784999749	1	21	253.303457070004	NA	1	0	2.85	1	247.742549322	247.927762107	"10"	38096.759886237	38093.778987839	1.5	0.1
0.01	1	0.0637350960023468	1	21	253.303457070004	NA	1	0	2.85	1	248.159805896998	248.223540993	"10"	38096.759886237	38093.778987839	1.5	0.1
0.01	1	0.0989067740010796	1	21	253.303457070004	NA	1	0	2.85	1	248.460393690999	248.559300465	"10"	38096.759886237	38093.778987839	1.5	0.1
0.01	1	0.00228091699682409	1	21	253.303457070004	NA	1	0	2.85	1	248.794304397001	248.796585313998	"10"	38096.759886237	38093.778987839	1.5	0.1
0.01	1	0.0187931370019214	1	21	253.303457070004	NA	1	0	2.85	1	249.028019703997	249.046812840999	"10"	38096.759886237	38093.778987839	1.5	0.1
0.01	1	0.00221961799979908	1	21	253.303457070004	NA	1	0	2.85	1	249.278434284002	249.280653902002	"10"	38096.759886237	38093.778987839	1.5	0.1
0.01	1	0.01475144700089	1	21	253.303457070004	NA	1	0	2.85	1	249.512162815001	249.526914262002	"10"	38096.759886237	38093.778987839	1.5	0.1
0.01	1	0.283889509999426	1	21	253.303457070004	NA	1	0	2.85	1	249.762601080001	250.046490590001	"10"	38096.759886237	38093.778987839	1.5	0.1
0.01	1	0.0236093740022625	1	21	253.303457070004	NA	1	0	2.85	1	250.280260102001	250.303869476003	"10"	38096.759886237	38093.778987839	1.5	0.1
0.01	1	0.00358033000520663	1	21	253.303457070004	NA	1	0	2.85	1	250.530639566998	250.534219897003	"10"	38096.759886237	38093.778987839	1.5	0.1
0.01	1	0.0100712200000999	1	21	253.303457070004	NA	1	0	2.85	1	250.764232203997	250.774303423997	"10"	38096.759886237	38093.778987839	1.5	0.1
0.01	1	0.0181529940018663	1	21	253.303457070004	NA	1	0	2.85	1	250.997975696999	251.016128691001	"10"	38096.759886237	38093.778987839	1.5	0.1
0.01	1	0.25369042300008	1	21	253.303457070004	NA	1	0	2.85	1	251.248329537004	251.502019960004	"10"	38096.759886237	38093.778987839	1.5	0.1
0.01	1	0.0458717560031801	1	21	253.303457070004	NA	1	0	2.85	1	251.732570581	251.778442337003	"10"	38096.759886237	38093.778987839	1.5	0.1
0.01	1	0.0061550559985335	1	21	253.303457070004	NA	1	0	2.85	1	252.016324520002	252.022479576	"10"	38096.759886237	38093.778987839	1.5	0.1
0.01	1	0.00362953500007279	1	21	253.303457070004	NA	1	0	2.85	1	252.250050176997	252.253679711997	"10"	38096.759886237	38093.778987839	1.5	0.1
0.01	1	0.00313135699980194	1	21	253.303457070004	NA	1	0	2.85	1	252.483773127002	252.486904484002	"10"	38096.759886237	38093.778987839	1.5	0.1
0.01	1	0.474003507995803	1	21	253.303457070004	NA	1	0	2.85	1	252.717576754003	253.191580261999	"10"	38096.759886237	38093.778987839	1.5	0.1
0.01	1	0.507435325998813	1	19	263.470784739999	NA	1	0	2.85	1	255.338709711999	255.846145037998	"11"	38096.759886237	38093.778987839	1.5	0.1
0.01	1	0.622586669000157	1	19	263.470784739999	NA	1	0	2.85	1	256.073162050001	256.695748719001	"11"	38096.759886237	38093.778987839	1.5	0.1
0.01	1	0.138142400006473	1	19	263.470784739999	NA	1	0	2.85	1	256.924673743997	257.062816144004	"11"	38096.759886237	38093.778987839	1.5	0.1
0.01	1	0.763186029005738	1	19	263.470784739999	NA	1	0	2.85	1	257.292003367998	258.055189397004	"11"	38096.759886237	38093.778987839	1.5	0.1
0.01	1	0.00394746799429413	1	19	263.470784739999	NA	1	0	2.85	1	258.293655414003	258.297602881998	"11"	38096.759886237	38093.778987839	1.5	0.1
0.01	1	0.246834675999708	1	19	263.470784739999	NA	1	0	2.85	1	258.527396541002	258.774231217001	"11"	38096.759886237	38093.778987839	1.5	0.1
0.01	1	0.0362396620039362	1	19	263.470784739999	NA	1	0	2.85	1	259.011453799998	259.047693462002	"11"	38096.759886237	38093.778987839	1.5	0.1
0.01	1	0.015681886994571	1	19	263.470784739999	NA	1	0	2.85	1	259.278545261004	259.294227147999	"11"	38096.759886237	38093.778987839	1.5	0.1
0.01	1	0.0217629530015984	1	19	263.470784739999	NA	1	0	2.85	1	259.528953052002	259.550716005004	"11"	38096.759886237	38093.778987839	1.5	0.1
0.01	1	0.0279380790016148	1	19	263.470784739999	NA	1	0	2.85	1	259.779361155997	259.807299234999	"11"	38096.759886237	38093.778987839	1.5	0.1
0.01	1	0.489855053005158	1	19	263.470784739999	NA	1	0	2.85	1	260.029790098997	260.519645152002	"11"	38096.759886237	38093.778987839	1.5	0.1
0.01	1	0.212471993996587	1	19	263.470784739999	NA	1	0	2.85	1	260.747676117004	260.960148111	"11"	38096.759886237	38093.778987839	1.5	0.1
0.01	1	0.0887411659932695	1	19	263.470784739999	NA	1	0	2.85	1	261.198523461004	261.287264626997	"11"	38096.759886237	38093.778987839	1.5	0.1
0.01	1	0.123657753996667	1	19	263.470784739999	NA	1	0	2.85	1	261.51565162	261.639309373997	"11"	38096.759886237	38093.778987839	1.5	0.1
0.01	1	0.101353074998769	1	19	263.470784739999	NA	1	0	2.85	1	261.866191013003	261.967544088002	"11"	38096.759886237	38093.778987839	1.5	0.1
0.01	1	0.247641436006234	1	19	263.470784739999	NA	1	0	2.85	1	262.200044327998	262.447685764004	"11"	38096.759886237	38093.778987839	1.5	0.1
0.01	1	0.11153435199958	1	19	263.470784739999	NA	1	0	2.85	1	262.684214538	262.795748889999	"11"	38096.759886237	38093.778987839	1.5	0.1
0.01	1	0.0201499489994603	1	19	263.470784739999	NA	1	0	2.85	1	263.018195566998	263.038345515997	"11"	38096.759886237	38093.778987839	1.5	0.1
0.01	1	0.0827616829992621	1	19	263.470784739999	NA	1	0	2.85	1	263.268580811004	263.351342494003	"11"	38096.759886237	38093.778987839	1.5	0.1
0.01	1	0.0526931470012642	1	63	NA	285.568905025997	0	0.25	3.1	1	265.522375877998	265.575069024999	"12"	38096.759886237	38093.778987839	1.5	0.1
0.01	1	0.312498277002305	1	63	NA	285.568905025997	0	0.25	3.1	1	265.806437719999	266.118935997001	"12"	38096.759886237	38093.778987839	1.5	0.1
0.01	1	0.0513355879957089	1	63	NA	285.568905025997	0	0.25	3.1	1	266.340404866001	266.391740453997	"12"	38096.759886237	38093.778987839	1.5	0.1
0.01	1	0.0554391670011682	1	63	NA	285.568905025997	0	0.25	3.1	1	266.624247471998	266.679686639	"12"	38096.759886237	38093.778987839	1.5	0.1
0.01	1	0.00223461400310043	1	63	NA	285.568905025997	0	0.25	3.1	1	266.908099688997	266.910334303	"12"	38096.759886237	38093.778987839	1.5	0.1
0.01	1	0.337939693999942	1	63	NA	285.568905025997	0	0.25	3.1	1	267.141742298001	267.479681992001	"12"	38096.759886237	38093.778987839	1.5	0.1
0.01	1	0.0896817339962581	1	63	NA	285.568905025997	0	0.25	3.1	1	267.709407246002	267.799088979998	"12"	38096.759886237	38093.778987839	1.5	0.1
0.01	1	0.0680633259980823	1	63	NA	285.568905025997	0	0.25	3.1	1	268.026590041001	268.094653366999	"12"	38096.759886237	38093.778987839	1.5	0.1
0.01	1	0.0489944450018811	1	63	NA	285.568905025997	0	0.25	3.1	1	268.327213912999	268.376208358	"12"	38096.759886237	38093.778987839	1.5	0.1
0.01	1	0.107382351001434	1	63	NA	285.568905025997	0	0.25	3.1	1	268.610904567002	268.718286918003	"12"	38096.759886237	38093.778987839	1.5	0.1
0.01	1	3.0855524159997	1	63	NA	285.568905025997	0	0.25	3.1	1	268.944736753998	272.030289169998	"12"	38096.759886237	38093.778987839	1.5	0.1
0.01	1	0.308246590000635	1	63	NA	285.568905025997	0	0.25	3.1	1	272.267121921999	272.575368512	"12"	38096.759886237	38093.778987839	1.5	0.1
0.01	1	0.285595431996626	1	63	NA	285.568905025997	0	0.25	3.1	1	272.801314634002	273.086910065998	"12"	38096.759886237	38093.778987839	1.5	0.1
0.01	1	0.241290596000908	1	63	NA	285.568905025997	0	0.25	3.1	1	273.318834680998	273.560125276999	"12"	38096.759886237	38093.778987839	1.5	0.1
0.01	1	0.260888097000134	1	63	NA	285.568905025997	0	0.25	3.1	1	273.786219337002	274.047107434002	"12"	38096.759886237	38093.778987839	1.5	0.1
0.01	1	0.312749436998274	1	63	NA	285.568905025997	0	0.25	3.1	1	274.270486300004	274.583235737002	"12"	38096.759886237	38093.778987839	1.5	0.1
0.01	1	0.32974486999592	1	63	NA	285.568905025997	0	0.25	3.1	1	274.821487177003	275.151232046999	"12"	38096.759886237	38093.778987839	1.5	0.1
0.01	1	0.610747860999254	1	63	NA	285.568905025997	0	0.25	3.1	1	275.388999426003	275.999747287002	"12"	38096.759886237	38093.778987839	1.5	0.1
0.01	1	0.550693044999207	1	63	NA	285.568905025997	0	0.25	3.1	1	276.223828200003	276.774521245003	"12"	38096.759886237	38093.778987839	1.5	0.1
0.01	1	0.0627455620051478	1	63	NA	285.568905025997	0	0.25	3.1	1	277.008417318997	277.071162881002	"12"	38096.759886237	38093.778987839	1.5	0.1
0.01	1	3.53083764000621	1	63	NA	285.568905025997	0	0.25	3.1	1	277.308851982998	280.839689623004	"12"	38096.759886237	38093.778987839	1.5	0.1
0.01	1	0.390086095001607	1	63	NA	285.568905025997	0	0.25	3.1	1	281.065235303999	281.455321399	"12"	38096.759886237	38093.778987839	1.5	0.1
0.01	1	0.467835914998432	1	63	NA	285.568905025997	0	0.25	3.1	1	281.682904499001	282.150740413999	"12"	38096.759886237	38093.778987839	1.5	0.1
0.01	1	0.485475373003283	1	63	NA	285.568905025997	0	0.25	3.1	1	282.384122422998	282.869597796001	"12"	38096.759886237	38093.778987839	1.5	0.1
0.01	1	0.450197068996204	1	63	NA	285.568905025997	0	0.25	3.1	1	283.101940284003	283.552137352999	"12"	38096.759886237	38093.778987839	1.5	0.1
0.01	1	1.78094691699516	2	63	NA	285.568905025997	0	0.25	3.1	1	283.786435346003	285.567382262998	"12"	38096.759886237	38093.778987839	1.5	0.1
0.01	1	0.0438300469977548	1	54	NA	313.639961697998	0	0.45	3.55	1	287.626328924001	287.670158970999	"13"	38096.759886237	38093.778987839	1.5	0.1
0.01	1	0.193237086998124	1	54	NA	313.639961697998	0	0.45	3.55	1	287.91001729	288.103254376998	"13"	38096.759886237	38093.778987839	1.5	0.1
0.01	1	0.119123975004186	1	54	NA	313.639961697998	0	0.45	3.55	1	288.327478373998	288.446602349002	"13"	38096.759886237	38093.778987839	1.5	0.1
0.01	1	0.209183865001251	1	54	NA	313.639961697998	0	0.45	3.55	1	288.678008629002	288.887192494003	"13"	38096.759886237	38093.778987839	1.5	0.1
0.01	1	0.128213271003915	1	54	NA	313.639961697998	0	0.45	3.55	1	289.112071308999	289.240284580002	"13"	38096.759886237	38093.778987839	1.5	0.1
0.01	1	0.193181449001713	1	54	NA	313.639961697998	0	0.45	3.55	1	289.462625155	289.655806604002	"13"	38096.759886237	38093.778987839	1.5	0.1
0.01	1	0.159463547002815	1	54	NA	313.639961697998	0	0.45	3.55	1	289.880008546999	290.039472094002	"13"	38096.759886237	38093.778987839	1.5	0.1
0.01	1	0.112509054997645	1	54	NA	313.639961697998	0	0.45	3.55	1	290.264023148004	290.376532203001	"13"	38096.759886237	38093.778987839	1.5	0.1
0.01	1	0.105527771003835	1	54	NA	313.639961697998	0	0.45	3.55	1	290.614577786	290.720105557004	"13"	38096.759886237	38093.778987839	1.5	0.1
0.01	1	0.17851253599656	1	54	NA	313.639961697998	0	0.45	3.55	1	290.948540491001	291.127053026998	"13"	38096.759886237	38093.778987839	1.5	0.1
0.01	1	0.257453584003088	1	54	NA	313.639961697998	0	0.45	3.55	1	291.365795220001	291.623248804004	"13"	38096.759886237	38093.778987839	1.5	0.1
0.01	1	0.231631298003776	1	54	NA	313.639961697998	0	0.45	3.55	1	291.850059944998	292.081691243002	"13"	38096.759886237	38093.778987839	1.5	0.1
0.01	1	0.21766929399746	1	54	NA	313.639961697998	0	0.45	3.55	1	292.317496296004	292.535165590001	"13"	38096.759886237	38093.778987839	1.5	0.1
0.01	1	0.201017755003704	1	54	NA	313.639961697998	0	0.45	3.55	1	292.768219284	292.969237039004	"13"	38096.759886237	38093.778987839	1.5	0.1
0.01	1	0.173314839994418	1	54	NA	313.639961697998	0	0.45	3.55	1	293.202305477003	293.375620316998	"13"	38096.759886237	38093.778987839	1.5	0.1
0.01	1	0.268322006006201	1	54	NA	313.639961697998	0	0.45	3.55	1	293.602968070998	293.871290077004	"13"	38096.759886237	38093.778987839	1.5	0.1
0.01	1	0.198647945995617	1	54	NA	313.639961697998	0	0.45	3.55	1	294.103823404002	294.302471349998	"13"	38096.759886237	38093.778987839	1.5	0.1
0.01	1	0.0939119769973331	1	54	NA	313.639961697998	0	0.45	3.55	1	294.537918866001	294.631830842998	"13"	38096.759886237	38093.778987839	1.5	0.1
0.01	1	0.0727772949976497	1	54	NA	313.639961697998	0	0.45	3.55	1	294.855061722003	294.927839017	"13"	38096.759886237	38093.778987839	1.5	0.1
0.01	1	0.235869648000516	1	54	NA	313.639961697998	0	0.45	3.55	1	295.155709092003	295.391578740004	"13"	38096.759886237	38093.778987839	1.5	0.1
0.01	1	0.216123457998037	1	54	NA	313.639961697998	0	0.45	3.55	1	295.623018716004	295.839142174002	"13"	38096.759886237	38093.778987839	1.5	0.1
0.01	1	0.189756601997942	1	54	NA	313.639961697998	0	0.45	3.55	1	296.073820903999	296.263577505997	"13"	38096.759886237	38093.778987839	1.5	0.1
0.01	1	0.171517301998392	1	54	NA	313.639961697998	0	0.45	3.55	1	296.491256909001	296.662774210999	"13"	38096.759886237	38093.778987839	1.5	0.1
0.01	1	0.204186014001607	1	54	NA	313.639961697998	0	0.45	3.55	1	296.891815524003	297.096001538004	"13"	38096.759886237	38093.778987839	1.5	0.1
0.01	1	0.249382547001005	1	54	NA	313.639961697998	0	0.45	3.55	1	297.325868886997	297.575251433998	"13"	38096.759886237	38093.778987839	1.5	0.1
0.01	1	0.22198147400195	1	54	NA	313.639961697998	0	0.45	3.55	1	297.810063550998	298.032045025	"13"	38096.759886237	38093.778987839	1.5	0.1
0.01	1	0.250343632003933	1	54	NA	313.639961697998	0	0.45	3.55	1	298.260805165999	298.511148798003	"13"	38096.759886237	38093.778987839	1.5	0.1
0.01	1	0.16655643699778	1	54	NA	313.639961697998	0	0.45	3.55	1	298.745079487002	298.911635924	"13"	38096.759886237	38093.778987839	1.5	0.1
0.01	1	0.164891034000902	1	54	NA	313.639961697998	0	0.45	3.55	1	299.145597039998	299.310488073999	"13"	38096.759886237	38093.778987839	1.5	0.1
0.01	1	0.212667202999	1	54	NA	313.639961697998	0	0.45	3.55	1	299.546288268	299.758955470999	"13"	38096.759886237	38093.778987839	1.5	0.1
0.01	1	0.259717966000608	1	54	NA	313.639961697998	0	0.45	3.55	1	299.980326803998	300.240044769998	"13"	38096.759886237	38093.778987839	1.5	0.1
0.01	1	0.262615912004549	1	54	NA	313.639961697998	0	0.45	3.55	1	300.464521731999	300.727137644004	"13"	38096.759886237	38093.778987839	1.5	0.1
0.01	1	0.296942372995545	1	54	NA	313.639961697998	0	0.45	3.55	1	300.965302244003	301.262244616999	"13"	38096.759886237	38093.778987839	1.5	0.1
0.01	1	0.260195205002674	1	54	NA	313.639961697998	0	0.45	3.55	1	301.499524163999	301.759719369002	"13"	38096.759886237	38093.778987839	1.5	0.1
0.01	1	0.336201905003691	1	54	NA	313.639961697998	0	0.45	3.55	1	301.983765972	302.319967877003	"13"	38096.759886237	38093.778987839	1.5	0.1
0.01	1	1.21488422299444	1	54	NA	313.639961697998	0	0.45	3.55	1	302.551355490003	303.766239712997	"13"	38096.759886237	38093.778987839	1.5	0.1
0.01	1	0.284246034003445	1	54	NA	313.639961697998	0	0.45	3.55	1	304.003789312999	304.288035347003	"13"	38096.759886237	38093.778987839	1.5	0.1
0.01	1	0.301679839998542	1	54	NA	313.639961697998	0	0.45	3.55	1	304.521344360001	304.823024199999	"13"	38096.759886237	38093.778987839	1.5	0.1
0.01	1	0.392094987000746	1	54	NA	313.639961697998	0	0.45	3.55	1	305.055580136002	305.447675123003	"13"	38096.759886237	38093.778987839	1.5	0.1
0.01	1	0.421085415997368	1	54	NA	313.639961697998	0	0.45	3.55	1	305.673443562002	306.094528977999	"13"	38096.759886237	38093.778987839	1.5	0.1
0.01	1	1.37819454900455	1	54	NA	313.639961697998	0	0.45	3.55	1	306.324428264998	307.702622814002	"13"	38096.759886237	38093.778987839	1.5	0.1
0.01	1	0.366306174000783	1	54	NA	313.639961697998	0	0.45	3.55	1	307.943789860001	308.310096034002	"13"	38096.759886237	38093.778987839	1.5	0.1
0.01	1	0.382852533002733	1	54	NA	313.639961697998	0	0.45	3.55	1	308.544779923999	308.927632457002	"13"	38096.759886237	38093.778987839	1.5	0.1
0.01	1	0.580780502001289	1	54	NA	313.639961697998	0	0.45	3.55	1	309.162582242003	309.743362744004	"13"	38096.759886237	38093.778987839	1.5	0.1
0.01	1	0.532840419000422	1	54	NA	313.639961697998	0	0.45	3.55	1	309.980550867003	310.513391286004	"13"	38096.759886237	38093.778987839	1.5	0.1
0.01	1	2.88987793900014	2	54	NA	313.639961697998	0	0.45	3.55	1	310.748520510999	313.638398449999	"13"	38096.759886237	38093.778987839	1.5	0.1
0.01	1	0.283706554000673	1	103	NA	332.993388071998	0	0.4	3.95	1	315.706798316998	315.990504870999	"14"	38096.759886237	38093.778987839	1.5	0.1
0.01	1	0.0544399370046449	1	103	NA	332.993388071998	0	0.4	3.95	1	316.224320973997	316.278760911002	"14"	38096.759886237	38093.778987839	1.5	0.1
0.01	1	0.0448190189999877	1	103	NA	332.993388071998	0	0.4	3.95	1	316.508252697	316.553071716	"14"	38096.759886237	38093.778987839	1.5	0.1
0.01	1	0.0472459270022227	1	103	NA	332.993388071998	0	0.4	3.95	1	316.7752263	316.822472227002	"14"	38096.759886237	38093.778987839	1.5	0.1
0.01	1	0.0754661199971451	1	103	NA	332.993388071998	0	0.4	3.95	1	317.059220347001	317.134686466998	"14"	38096.759886237	38093.778987839	1.5	0.1
0.01	1	0.39320171399595	1	103	NA	332.993388071998	0	0.4	3.95	1	317.359521400002	317.752723113997	"14"	38096.759886237	38093.778987839	1.5	0.1
0.01	1	0.102600844002154	1	103	NA	332.993388071998	0	0.4	3.95	1	317.977319990001	318.079920834003	"14"	38096.759886237	38093.778987839	1.5	0.1
0.01	1	0.0482974760016077	1	103	NA	332.993388071998	0	0.4	3.95	1	318.311128182999	318.359425659	"14"	38096.759886237	38093.778987839	1.5	0.1
0.01	1	0.0118252489992301	1	103	NA	332.993388071998	0	0.4	3.95	1	318.595147227003	318.606972476002	"14"	38096.759886237	38093.778987839	1.5	0.1
0.01	1	0.0593262379989028	1	103	NA	332.993388071998	0	0.4	3.95	1	318.828703502004	318.888029740003	"14"	38096.759886237	38093.778987839	1.5	0.1
0.01	1	0.336054202998639	1	103	NA	332.993388071998	0	0.4	3.95	1	319.129166947001	319.46522115	"14"	38096.759886237	38093.778987839	1.5	0.1
0.01	1	0.062488690004102	1	103	NA	332.993388071998	0	0.4	3.95	1	319.696832652	319.759321342004	"14"	38096.759886237	38093.778987839	1.5	0.1
0.01	1	0.041761223001231	1	103	NA	332.993388071998	0	0.4	3.95	1	319.997352901002	320.039114124003	"14"	38096.759886237	38093.778987839	1.5	0.1
0.01	1	0.0697315659999731	1	103	NA	332.993388071998	0	0.4	3.95	1	320.264425530004	320.334157096004	"14"	38096.759886237	38093.778987839	1.5	0.1
0.01	1	0.122724227003346	1	103	NA	332.993388071998	0	0.4	3.95	1	320.565006566998	320.687730794001	"14"	38096.759886237	38093.778987839	1.5	0.1
0.01	1	0.299532732002262	1	103	NA	332.993388071998	0	0.4	3.95	1	320.915693627001	321.215226359003	"14"	38096.759886237	38093.778987839	1.5	0.1
0.01	1	0.0701130970046506	1	103	NA	332.993388071998	0	0.4	3.95	1	321.449798433998	321.519911531002	"14"	38096.759886237	38093.778987839	1.5	0.1
0.01	1	0.0577895099995658	1	103	NA	332.993388071998	0	0.4	3.95	1	321.75031566	321.808105169999	"14"	38096.759886237	38093.778987839	1.5	0.1
0.01	1	0.0482774769989192	1	103	NA	332.993388071998	0	0.4	3.95	1	322.034189659003	322.082467136002	"14"	38096.759886237	38093.778987839	1.5	0.1
0.01	1	0.024628777995531	1	103	NA	332.993388071998	0	0.4	3.95	1	322.318058219003	322.342686996999	"14"	38096.759886237	38093.778987839	1.5	0.1
0.01	1	0.444349377001345	1	103	NA	332.993388071998	0	0.4	3.95	1	322.568402427001	323.012751804003	"14"	38096.759886237	38093.778987839	1.5	0.1
0.01	1	0.00260789999447297	1	103	NA	332.993388071998	0	0.4	3.95	1	323.236169369004	323.238777268998	"14"	38096.759886237	38093.778987839	1.5	0.1
0.01	1	0.0424466109980131	1	103	NA	332.993388071998	0	0.4	3.95	1	323.469823949003	323.512270560001	"14"	38096.759886237	38093.778987839	1.5	0.1
0.01	1	0.00815766799496487	1	103	NA	332.993388071998	0	0.4	3.95	1	323.737038024003	323.745195691998	"14"	38096.759886237	38093.778987839	1.5	0.1
0.01	1	0.0520358509966172	1	103	NA	332.993388071998	0	0.4	3.95	1	323.970768329003	324.02280418	"14"	38096.759886237	38093.778987839	1.5	0.1
0.01	1	0.335777804000827	1	103	NA	332.993388071998	0	0.4	3.95	1	324.254440848999	324.590218653	"14"	38096.759886237	38093.778987839	1.5	0.1
0.01	1	0.0805131380038802	1	103	NA	332.993388071998	0	0.4	3.95	1	324.822169539999	324.902682678003	"14"	38096.759886237	38093.778987839	1.5	0.1
0.01	1	0.0133977969962871	1	103	NA	332.993388071998	0	0.4	3.95	1	325.139312680003	325.152710476999	"14"	38096.759886237	38093.778987839	1.5	0.1
0.01	1	0.00228843199874973	1	103	NA	332.993388071998	0	0.4	3.95	1	325.389714928999	325.392003360997	"14"	38096.759886237	38093.778987839	1.5	0.1
0.01	1	0.0400601459987229	1	103	NA	332.993388071998	0	0.4	3.95	1	325.623507442004	325.663567588002	"14"	38096.759886237	38093.778987839	1.5	0.1
0.01	1	0.42766109600052	1	103	NA	332.993388071998	0	0.4	3.95	1	325.890725814003	326.318386910003	"14"	38096.759886237	38093.778987839	1.5	0.1
0.01	1	0.0968860010034405	1	103	NA	332.993388071998	0	0.4	3.95	1	326.541758430998	326.638644432001	"14"	38096.759886237	38093.778987839	1.5	0.1
0.01	1	0.0348317509997287	1	103	NA	332.993388071998	0	0.4	3.95	1	326.875671782	326.910503532999	"14"	38096.759886237	38093.778987839	1.5	0.1
0.01	1	0.039425625000149	1	103	NA	332.993388071998	0	0.4	3.95	1	327.142673993003	327.182099618003	"14"	38096.759886237	38093.778987839	1.5	0.1
0.01	1	0.0607176049961708	1	103	NA	332.993388071998	0	0.4	3.95	1	327.409920406004	327.470638011	"14"	38096.759886237	38093.778987839	1.5	0.1
0.01	1	2.28870384900074	1	103	NA	332.993388071998	0	0.4	3.95	1	327.693713198001	329.982417047002	"14"	38096.759886237	38093.778987839	1.5	0.1
0.01	1	0.25769649099675	1	103	NA	332.993388071998	0	0.4	3.95	1	330.214517731001	330.472214221998	"14"	38096.759886237	38093.778987839	1.5	0.1
0.01	1	0.180636906996369	1	103	NA	332.993388071998	0	0.4	3.95	1	330.698634163004	330.87927107	"14"	38096.759886237	38093.778987839	1.5	0.1
0.01	1	0.307490113002132	1	103	NA	332.993388071998	0	0.4	3.95	1	331.115997091998	331.423487205	"14"	38096.759886237	38093.778987839	1.5	0.1
0.01	1	0.269889382994734	1	103	NA	332.993388071998	0	0.4	3.95	1	331.650183559002	331.920072941997	"14"	38096.759886237	38093.778987839	1.5	0.1
0.01	1	0.840608124999562	2	103	NA	332.993388071998	0	0.4	3.95	1	332.151199890002	332.991808015002	"14"	38096.759886237	38093.778987839	1.5	0.1
0.01	1	0.423089989999426	1	120	NA	362.857088773999	0	0.41	4.36	1	335.039375157001	335.462465147	"15"	38096.759886237	38093.778987839	1.5	0.1
0.01	1	0.0519555819992092	1	120	NA	362.857088773999	0	0.41	4.36	1	335.690464081003	335.742419663002	"15"	38096.759886237	38093.778987839	1.5	0.1
0.01	1	0.00879230000282405	1	120	NA	362.857088773999	0	0.41	4.36	1	335.974183639999	335.982975940002	"15"	38096.759886237	38093.778987839	1.5	0.1
0.01	1	0.00231812299898593	1	120	NA	362.857088773999	0	0.41	4.36	1	336.207991484	336.210309606999	"15"	38096.759886237	38093.778987839	1.5	0.1
0.01	1	0.0022747969996999	1	120	NA	362.857088773999	0	0.41	4.36	1	336.44163768	336.443912477	"15"	38096.759886237	38093.778987839	1.5	0.1
0.01	1	0.411233209000784	1	120	NA	362.857088773999	0	0.41	4.36	1	336.675365807998	337.086599016999	"15"	38096.759886237	38093.778987839	1.5	0.1
0.01	1	0.0160965030008811	1	120	NA	362.857088773999	0	0.41	4.36	1	337.309860330002	337.325956833003	"15"	38096.759886237	38093.778987839	1.5	0.1
0.01	1	0.00701606000075117	1	120	NA	362.857088773999	0	0.41	4.36	1	337.560286132	337.567302192001	"15"	38096.759886237	38093.778987839	1.5	0.1
0.01	1	0.00224385099863866	1	120	NA	362.857088773999	0	0.41	4.36	1	337.793980230999	337.796224081998	"15"	38096.759886237	38093.778987839	1.5	0.1
0.01	1	0.00223729099525372	1	120	NA	362.857088773999	0	0.41	4.36	1	338.027723974003	338.029961264998	"15"	38096.759886237	38093.778987839	1.5	0.1
0.01	1	0.426731244995608	1	120	NA	362.857088773999	0	0.41	4.36	1	338.261342659003	338.688073903999	"15"	38096.759886237	38093.778987839	1.5	0.1
0.01	1	0.00220315100159496	1	120	NA	362.857088773999	0	0.41	4.36	1	338.929134307	338.931337458002	"15"	38096.759886237	38093.778987839	1.5	0.1
0.01	1	0.00709341200126801	1	120	NA	362.857088773999	0	0.41	4.36	1	339.162964992	339.170058404001	"15"	38096.759886237	38093.778987839	1.5	0.1
0.01	1	0.00364977899880614	1	120	NA	362.857088773999	0	0.41	4.36	1	339.396682824001	339.400332603	"15"	38096.759886237	38093.778987839	1.5	0.1
0.01	1	0.00255985499825329	1	120	NA	362.857088773999	0	0.41	4.36	1	339.630372328	339.632932182998	"15"	38096.759886237	38093.778987839	1.5	0.1
0.01	1	0.681323881995922	1	120	NA	362.857088773999	0	0.41	4.36	1	339.864259847003	340.545583728999	"15"	38096.759886237	38093.778987839	1.5	0.1
0.01	1	0.0570521629997529	1	120	NA	362.857088773999	0	0.41	4.36	1	340.782364680003	340.839416843002	"15"	38096.759886237	38093.778987839	1.5	0.1
0.01	1	0.0288357089957572	1	120	NA	362.857088773999	0	0.41	4.36	1	341.066353797003	341.095189505999	"15"	38096.759886237	38093.778987839	1.5	0.1
0.01	1	0.00984028200036846	1	120	NA	362.857088773999	0	0.41	4.36	1	341.333234988997	341.343075270997	"15"	38096.759886237	38093.778987839	1.5	0.1
0.01	1	0.0723547649977263	1	120	NA	362.857088773999	0	0.41	4.36	1	341.566901979	341.639256743998	"15"	38096.759886237	38093.778987839	1.5	0.1
0.01	1	0.708299738995265	1	120	NA	362.857088773999	0	0.41	4.36	1	341.867411630003	342.575711368998	"15"	38096.759886237	38093.778987839	1.5	0.1
0.01	1	0.0117255750010372	1	120	NA	362.857088773999	0	0.41	4.36	1	342.802429664	342.814155239001	"15"	38096.759886237	38093.778987839	1.5	0.1
0.01	1	0.0428285710004275	1	120	NA	362.857088773999	0	0.41	4.36	1	343.052780350001	343.095608921001	"15"	38096.759886237	38093.778987839	1.5	0.1
0.01	1	0.00373978200514102	1	120	NA	362.857088773999	0	0.41	4.36	1	343.319965431998	343.323705214003	"15"	38096.759886237	38093.778987839	1.5	0.1
0.01	1	0.00398261199734407	1	120	NA	362.857088773999	0	0.41	4.36	1	343.553704762002	343.557687373999	"15"	38096.759886237	38093.778987839	1.5	0.1
0.01	1	0.531918835004035	1	120	NA	362.857088773999	0	0.41	4.36	1	343.787367284	344.319286119004	"15"	38096.759886237	38093.778987839	1.5	0.1
0.01	1	0.00207384300301783	1	120	NA	362.857088773999	0	0.41	4.36	1	344.555335156998	344.557409000001	"15"	38096.759886237	38093.778987839	1.5	0.1
0.01	1	0.00269703699450474	1	120	NA	362.857088773999	0	0.41	4.36	1	344.789045554004	344.791742590998	"15"	38096.759886237	38093.778987839	1.5	0.1
0.01	1	0.0405543050001143	1	120	NA	362.857088773999	0	0.41	4.36	1	345.022952667001	345.063506972001	"15"	38096.759886237	38093.778987839	1.5	0.1
0.01	1	0.301547436996771	1	120	NA	362.857088773999	0	0.41	4.36	1	345.289960597001	345.591508033998	"15"	38096.759886237	38093.778987839	1.5	0.1
0.01	1	2.35908544599806	1	120	NA	362.857088773999	0	0.41	4.36	1	345.824104277002	348.183189723	"15"	38096.759886237	38093.778987839	1.5	0.1
0.01	1	0.370279171998845	1	120	NA	362.857088773999	0	0.41	4.36	1	348.411785285003	348.782064457002	"15"	38096.759886237	38093.778987839	1.5	0.1
0.01	1	0.346914923997247	1	120	NA	362.857088773999	0	0.41	4.36	1	349.012879492002	349.359794415999	"15"	38096.759886237	38093.778987839	1.5	0.1
0.01	1	0.353289503000269	1	120	NA	362.857088773999	0	0.41	4.36	1	349.597131818002	349.950421321002	"15"	38096.759886237	38093.778987839	1.5	0.1
0.01	1	0.402518855997187	1	120	NA	362.857088773999	0	0.41	4.36	1	350.181377430003	350.583896286	"15"	38096.759886237	38093.778987839	1.5	0.1
0.01	1	0.430891476993565	1	120	NA	362.857088773999	0	0.41	4.36	1	350.815805397004	351.246696873997	"15"	38096.759886237	38093.778987839	1.5	0.1
0.01	1	0.564104949997272	1	120	NA	362.857088773999	0	0.41	4.36	1	351.483684109	352.047789058997	"15"	38096.759886237	38093.778987839	1.5	0.1
0.01	1	0.626376970998535	1	120	NA	362.857088773999	0	0.41	4.36	1	352.284928879999	352.911305850997	"15"	38096.759886237	38093.778987839	1.5	0.1
0.01	1	0.408783489998314	1	120	NA	362.857088773999	0	0.41	4.36	1	353.136431587001	353.545215077	"15"	38096.759886237	38093.778987839	1.5	0.1
0.01	1	0.372109780000756	1	120	NA	362.857088773999	0	0.41	4.36	1	353.770823159997	354.142932939998	"15"	38096.759886237	38093.778987839	1.5	0.1
0.01	1	3.12337081599981	1	120	NA	362.857088773999	0	0.41	4.36	1	354.371761449998	357.495132265998	"15"	38096.759886237	38093.778987839	1.5	0.1
0.01	1	5.12801170699822	2	120	NA	362.857088773999	0	0.41	4.36	1	357.727514220001	362.855525927	"15"	38096.759886237	38093.778987839	1.5	0.1
0.01	1	0.0610446899954695	1	109	NA	394.345018533997	0	0.5	4.86	1	364.906228029002	364.967272718997	"16"	38096.759886237	38093.778987839	1.5	0.1
0.01	1	0.113267572996847	1	109	NA	394.345018533997	0	0.5	4.86	1	365.206697080001	365.319964652997	"16"	38096.759886237	38093.778987839	1.5	0.1
0.01	1	0.129457176000869	1	109	NA	394.345018533997	0	0.5	4.86	1	365.557378919002	365.686836095003	"16"	38096.759886237	38093.778987839	1.5	0.1
0.01	1	0.265699545001553	1	109	NA	394.345018533997	0	0.5	4.86	1	365.924682352001	366.190381897002	"16"	38096.759886237	38093.778987839	1.5	0.1
0.01	1	0.10885941900051	1	109	NA	394.345018533997	0	0.5	4.86	1	366.425362907998	366.534222326998	"16"	38096.759886237	38093.778987839	1.5	0.1
0.01	1	0.200194764001935	1	109	NA	394.345018533997	0	0.5	4.86	1	366.759274775999	366.959469540001	"16"	38096.759886237	38093.778987839	1.5	0.1
0.01	1	0.0220219070033636	1	109	NA	394.345018533997	0	0.5	4.86	1	367.193309046997	367.215330954001	"16"	38096.759886237	38093.778987839	1.5	0.1
0.01	1	0.0514072270016186	1	109	NA	394.345018533997	0	0.5	4.86	1	367.443971966997	367.495379193999	"16"	38096.759886237	38093.778987839	1.5	0.1
0.01	1	0.0707947300033993	1	109	NA	394.345018533997	0	0.5	4.86	1	367.727738729998	367.798533460002	"16"	38096.759886237	38093.778987839	1.5	0.1
0.01	1	0.138633606002259	1	109	NA	394.345018533997	0	0.5	4.86	1	368.028210764001	368.166844370004	"16"	38096.759886237	38093.778987839	1.5	0.1
0.01	1	0.466614251999999	1	109	NA	394.345018533997	0	0.5	4.86	1	368.395604801997	368.862219053997	"16"	38096.759886237	38093.778987839	1.5	0.1
0.01	1	0.0550139399929321	1	109	NA	394.345018533997	0	0.5	4.86	1	369.096762687004	369.151776626997	"16"	38096.759886237	38093.778987839	1.5	0.1
0.01	1	0.258584801995312	1	109	NA	394.345018533997	0	0.5	4.86	1	369.380374619002	369.638959420998	"16"	38096.759886237	38093.778987839	1.5	0.1
0.01	1	0.158494178998808	1	109	NA	394.345018533997	0	0.5	4.86	1	369.864568399003	370.023062578002	"16"	38096.759886237	38093.778987839	1.5	0.1
0.01	1	0.157519191001484	1	109	NA	394.345018533997	0	0.5	4.86	1	370.248632937	370.406152128002	"16"	38096.759886237	38093.778987839	1.5	0.1
0.01	1	0.191483536000305	1	109	NA	394.345018533997	0	0.5	4.86	1	370.632487080999	370.823970616999	"16"	38096.759886237	38093.778987839	1.5	0.1
0.01	1	0.142181033996167	1	109	NA	394.345018533997	0	0.5	4.86	1	371.049923416002	371.192104449998	"16"	38096.759886237	38093.778987839	1.5	0.1
0.01	1	0.166053428998566	1	109	NA	394.345018533997	0	0.5	4.86	1	371.417314229002	371.583367658	"16"	38096.759886237	38093.778987839	1.5	0.1
0.01	1	0.108721415999753	1	109	NA	394.345018533997	0	0.5	4.86	1	371.817984627	371.926706042999	"16"	38096.759886237	38093.778987839	1.5	0.1
0.01	1	0.151627567996911	1	109	NA	394.345018533997	0	0.5	4.86	1	372.151865534004	372.303493102001	"16"	38096.759886237	38093.778987839	1.5	0.1
0.01	1	0.162704656999267	1	109	NA	394.345018533997	0	0.5	4.86	1	372.535806097003	372.698510754002	"16"	38096.759886237	38093.778987839	1.5	0.1
0.01	1	0.19874107799842	1	109	NA	394.345018533997	0	0.5	4.86	1	372.936415349002	373.135156427001	"16"	38096.759886237	38093.778987839	1.5	0.1
0.01	1	0.195687571002054	1	109	NA	394.345018533997	0	0.5	4.86	1	373.37047052	373.566158091002	"16"	38096.759886237	38093.778987839	1.5	0.1
0.01	1	0.14672569999675	1	109	NA	394.345018533997	0	0.5	4.86	1	373.787816486001	373.934542185998	"16"	38096.759886237	38093.778987839	1.5	0.1
0.01	1	0.179993034005747	1	109	NA	394.345018533997	0	0.5	4.86	1	374.171764416998	374.351757451004	"16"	38096.759886237	38093.778987839	1.5	0.1
0.01	1	0.146054262993857	1	109	NA	394.345018533997	0	0.5	4.86	1	374.589107771004	374.735162033998	"16"	38096.759886237	38093.778987839	1.5	0.1
0.01	1	0.152817268004583	1	109	NA	394.345018533997	0	0.5	4.86	1	374.973274892	375.126092160004	"16"	38096.759886237	38093.778987839	1.5	0.1
0.01	1	0.193379846001335	1	109	NA	394.345018533997	0	0.5	4.86	1	375.357153101999	375.550532948	"16"	38096.759886237	38093.778987839	1.5	0.1
0.01	1	0.111580926997704	1	109	NA	394.345018533997	0	0.5	4.86	1	375.774484824004	375.886065751001	"16"	38096.759886237	38093.778987839	1.5	0.1
0.01	1	0.1938663500041	1	109	NA	394.345018533997	0	0.5	4.86	1	376.108368786998	376.302235137002	"16"	38096.759886237	38093.778987839	1.5	0.1
0.01	1	0.266419743995357	1	109	NA	394.345018533997	0	0.5	4.86	1	376.525777672003	376.792197415998	"16"	38096.759886237	38093.778987839	1.5	0.1
0.01	1	0.220240561000537	1	109	NA	394.345018533997	0	0.5	4.86	1	377.026711220999	377.246951781999	"16"	38096.759886237	38093.778987839	1.5	0.1
0.01	1	0.185039018004318	1	109	NA	394.345018533997	0	0.5	4.86	1	377.477365585997	377.662404604001	"16"	38096.759886237	38093.778987839	1.5	0.1
0.01	1	0.176949408996734	1	109	NA	394.345018533997	0	0.5	4.86	1	377.894799667003	378.071749076	"16"	38096.759886237	38093.778987839	1.5	0.1
0.01	1	0.208083372999681	1	109	NA	394.345018533997	0	0.5	4.86	1	378.295388368002	378.503471741002	"16"	38096.759886237	38093.778987839	1.5	0.1
0.01	1	0.150795868001296	1	109	NA	394.345018533997	0	0.5	4.86	1	378.729469092003	378.880264960004	"16"	38096.759886237	38093.778987839	1.5	0.1
0.01	1	0.189704575997894	1	109	NA	394.345018533997	0	0.5	4.86	1	379.113355248002	379.303059824	"16"	38096.759886237	38093.778987839	1.5	0.1
0.01	1	0.139129219001916	1	109	NA	394.345018533997	0	0.5	4.86	1	379.530880635997	379.670009854999	"16"	38096.759886237	38093.778987839	1.5	0.1
0.01	1	0.141926727999817	1	109	NA	394.345018533997	0	0.5	4.86	1	379.898103416999	380.040030144999	"16"	38096.759886237	38093.778987839	1.5	0.1
0.01	1	0.270212527000695	1	109	NA	394.345018533997	0	0.5	4.86	1	380.265433993998	380.535646520999	"16"	38096.759886237	38093.778987839	1.5	0.1
0.01	1	3.28057954600081	1	109	NA	394.345018533997	0	0.5	4.86	1	380.766247571002	384.046827117003	"16"	38096.759886237	38093.778987839	1.5	0.1
0.01	1	0.318795997998677	1	109	NA	394.345018533997	0	0.5	4.86	1	384.272063573	384.590859570999	"16"	38096.759886237	38093.778987839	1.5	0.1
0.01	1	0.327843247003329	1	109	NA	394.345018533997	0	0.5	4.86	1	384.82309957	385.150942817003	"16"	38096.759886237	38093.778987839	1.5	0.1
0.01	1	0.296429876005277	1	109	NA	394.345018533997	0	0.5	4.86	1	385.373966833999	385.670396710004	"16"	38096.759886237	38093.778987839	1.5	0.1
0.01	1	0.299703960001352	1	109	NA	394.345018533997	0	0.5	4.86	1	385.908252369998	386.207956329999	"16"	38096.759886237	38093.778987839	1.5	0.1
0.01	1	4.31629326500115	1	109	NA	394.345018533997	0	0.5	4.86	1	386.442394060003	390.758687325004	"16"	38096.759886237	38093.778987839	1.5	0.1
0.01	1	0.311728538996249	1	109	NA	394.345018533997	0	0.5	4.86	1	390.983404306004	391.295132845	"16"	38096.759886237	38093.778987839	1.5	0.1
0.01	1	0.656701182000688	1	109	NA	394.345018533997	0	0.5	4.86	1	391.534300603998	392.191001785999	"16"	38096.759886237	38093.778987839	1.5	0.1
0.01	1	0.348253143994953	1	109	NA	394.345018533997	0	0.5	4.86	1	392.419184183003	392.767437326998	"16"	38096.759886237	38093.778987839	1.5	0.1
0.01	1	0.325454986996192	1	109	NA	394.345018533997	0	0.5	4.86	1	393.003503601001	393.328958587997	"16"	38096.759886237	38093.778987839	1.5	0.1
0.01	1	0.789081732000341	2	109	NA	394.345018533997	0	0.5	4.86	1	393.554353205	394.343434937	"16"	38096.759886237	38093.778987839	1.5	0.1
0.01	1	0.638809007999953	1	71	NA	426.866360079999	0	0.57	5.43	1	396.392431451	397.031240459	"17"	38096.759886237	38093.778987839	1.5	0.1
0.01	1	0.234337517998938	1	71	NA	426.866360079999	0	0.57	5.43	1	397.260637361003	397.494974879002	"17"	38096.759886237	38093.778987839	1.5	0.1
0.01	1	0.134617766998417	1	71	NA	426.866360079999	0	0.57	5.43	1	397.728012780004	397.862630547002	"17"	38096.759886237	38093.778987839	1.5	0.1
0.01	1	0.175031972998113	1	71	NA	426.866360079999	0	0.57	5.43	1	398.095328481002	398.270360454	"17"	38096.759886237	38093.778987839	1.5	0.1
0.01	1	0.102148223006225	1	71	NA	426.866360079999	0	0.57	5.43	1	398.495957380997	398.598105604004	"17"	38096.759886237	38093.778987839	1.5	0.1
0.01	1	0.113146287003474	1	71	NA	426.866360079999	0	0.57	5.43	1	398.830053951999	398.943200239002	"17"	38096.759886237	38093.778987839	1.5	0.1
0.01	1	0.147557162999874	1	71	NA	426.866360079999	0	0.57	5.43	1	399.18054976	399.328106923	"17"	38096.759886237	38093.778987839	1.5	0.1
0.01	1	0.12954211399483	1	71	NA	426.866360079999	0	0.57	5.43	1	399.564462357004	399.694004470999	"17"	38096.759886237	38093.778987839	1.5	0.1
0.01	1	0.11664825600019	1	71	NA	426.866360079999	0	0.57	5.43	1	399.915018321	400.031666577001	"17"	38096.759886237	38093.778987839	1.5	0.1
0.01	1	0.0941203319962369	1	71	NA	426.866360079999	0	0.57	5.43	1	400.265678032003	400.359798363999	"17"	38096.759886237	38093.778987839	1.5	0.1
0.01	1	0.280099080999207	1	71	NA	426.866360079999	0	0.57	5.43	1	400.582793898	400.862892978999	"17"	38096.759886237	38093.778987839	1.5	0.1
0.01	1	0.147416309999244	1	71	NA	426.866360079999	0	0.57	5.43	1	401.100357329	401.247773638999	"17"	38096.759886237	38093.778987839	1.5	0.1
0.01	1	0.147214520999114	1	71	NA	426.866360079999	0	0.57	5.43	1	401.484520635	401.631735155999	"17"	38096.759886237	38093.778987839	1.5	0.1
0.01	1	0.0982632209997973	1	71	NA	426.866360079999	0	0.57	5.43	1	401.868307367004	401.966570588003	"17"	38096.759886237	38093.778987839	1.5	0.1
0.01	1	0.197229305995279	1	71	NA	426.866360079999	0	0.57	5.43	1	402.202242908003	402.399472213998	"17"	38096.759886237	38093.778987839	1.5	0.1
0.01	1	0.210210395998729	1	71	NA	426.866360079999	0	0.57	5.43	1	402.636285742003	402.846496138001	"17"	38096.759886237	38093.778987839	1.5	0.1
0.01	1	0.184548402001383	1	71	NA	426.866360079999	0	0.57	5.43	1	403.070350248003	403.254898650004	"17"	38096.759886237	38093.778987839	1.5	0.1
0.01	1	0.112563583003066	1	71	NA	426.866360079999	0	0.57	5.43	1	403.487851853999	403.600415437002	"17"	38096.759886237	38093.778987839	1.5	0.1
0.01	1	0.0576949589958531	1	71	NA	426.866360079999	0	0.57	5.43	1	403.838312318003	403.896007276999	"17"	38096.759886237	38093.778987839	1.5	0.1
0.01	1	0.0940387349983212	1	71	NA	426.866360079999	0	0.57	5.43	1	404.122124571004	404.216163306002	"17"	38096.759886237	38093.778987839	1.5	0.1
0.01	1	0.352824806999706	1	71	NA	426.866360079999	0	0.57	5.43	1	404.439393874003	404.792218681003	"17"	38096.759886237	38093.778987839	1.5	0.1
0.01	1	0.135693838004954	1	71	NA	426.866360079999	0	0.57	5.43	1	405.023599241998	405.159293080003	"17"	38096.759886237	38093.778987839	1.5	0.1
0.01	1	0.161113606998697	1	71	NA	426.866360079999	0	0.57	5.43	1	405.390890888004	405.552004495003	"17"	38096.759886237	38093.778987839	1.5	0.1
0.01	1	0.135521970005357	1	71	NA	426.866360079999	0	0.57	5.43	1	405.774981276998	405.910503247003	"17"	38096.759886237	38093.778987839	1.5	0.1
0.01	1	0.160171055998944	1	71	NA	426.866360079999	0	0.57	5.43	1	406.142161643002	406.302332699001	"17"	38096.759886237	38093.778987839	1.5	0.1
0.01	1	0.2961523710037	1	71	NA	426.866360079999	0	0.57	5.43	1	406.526193035999	406.822345407003	"17"	38096.759886237	38093.778987839	1.5	0.1
0.01	1	0.132170684999437	1	71	NA	426.866360079999	0	0.57	5.43	1	407.060364392004	407.192535077003	"17"	38096.759886237	38093.778987839	1.5	0.1
0.01	1	0.091841828005272	1	71	NA	426.866360079999	0	0.57	5.43	1	407.427742378997	407.519584207002	"17"	38096.759886237	38093.778987839	1.5	0.1
0.01	1	0.103296804998536	1	71	NA	426.866360079999	0	0.57	5.43	1	407.744953514004	407.848250319003	"17"	38096.759886237	38093.778987839	1.5	0.1
0.01	1	0.0799392260014429	1	71	NA	426.866360079999	0	0.57	5.43	1	408.078816043999	408.15875527	"17"	38096.759886237	38093.778987839	1.5	0.1
0.01	1	0.380680419999408	1	71	NA	426.866360079999	0	0.57	5.43	1	408.396074406999	408.776754826999	"17"	38096.759886237	38093.778987839	1.5	0.1
0.01	1	0.0724426259985194	1	71	NA	426.866360079999	0	0.57	5.43	1	409.013653291004	409.086095917002	"17"	38096.759886237	38093.778987839	1.5	0.1
0.01	1	0.123999365001509	1	71	NA	426.866360079999	0	0.57	5.43	1	409.31418275	409.438182115002	"17"	38096.759886237	38093.778987839	1.5	0.1
0.01	1	0.13468256899796	1	71	NA	426.866360079999	0	0.57	5.43	1	409.664825849999	409.799508418997	"17"	38096.759886237	38093.778987839	1.5	0.1
0.01	1	0.214763620999292	1	71	NA	426.866360079999	0	0.57	5.43	1	410.032109116	410.246872737	"17"	38096.759886237	38093.778987839	1.5	0.1
0.01	1	0.316297519006184	1	71	NA	426.866360079999	0	0.57	5.43	1	410.482881887998	410.799179407004	"17"	38096.759886237	38093.778987839	1.5	0.1
0.01	1	0.0778867150002043	1	71	NA	426.866360079999	0	0.57	5.43	1	411.033836446004	411.111723161004	"17"	38096.759886237	38093.778987839	1.5	0.1
0.01	1	0.193305708002299	1	71	NA	426.866360079999	0	0.57	5.43	1	411.334271943997	411.527577651999	"17"	38096.759886237	38093.778987839	1.5	0.1
0.01	1	0.143043354997644	1	71	NA	426.866360079999	0	0.57	5.43	1	411.751664207004	411.894707562002	"17"	38096.759886237	38093.778987839	1.5	0.1
0.01	1	0.480870822000725	1	71	NA	426.866360079999	0	0.57	5.43	1	412.135546687001	412.616417509002	"17"	38096.759886237	38093.778987839	1.5	0.1
0.01	1	0.920678894995945	1	71	NA	426.866360079999	0	0.57	5.43	1	412.853460124003	413.774139018999	"17"	38096.759886237	38093.778987839	1.5	0.1
0.01	1	0.290115584000887	1	71	NA	426.866360079999	0	0.57	5.43	1	414.005412817998	414.295528401999	"17"	38096.759886237	38093.778987839	1.5	0.1
0.01	1	0.275146906002192	1	71	NA	426.866360079999	0	0.57	5.43	1	414.523061052998	414.798207959	"17"	38096.759886237	38093.778987839	1.5	0.1
0.01	1	0.306319003000681	1	71	NA	426.866360079999	0	0.57	5.43	1	415.023823087999	415.330142090999	"17"	38096.759886237	38093.778987839	1.5	0.1
0.01	1	0.249044251999294	1	71	NA	426.866360079999	0	0.57	5.43	1	415.558096890003	415.807141142002	"17"	38096.759886237	38093.778987839	1.5	0.1
0.01	1	0.324804464995395	1	71	NA	426.866360079999	0	0.57	5.43	1	416.042187539002	416.366992003997	"17"	38096.759886237	38093.778987839	1.5	0.1
0.01	1	0.230634886996995	1	71	NA	426.866360079999	0	0.57	5.43	1	416.593183969002	416.823818855999	"17"	38096.759886237	38093.778987839	1.5	0.1
0.01	1	0.122770877998846	1	71	NA	426.866360079999	0	0.57	5.43	1	417.060573804003	417.183344682002	"17"	38096.759886237	38093.778987839	1.5	0.1
0.01	1	0.251166110996564	1	71	NA	426.866360079999	0	0.57	5.43	1	417.411136629002	417.662302739998	"17"	38096.759886237	38093.778987839	1.5	0.1
0.01	1	0.255224708998867	1	71	NA	426.866360079999	0	0.57	5.43	1	417.895423114998	418.150647823997	"17"	38096.759886237	38093.778987839	1.5	0.1
0.01	1	1.30033040000126	1	71	NA	426.866360079999	0	0.57	5.43	1	418.379493029002	419.679823429004	"17"	38096.759886237	38093.778987839	1.5	0.1
0.01	1	0.389539146999596	1	71	NA	426.866360079999	0	0.57	5.43	1	419.915462042998	420.305001189998	"17"	38096.759886237	38093.778987839	1.5	0.1
0.01	1	0.371657565003261	1	71	NA	426.866360079999	0	0.57	5.43	1	420.533050439	420.904708004004	"17"	38096.759886237	38093.778987839	1.5	0.1
0.01	1	0.321339741996781	1	71	NA	426.866360079999	0	0.57	5.43	1	421.134110568004	421.455450310001	"17"	38096.759886237	38093.778987839	1.5	0.1
0.01	1	0.675166879998869	1	71	NA	426.866360079999	0	0.57	5.43	1	421.68503819	422.360205069999	"17"	38096.759886237	38093.778987839	1.5	0.1
0.01	1	0.603685463996953	1	71	NA	426.866360079999	0	0.57	5.43	1	422.586494702002	423.190180165999	"17"	38096.759886237	38093.778987839	1.5	0.1
0.01	1	2.29087852399971	1	71	NA	426.866360079999	0	0.57	5.43	1	423.421251380998	425.712129904998	"17"	38096.759886237	38093.778987839	1.5	0.1
0.01	1	0.922465600000578	2	71	NA	426.866360079999	0	0.57	5.43	1	425.942151155999	426.864616756	"17"	38096.759886237	38093.778987839	1.5	0.1
0.01	1	0.573085399002593	1	96	NA	460.529070447003	0	0.73	6.16	1	428.913869969001	429.486955368004	"18"	38096.759886237	38093.778987839	1.5	0.1
0.01	1	0.244397636997746	1	96	NA	460.529070447003	0	0.73	6.16	1	429.715190884002	429.959588521	"18"	38096.759886237	38093.778987839	1.5	0.1
0.01	1	0.102644181999494	1	96	NA	460.529070447003	0	0.73	6.16	1	430.199362111998	430.302006293998	"18"	38096.759886237	38093.778987839	1.5	0.1
0.01	1	0.0818740620015888	1	96	NA	460.529070447003	0	0.73	6.16	1	430.533245904	430.615119966002	"18"	38096.759886237	38093.778987839	1.5	0.1
0.01	1	0.0605262169992784	1	96	NA	460.529070447003	0	0.73	6.16	1	430.850445786004	430.910972003003	"18"	38096.759886237	38093.778987839	1.5	0.1
0.01	1	0.233723066994571	1	96	NA	460.529070447003	0	0.73	6.16	1	431.134195887003	431.367918953998	"18"	38096.759886237	38093.778987839	1.5	0.1
0.01	1	0.0779255050001666	1	96	NA	460.529070447003	0	0.73	6.16	1	431.601642257003	431.679567762003	"18"	38096.759886237	38093.778987839	1.5	0.1
0.01	1	0.0516390010016039	1	96	NA	460.529070447003	0	0.73	6.16	1	431.902237187001	431.953876188003	"18"	38096.759886237	38093.778987839	1.5	0.1
0.01	1	0.084077861996775	1	96	NA	460.529070447003	0	0.73	6.16	1	432.186110052004	432.270187914	"18"	38096.759886237	38093.778987839	1.5	0.1
0.01	1	0.0968257459971937	1	96	NA	460.529070447003	0	0.73	6.16	1	432.503178115003	432.600003861	"18"	38096.759886237	38093.778987839	1.5	0.1
0.01	1	0.274654900000314	1	96	NA	460.529070447003	0	0.73	6.16	1	432.837141996002	433.111796896002	"18"	38096.759886237	38093.778987839	1.5	0.1
0.01	1	0.068616579999798	1	96	NA	460.529070447003	0	0.73	6.16	1	433.337917855999	433.406534435999	"18"	38096.759886237	38093.778987839	1.5	0.1
0.01	1	0.0723652319938992	1	96	NA	460.529070447003	0	0.73	6.16	1	433.638471668004	433.710836899998	"18"	38096.759886237	38093.778987839	1.5	0.1
0.01	1	0.0278567720015417	1	96	NA	460.529070447003	0	0.73	6.16	1	433.939030866997	433.966887638999	"18"	38096.759886237	38093.778987839	1.5	0.1
0.01	1	0.115091682993807	1	96	NA	460.529070447003	0	0.73	6.16	1	434.189427062003	434.304518744997	"18"	38096.759886237	38093.778987839	1.5	0.1
0.01	1	0.179216771997744	1	96	NA	460.529070447003	0	0.73	6.16	1	434.539984859002	434.719201631	"18"	38096.759886237	38093.778987839	1.5	0.1
0.01	1	0.162270184999215	1	96	NA	460.529070447003	0	0.73	6.16	1	434.957287272002	435.119557457001	"18"	38096.759886237	38093.778987839	1.5	0.1
0.01	1	0.0970814969987259	1	96	NA	460.529070447003	0	0.73	6.16	1	435.341254387	435.438335883999	"18"	38096.759886237	38093.778987839	1.5	0.1
0.01	1	0.0362820669979556	1	96	NA	460.529070447003	0	0.73	6.16	1	435.675145815003	435.711427882001	"18"	38096.759886237	38093.778987839	1.5	0.1
0.01	1	0.223734933999367	1	96	NA	460.529070447003	0	0.73	6.16	1	435.942291200998	436.166026134997	"18"	38096.759886237	38093.778987839	1.5	0.1
0.01	1	0.253094631996646	1	96	NA	460.529070447003	0	0.73	6.16	1	436.393204790002	436.646299421998	"18"	38096.759886237	38093.778987839	1.5	0.1
0.01	1	0.0819510569999693	1	96	NA	460.529070447003	0	0.73	6.16	1	436.877193845998	436.959144902998	"18"	38096.759886237	38093.778987839	1.5	0.1
0.01	1	0.0679867579965503	1	96	NA	460.529070447003	0	0.73	6.16	1	437.194442726002	437.262429483999	"18"	38096.759886237	38093.778987839	1.5	0.1
0.01	1	0.00824599999759812	1	96	NA	460.529070447003	0	0.73	6.16	1	437.495021759001	437.503267758999	"18"	38096.759886237	38093.778987839	1.5	0.1
0.01	1	0.0635671359996195	1	96	NA	460.529070447003	0	0.73	6.16	1	437.728737006	437.792304142	"18"	38096.759886237	38093.778987839	1.5	0.1
0.01	1	0.249921270005871	1	96	NA	460.529070447003	0	0.73	6.16	1	438.029201596997	438.279122867003	"18"	38096.759886237	38093.778987839	1.5	0.1
0.01	1	0.0147324899953674	1	96	NA	460.529070447003	0	0.73	6.16	1	438.513235231003	438.527967720998	"18"	38096.759886237	38093.778987839	1.5	0.1
0.01	1	0.0669950890005566	1	96	NA	460.529070447003	0	0.73	6.16	1	438.763690927	438.830686016001	"18"	38096.759886237	38093.778987839	1.5	0.1
0.01	1	0.0226048030017409	1	96	NA	460.529070447003	0	0.73	6.16	1	439.064233208002	439.086838011004	"18"	38096.759886237	38093.778987839	1.5	0.1
0.01	1	0.0679867190046934	1	96	NA	460.529070447003	0	0.73	6.16	1	439.314687676997	439.382674396002	"18"	38096.759886237	38093.778987839	1.5	0.1
0.01	1	0.327492050004366	1	96	NA	460.529070447003	0	0.73	6.16	1	439.615156729	439.942648779004	"18"	38096.759886237	38093.778987839	1.5	0.1
0.01	1	0.0252255759987747	1	96	NA	460.529070447003	0	0.73	6.16	1	440.182784361001	440.208009937	"18"	38096.759886237	38093.778987839	1.5	0.1
0.01	1	0.0611816750024445	1	96	NA	460.529070447003	0	0.73	6.16	1	440.433243216001	440.494424891003	"18"	38096.759886237	38093.778987839	1.5	0.1
0.01	1	0.0102299310019589	1	96	NA	460.529070447003	0	0.73	6.16	1	440.716943246	440.727173177002	"18"	38096.759886237	38093.778987839	1.5	0.1
0.01	1	0.0557338379949215	1	96	NA	460.529070447003	0	0.73	6.16	1	440.950832950002	441.006566787997	"18"	38096.759886237	38093.778987839	1.5	0.1
0.01	1	0.291798972000834	1	96	NA	460.529070447003	0	0.73	6.16	1	441.234526984001	441.526325956002	"18"	38096.759886237	38093.778987839	1.5	0.1
0.01	1	0.104406200996891	1	96	NA	460.529070447003	0	0.73	6.16	1	441.752148334002	441.856554534999	"18"	38096.759886237	38093.778987839	1.5	0.1
0.01	1	0.00229523700545542	1	96	NA	460.529070447003	0	0.73	6.16	1	442.086032234998	442.088327472004	"18"	38096.759886237	38093.778987839	1.5	0.1
0.01	1	0.0313496349990601	1	96	NA	460.529070447003	0	0.73	6.16	1	442.319717781	442.351067415999	"18"	38096.759886237	38093.778987839	1.5	0.1
0.01	1	0.0357034780026879	1	96	NA	460.529070447003	0	0.73	6.16	1	442.586839643998	442.622543122001	"18"	38096.759886237	38093.778987839	1.5	0.1
0.01	1	0.344873597001424	1	96	NA	460.529070447003	0	0.73	6.16	1	442.853884700999	443.198758298	"18"	38096.759886237	38093.778987839	1.5	0.1
0.01	1	0.0760746060041129	1	96	NA	460.529070447003	0	0.73	6.16	1	443.438195415998	443.514270022002	"18"	38096.759886237	38093.778987839	1.5	0.1
0.01	1	0.00610956900345627	1	96	NA	460.529070447003	0	0.73	6.16	1	443.738760706998	443.744870276001	"18"	38096.759886237	38093.778987839	1.5	0.1
0.01	1	0.0508876370004145	1	96	NA	460.529070447003	0	0.73	6.16	1	443.972526076999	444.023413714	"18"	38096.759886237	38093.778987839	1.5	0.1
0.01	1	0.0464709279985982	1	96	NA	460.529070447003	0	0.73	6.16	1	444.256301118003	444.302772046001	"18"	38096.759886237	38093.778987839	1.5	0.1
0.01	1	0.435777261001931	1	96	NA	460.529070447003	0	0.73	6.16	1	444.540160550998	444.975937812	"18"	38096.759886237	38093.778987839	1.5	0.1
0.01	1	0.114186411999981	1	96	NA	460.529070447003	0	0.73	6.16	1	445.207859545	445.322045957	"18"	38096.759886237	38093.778987839	1.5	0.1
0.01	1	0.209997081998154	1	96	NA	460.529070447003	0	0.73	6.16	1	445.558489363	445.768486444998	"18"	38096.759886237	38093.778987839	1.5	0.1
0.01	1	0.175417505000951	1	96	NA	460.529070447003	0	0.73	6.16	1	445.992504016998	446.167921521999	"18"	38096.759886237	38093.778987839	1.5	0.1
0.01	1	0.079124932999548	1	96	NA	460.529070447003	0	0.73	6.16	1	446.393274173999	446.472399106999	"18"	38096.759886237	38093.778987839	1.5	0.1
0.01	1	0.313476223003818	1	96	NA	460.529070447003	0	0.73	6.16	1	446.710499228	447.023975451004	"18"	38096.759886237	38093.778987839	1.5	0.1
0.01	1	0.0923227430030238	1	96	NA	460.529070447003	0	0.73	6.16	1	447.261370166001	447.353692909004	"18"	38096.759886237	38093.778987839	1.5	0.1
0.01	1	0.149146563999238	1	96	NA	460.529070447003	0	0.73	6.16	1	447.578558337002	447.727704901001	"18"	38096.759886237	38093.778987839	1.5	0.1
0.01	1	0.156677161001426	1	96	NA	460.529070447003	0	0.73	6.16	1	447.962510024998	448.119187185999	"18"	38096.759886237	38093.778987839	1.5	0.1
0.01	1	0.268286512000486	1	96	NA	460.529070447003	0	0.73	6.16	1	448.346521678002	448.614808190003	"18"	38096.759886237	38093.778987839	1.5	0.1
