"payoff.level"	"balloon"	"rt"	"resp"	"explode.trial"	"explode.time"	"finish.time"	"exploded"	"trial.total"	"cumulative.total"	"finished"	"trial.start"	"trial.end"	"trial.num"	"secs"	"start.time"	"iti"	"isi"
0.01	1	1.60923622400151	1	64	61.5334212529997	NA	1	0	0	1	0.0118961119951564	1.62113233599666	"1"	34802.923809965	34716.901214509	1.5	0.1
0.01	1	0.626131168995926	1	64	61.5334212529997	NA	1	0	0	1	2.13139908599987	2.7575302549958	"1"	34802.923809965	34716.901214509	1.5	0.1
0.01	1	0.885242010997899	1	64	61.5334212529997	NA	1	0	0	1	2.98292029299773	3.86816230399563	"1"	34802.923809965	34716.901214509	1.5	0.1
0.01	1	0.999959505999868	1	64	61.5334212529997	NA	1	0	0	1	4.10142023799563	5.10137974399549	"1"	34802.923809965	34716.901214509	1.5	0.1
0.01	1	1.08332292900013	1	64	61.5334212529997	NA	1	0	0	1	5.33683317199757	6.4201561009977	"1"	34802.923809965	34716.901214509	1.5	0.1
0.01	1	0.764780937999603	1	64	61.5334212529997	NA	1	0	0	1	6.65571653799998	7.42049747599958	"1"	34802.923809965	34716.901214509	1.5	0.1
0.01	1	0.972213659995759	1	64	61.5334212529997	NA	1	0	0	1	7.6574355729972	8.62964923299296	"1"	34802.923809965	34716.901214509	1.5	0.1
0.01	1	1.95325834300456	1	64	61.5334212529997	NA	1	0	0	1	8.85945521799295	10.8127135609975	"1"	34802.923809965	34716.901214509	1.5	0.1
0.01	1	0.926990754000144	1	64	61.5334212529997	NA	1	0	0	1	11.0465022639983	11.9734930179984	"1"	34802.923809965	34716.901214509	1.5	0.1
0.01	1	1.46954439299589	1	64	61.5334212529997	NA	1	0	0	1	12.2151473429985	13.6846917359944	"1"	34802.923809965	34716.901214509	1.5	0.1
0.01	1	1.33397482999862	1	64	61.5334212529997	NA	1	0	0	1	13.9180447569961	15.2520195869947	"1"	34802.923809965	34716.901214509	1.5	0.1
0.01	1	1.20592996200139	1	64	61.5334212529997	NA	1	0	0	1	15.4872692779973	16.6931992399986	"1"	34802.923809965	34716.901214509	1.5	0.1
0.01	1	1.16334646399628	1	64	61.5334212529997	NA	1	0	0	1	16.9229443099975	18.0862907739938	"1"	34802.923809965	34716.901214509	1.5	0.1
0.01	1	0.999886061996222	1	64	61.5334212529997	NA	1	0	0	1	18.3085325639986	19.3084186259948	"1"	34802.923809965	34716.901214509	1.5	0.1
0.01	1	1.02041504099907	1	64	61.5334212529997	NA	1	0	0	1	19.5440793079979	20.564494348997	"1"	34802.923809965	34716.901214509	1.5	0.1
0.01	1	0.928244541995809	1	64	61.5334212529997	NA	1	0	0	1	20.7960996019974	21.7243441439932	"1"	34802.923809965	34716.901214509	1.5	0.1
0.01	1	0.911585117995855	1	64	61.5334212529997	NA	1	0	0	1	21.964692182999	22.8762773009948	"1"	34802.923809965	34716.901214509	1.5	0.1
0.01	1	0.657134946995939	1	64	61.5334212529997	NA	1	0	0	1	23.1000206329991	23.757155579995	"1"	34802.923809965	34716.901214509	1.5	0.1
0.01	1	0.667547270000796	1	64	61.5334212529997	NA	1	0	0	1	23.9847936529986	24.6523409229994	"1"	34802.923809965	34716.901214509	1.5	0.1
0.01	1	0.526222960994346	1	64	61.5334212529997	NA	1	0	0	1	24.8863070549996	25.412530015994	"1"	34802.923809965	34716.901214509	1.5	0.1
0.01	1	0.414910636995046	1	64	61.5334212529997	NA	1	0	0	1	25.6376325829988	26.0525432199938	"1"	34802.923809965	34716.901214509	1.5	0.1
0.01	1	0.828262267001264	1	64	61.5334212529997	NA	1	0	0	1	26.2886728019948	27.1169350689961	"1"	34802.923809965	34716.901214509	1.5	0.1
0.01	1	1.27212780799891	1	64	61.5334212529997	NA	1	0	0	1	27.340599117997	28.612726925996	"1"	34802.923809965	34716.901214509	1.5	0.1
0.01	1	1.13752898199891	1	64	61.5334212529997	NA	1	0	0	1	28.8429963759991	29.980525357998	"1"	34802.923809965	34716.901214509	1.5	0.1
0.01	1	0.833351082997979	1	64	61.5334212529997	NA	1	0	0	1	30.2119633319962	31.0453144149942	"1"	34802.923809965	34716.901214509	1.5	0.1
0.01	1	0.587548634997802	1	64	61.5334212529997	NA	1	0	0	1	31.2804409780001	31.8679896129979	"1"	34802.923809965	34716.901214509	1.5	0.1
0.01	1	0.506636792997597	1	64	61.5334212529997	NA	1	0	0	1	32.0986397199958	32.6052765129934	"1"	34802.923809965	34716.901214509	1.5	0.1
0.01	1	0.403945755999302	1	64	61.5334212529997	NA	1	0	0	1	32.8332428579961	33.2371886139954	"1"	34802.923809965	34716.901214509	1.5	0.1
0.01	1	0.330238565999025	1	64	61.5334212529997	NA	1	0	0	1	33.4675464559987	33.7977850219977	"1"	34802.923809965	34716.901214509	1.5	0.1
0.01	1	0.305577309001819	1	64	61.5334212529997	NA	1	0	0	1	34.0350835209974	34.3406608299993	"1"	34802.923809965	34716.901214509	1.5	0.1
0.01	1	1.02773249700113	1	64	61.5334212529997	NA	1	0	0	1	34.5693225379946	35.5970550349957	"1"	34802.923809965	34716.901214509	1.5	0.1
0.01	1	0.991699997000978	1	64	61.5334212529997	NA	1	0	0	1	35.8216024799985	36.8133024769995	"1"	34802.923809965	34716.901214509	1.5	0.1
0.01	1	0.924051790003432	1	64	61.5334212529997	NA	1	0	0	1	37.0401146679942	37.9641664579976	"1"	34802.923809965	34716.901214509	1.5	0.1
0.01	1	1.30823087400495	1	64	61.5334212529997	NA	1	0	0	1	38.1921274669949	39.5003583409998	"1"	34802.923809965	34716.901214509	1.5	0.1
0.01	1	1.05975242899876	1	64	61.5334212529997	NA	1	0	0	1	39.7282114629998	40.7879638919985	"1"	34802.923809965	34716.901214509	1.5	0.1
0.01	1	1.28764750100527	1	64	61.5334212529997	NA	1	0	0	1	41.0135757229946	42.3012232239998	"1"	34802.923809965	34716.901214509	1.5	0.1
0.01	1	0.08056673000101	1	64	61.5334212529997	NA	1	0	0	1	42.5327185059941	42.6132852359951	"1"	34802.923809965	34716.901214509	1.5	0.1
0.01	1	0.930935150005098	1	64	61.5334212529997	NA	1	0	0	1	42.8499050779938	43.7808402279989	"1"	34802.923809965	34716.901214509	1.5	0.1
0.01	1	0.609640422000666	1	64	61.5334212529997	NA	1	0	0	1	44.0184890129967	44.6281294349974	"1"	34802.923809965	34716.901214509	1.5	0.1
0.01	1	0.655605257998104	1	64	61.5334212529997	NA	1	0	0	1	44.8533240999968	45.5089293579949	"1"	34802.923809965	34716.901214509	1.5	0.1
0.01	1	0.067723186002695	1	64	61.5334212529997	NA	1	0	0	1	45.7381046079972	45.8058277939999	"1"	34802.923809965	34716.901214509	1.5	0.1
0.01	1	0.414909131002787	1	64	61.5334212529997	NA	1	0	0	1	46.0386539759929	46.4535631069957	"1"	34802.923809965	34716.901214509	1.5	0.1
0.01	1	0.0592330040017259	1	64	61.5334212529997	NA	1	0	0	1	46.6897773519959	46.7490103559976	"1"	34802.923809965	34716.901214509	1.5	0.1
0.01	1	0.863082524003403	1	64	61.5334212529997	NA	1	0	0	1	46.9735222519957	47.8366047759991	"1"	34802.923809965	34716.901214509	1.5	0.1
0.01	1	0.0824876939950627	1	64	61.5334212529997	NA	1	0	0	1	48.0587369729983	48.1412246669934	"1"	34802.923809965	34716.901214509	1.5	0.1
0.01	1	0.357874524997897	1	64	61.5334212529997	NA	1	0	0	1	48.3759130569961	48.733787581994	"1"	34802.923809965	34716.901214509	1.5	0.1
0.01	1	0.0614429950001067	1	64	61.5334212529997	NA	1	0	0	1	48.960210843994	49.0216538389941	"1"	34802.923809965	34716.901214509	1.5	0.1
0.01	1	0.343717739997373	1	64	61.5334212529997	NA	1	0	0	1	49.2607056039997	49.604423343997	"1"	34802.923809965	34716.901214509	1.5	0.1
0.01	1	0.0892941099955351	1	64	61.5334212529997	NA	1	0	0	1	49.8283622649978	49.9176563749934	"1"	34802.923809965	34716.901214509	1.5	0.1
0.01	1	0.0599751039990224	1	64	61.5334212529997	NA	1	0	0	1	50.1456712829968	50.2056463869958	"1"	34802.923809965	34716.901214509	1.5	0.1
0.01	1	0.566829215000325	1	64	61.5334212529997	NA	1	0	0	1	50.4293382999967	50.9961675149971	"1"	34802.923809965	34716.901214509	1.5	0.1
0.01	1	0.0778612029971555	1	64	61.5334212529997	NA	1	0	0	1	51.2306335329995	51.3084947359966	"1"	34802.923809965	34716.901214509	1.5	0.1
0.01	1	0.0811113930030842	1	64	61.5334212529997	NA	1	0	0	1	51.5313150219954	51.6124264149985	"1"	34802.923809965	34716.901214509	1.5	0.1
0.01	1	0.0357765459993971	1	64	61.5334212529997	NA	1	0	0	1	51.8484141659937	51.8841907119931	"1"	34802.923809965	34716.901214509	1.5	0.1
0.01	1	0.48986685500131	1	64	61.5334212529997	NA	1	0	0	1	52.1154685769943	52.6053354319956	"1"	34802.923809965	34716.901214509	1.5	0.1
0.01	1	0.0834739929996431	1	64	61.5334212529997	NA	1	0	0	1	52.8334597109933	52.916933703993	"1"	34802.923809965	34716.901214509	1.5	0.1
0.01	1	0.0790120320016285	1	64	61.5334212529997	NA	1	0	0	1	53.150681647996	53.2296936799976	"1"	34802.923809965	34716.901214509	1.5	0.1
0.01	1	0.00217880700074602	1	64	61.5334212529997	NA	1	0	0	1	53.467910692998	53.4700894999987	"1"	34802.923809965	34716.901214509	1.5	0.1
0.01	1	0.912184936001722	1	64	61.5334212529997	NA	1	0	0	1	53.7015273199941	54.6137122559958	"1"	34802.923809965	34716.901214509	1.5	0.1
0.01	1	1.31972309300181	1	64	61.5334212529997	NA	1	0	0	1	54.8367001499937	56.1564232429955	"1"	34802.923809965	34716.901214509	1.5	0.1
0.01	1	0.766998765997414	1	64	61.5334212529997	NA	1	0	0	1	56.3893196439967	57.1563184099941	"1"	34802.923809965	34716.901214509	1.5	0.1
0.01	1	3.07883853199746	1	64	61.5334212529997	NA	1	0	0	1	57.3909888089984	60.4698273409958	"1"	34802.923809965	34716.901214509	1.5	0.1
0.01	1	0.0920959329960169	1	64	61.5334212529997	NA	1	0	0	1	60.6966182830001	60.7887142159962	"1"	34802.923809965	34716.901214509	1.5	0.1
0.01	1	0.406232148998242	1	64	61.5334212529997	NA	1	0	0	1	61.0137917829998	61.420023931998	"1"	34802.923809965	34716.901214509	1.5	0.1
0.01	1	0.804957417996775	1	102	NA	86.6793896599993	0	0.52	0.52	1	63.5848054169983	64.3897628349951	"2"	34802.923809965	34716.901214509	1.5	0.1
0.01	1	0.0734235720010474	1	102	NA	86.6793896599993	0	0.52	0.52	1	64.6200213279953	64.6934448999964	"2"	34802.923809965	34716.901214509	1.5	0.1
0.01	1	0.0453411669950583	1	102	NA	86.6793896599993	0	0.52	0.52	1	64.9204083229997	64.9657494899948	"2"	34802.923809965	34716.901214509	1.5	0.1
0.01	1	0.0487970239992137	1	102	NA	86.6793896599993	0	0.52	0.52	1	65.1876114879997	65.2364085119989	"2"	34802.923809965	34716.901214509	1.5	0.1
0.01	1	0.0623913559975335	1	102	NA	86.6793896599993	0	0.52	0.52	1	65.4713198919999	65.5337112479974	"2"	34802.923809965	34716.901214509	1.5	0.1
0.01	1	0.0327852129994426	1	102	NA	86.6793896599993	0	0.52	0.52	1	65.7717682879957	65.8045535009951	"2"	34802.923809965	34716.901214509	1.5	0.1
0.01	1	0.0384734670005855	1	102	NA	86.6793896599993	0	0.52	0.52	1	66.0389553859932	66.0774288529938	"2"	34802.923809965	34716.901214509	1.5	0.1
0.01	1	0.0185521439998411	1	102	NA	86.6793896599993	0	0.52	0.52	1	66.3060275159951	66.3245796599949	"2"	34802.923809965	34716.901214509	1.5	0.1
0.01	1	0.00207014299667208	1	102	NA	86.6793896599993	0	0.52	0.52	1	66.5565085819981	66.5585787249947	"2"	34802.923809965	34716.901214509	1.5	0.1
0.01	1	0.00216374100273242	1	102	NA	86.6793896599993	0	0.52	0.52	1	66.7902211839973	66.7923849250001	"2"	34802.923809965	34716.901214509	1.5	0.1
0.01	1	0.00221937000605976	1	102	NA	86.6793896599993	0	0.52	0.52	1	67.023988254994	67.0262076250001	"2"	34802.923809965	34716.901214509	1.5	0.1
0.01	1	0.0502251649959362	1	102	NA	86.6793896599993	0	0.52	0.52	1	67.257687006997	67.3079121719929	"2"	34802.923809965	34716.901214509	1.5	0.1
0.01	1	0.0304863310011569	1	102	NA	86.6793896599993	0	0.52	0.52	1	67.5415044659967	67.5719907969979	"2"	34802.923809965	34716.901214509	1.5	0.1
0.01	1	0.068802139001491	1	102	NA	86.6793896599993	0	0.52	0.52	1	67.8086481959981	67.8774503349996	"2"	34802.923809965	34716.901214509	1.5	0.1
0.01	1	0.0790440989949275	1	102	NA	86.6793896599993	0	0.52	0.52	1	68.1091069239992	68.1881510229941	"2"	34802.923809965	34716.901214509	1.5	0.1
0.01	1	0.641807162995974	1	102	NA	86.6793896599993	0	0.52	0.52	1	68.4263125099969	69.0681196729929	"2"	34802.923809965	34716.901214509	1.5	0.1
0.01	1	0.00356716200622031	1	102	NA	86.6793896599993	0	0.52	0.52	1	69.2944983879934	69.2980655499996	"2"	34802.923809965	34716.901214509	1.5	0.1
0.01	1	0.01184216200636	1	102	NA	86.6793896599993	0	0.52	0.52	1	69.5282517389933	69.5400939009996	"2"	34802.923809965	34716.901214509	1.5	0.1
0.01	1	0.0517925970052602	1	102	NA	86.6793896599993	0	0.52	0.52	1	69.7619048059933	69.8136974029985	"2"	34802.923809965	34716.901214509	1.5	0.1
0.01	1	0.0559659099963028	1	102	NA	86.6793896599993	0	0.52	0.52	1	70.0456545159977	70.101620425994	"2"	34802.923809965	34716.901214509	1.5	0.1
0.01	1	0.0522737060018699	1	102	NA	86.6793896599993	0	0.52	0.52	1	70.329555145996	70.3818288519979	"2"	34802.923809965	34716.901214509	1.5	0.1
0.01	1	0.535127285998897	1	102	NA	86.6793896599993	0	0.52	0.52	1	70.6132608029948	71.1483880889937	"2"	34802.923809965	34716.901214509	1.5	0.1
0.01	1	0.0564237869984936	1	102	NA	86.6793896599993	0	0.52	0.52	1	71.3812384679986	71.4376622549971	"2"	34802.923809965	34716.901214509	1.5	0.1
0.01	1	0.372882168994693	1	102	NA	86.6793896599993	0	0.52	0.52	1	71.6651147459997	72.0379969149944	"2"	34802.923809965	34716.901214509	1.5	0.1
0.01	1	0.0353244279976934	1	102	NA	86.6793896599993	0	0.52	0.52	1	72.2660894729997	72.3014139009974	"2"	34802.923809965	34716.901214509	1.5	0.1
0.01	1	0.272047598002246	1	102	NA	86.6793896599993	0	0.52	0.52	1	72.5332736459968	72.8053212439991	"2"	34802.923809965	34716.901214509	1.5	0.1
0.01	1	0.050231409004482	1	102	NA	86.6793896599993	0	0.52	0.52	1	73.0340655439941	73.0842969529986	"2"	34802.923809965	34716.901214509	1.5	0.1
0.01	1	0.214812149002682	1	102	NA	86.6793896599993	0	0.52	0.52	1	73.3178407379964	73.5326528869991	"2"	34802.923809965	34716.901214509	1.5	0.1
0.01	1	0.0824359410034958	1	102	NA	86.6793896599993	0	0.52	0.52	1	73.7685843469953	73.8510202879988	"2"	34802.923809965	34716.901214509	1.5	0.1
0.01	1	0.0241811929954565	1	102	NA	86.6793896599993	0	0.52	0.52	1	74.0858079719983	74.1099891649937	"2"	34802.923809965	34716.901214509	1.5	0.1
0.01	1	0.00228853400039952	1	102	NA	86.6793896599993	0	0.52	0.52	1	74.3361885369959	74.3384770709963	"2"	34802.923809965	34716.901214509	1.5	0.1
0.01	1	0.00217605700163404	1	102	NA	86.6793896599993	0	0.52	0.52	1	74.5699969559937	74.5721730129953	"2"	34802.923809965	34716.901214509	1.5	0.1
0.01	1	0.0020333889988251	1	102	NA	86.6793896599993	0	0.52	0.52	1	74.8036408629996	74.8056742519984	"2"	34802.923809965	34716.901214509	1.5	0.1
0.01	1	0.0472493790002773	1	102	NA	86.6793896599993	0	0.52	0.52	1	75.0374094269937	75.084658805994	"2"	34802.923809965	34716.901214509	1.5	0.1
0.01	1	0.0446880370000144	1	102	NA	86.6793896599993	0	0.52	0.52	1	75.321232765993	75.3659208029931	"2"	34802.923809965	34716.901214509	1.5	0.1
0.01	1	0.69673486299871	1	102	NA	86.6793896599993	0	0.52	0.52	1	75.5884283529958	76.2851632159945	"2"	34802.923809965	34716.901214509	1.5	0.1
0.01	1	0.0734163260058267	1	102	NA	86.6793896599993	0	0.52	0.52	1	76.5067099729931	76.5801262989989	"2"	34802.923809965	34716.901214509	1.5	0.1
0.01	1	0.0615672319981968	1	102	NA	86.6793896599993	0	0.52	0.52	1	76.8070105629959	76.8685777949941	"2"	34802.923809965	34716.901214509	1.5	0.1
0.01	1	0.0423953589997836	1	102	NA	86.6793896599993	0	0.52	0.52	1	77.1075697529959	77.1499651119957	"2"	34802.923809965	34716.901214509	1.5	0.1
0.01	1	0.565937874998781	1	102	NA	86.6793896599993	0	0.52	0.52	1	77.3746689079999	77.9406067829987	"2"	34802.923809965	34716.901214509	1.5	0.1
0.01	1	0.0448890059997211	1	102	NA	86.6793896599993	0	0.52	0.52	1	78.1761392039989	78.2210282099986	"2"	34802.923809965	34716.901214509	1.5	0.1
0.01	1	0.370634396000241	1	102	NA	86.6793896599993	0	0.52	0.52	1	78.4431126549971	78.8137470509973	"2"	34802.923809965	34716.901214509	1.5	0.1
0.01	1	0.0733356160053518	1	102	NA	86.6793896599993	0	0.52	0.52	1	79.0442363529946	79.117571969	"2"	34802.923809965	34716.901214509	1.5	0.1
0.01	1	0.40480414799822	1	102	NA	86.6793896599993	0	0.52	0.52	1	79.3446802749968	79.749484422995	"2"	34802.923809965	34716.901214509	1.5	0.1
0.01	1	0.00205877900589257	1	102	NA	86.6793896599993	0	0.52	0.52	1	79.979046427994	79.9811052069999	"2"	34802.923809965	34716.901214509	1.5	0.1
0.01	1	0.831755455998064	1	102	NA	86.6793896599993	0	0.52	0.52	1	80.2127939159982	81.0445493719963	"2"	34802.923809965	34716.901214509	1.5	0.1
0.01	1	0.676612991002912	1	102	NA	86.6793896599993	0	0.52	0.52	1	81.2813917359963	81.9580047269992	"2"	34802.923809965	34716.901214509	1.5	0.1
0.01	1	0.717172477001441	1	102	NA	86.6793896599993	0	0.52	0.52	1	82.1829158689943	82.9000883459958	"2"	34802.923809965	34716.901214509	1.5	0.1
0.01	1	0.231046077999054	1	102	NA	86.6793896599993	0	0.52	0.52	1	83.1344391539969	83.365485231996	"2"	34802.923809965	34716.901214509	1.5	0.1
0.01	1	0.100008884000999	1	102	NA	86.6793896599993	0	0.52	0.52	1	83.601846144993	83.701855028994	"2"	34802.923809965	34716.901214509	1.5	0.1
0.01	1	0.805281605993514	1	102	NA	86.6793896599993	0	0.52	0.52	1	83.93588361	84.7411652159935	"2"	34802.923809965	34716.901214509	1.5	0.1
0.01	1	0.610152347995609	1	102	NA	86.6793896599993	0	0.52	0.52	1	84.9707729799993	85.5809253279949	"2"	34802.923809965	34716.901214509	1.5	0.1
0.01	1	0.872262791002868	2	102	NA	86.6793896599993	0	0.52	0.52	1	85.8055830179946	86.6778458089975	"2"	34802.923809965	34716.901214509	1.5	0.1
0.01	1	1.69332498099538	1	97	NA	115.439218943997	0	0.56	1.08	1	88.72721112	90.4205361009954	"3"	34802.923809965	34716.901214509	1.5	0.1
0.01	1	0.00218226800643606	1	97	NA	115.439218943997	0	0.56	1.08	1	90.6470431219932	90.6492253899996	"3"	34802.923809965	34716.901214509	1.5	0.1
0.01	1	0.0290196850037319	1	97	NA	115.439218943997	0	0.56	1.08	1	90.8807726729938	90.9097923579975	"3"	34802.923809965	34716.901214509	1.5	0.1
0.01	1	0.0491667370006326	1	97	NA	115.439218943997	0	0.56	1.08	1	91.1478715849953	91.1970383219959	"3"	34802.923809965	34716.901214509	1.5	0.1
0.01	1	0.0142281980006373	1	97	NA	115.439218943997	0	0.56	1.08	1	91.4316986649937	91.4459268629944	"3"	34802.923809965	34716.901214509	1.5	0.1
0.01	1	0.0512860779999755	1	97	NA	115.439218943997	0	0.56	1.08	1	91.6820989359985	91.7333850139985	"3"	34802.923809965	34716.901214509	1.5	0.1
0.01	1	0.00213884400000097	1	97	NA	115.439218943997	0	0.56	1.08	1	91.9660065219941	91.9681453659941	"3"	34802.923809965	34716.901214509	1.5	0.1
0.01	1	0.0289845540028182	1	97	NA	115.439218943997	0	0.56	1.08	1	92.1996872039963	92.2286717579991	"3"	34802.923809965	34716.901214509	1.5	0.1
0.01	1	0.00204904699785402	1	97	NA	115.439218943997	0	0.56	1.08	1	92.4667894949962	92.468838541994	"3"	34802.923809965	34716.901214509	1.5	0.1
0.01	1	0.00228538599913009	1	97	NA	115.439218943997	0	0.56	1.08	1	92.7005079659939	92.702793351993	"3"	34802.923809965	34716.901214509	1.5	0.1
0.01	1	0.00300707199494354	1	97	NA	115.439218943997	0	0.56	1.08	1	92.9342623859993	92.9372694579943	"3"	34802.923809965	34716.901214509	1.5	0.1
0.01	1	0.00226945400208933	1	97	NA	115.439218943997	0	0.56	1.08	1	93.1680587729934	93.1703282269955	"3"	34802.923809965	34716.901214509	1.5	0.1
0.01	1	0.00220373200136237	1	97	NA	115.439218943997	0	0.56	1.08	1	93.4016462709988	93.4038500030001	"3"	34802.923809965	34716.901214509	1.5	0.1
0.01	1	0.00219744000060018	1	97	NA	115.439218943997	0	0.56	1.08	1	93.6354869549978	93.6376843949984	"3"	34802.923809965	34716.901214509	1.5	0.1
0.01	1	0.00217402900307206	1	97	NA	115.439218943997	0	0.56	1.08	1	93.8691945179962	93.8713685469993	"3"	34802.923809965	34716.901214509	1.5	0.1
0.01	1	0.0024353860062547	1	97	NA	115.439218943997	0	0.56	1.08	1	94.1028272259937	94.1052626119999	"3"	34802.923809965	34716.901214509	1.5	0.1
0.01	1	0.00219468300201697	1	97	NA	115.439218943997	0	0.56	1.08	1	94.3365392239939	94.3387339069959	"3"	34802.923809965	34716.901214509	1.5	0.1
0.01	1	0.0024980830057757	1	97	NA	115.439218943997	0	0.56	1.08	1	94.5703296949941	94.5728277779999	"3"	34802.923809965	34716.901214509	1.5	0.1
0.01	1	0.00216968600580003	1	97	NA	115.439218943997	0	0.56	1.08	1	94.8041845239932	94.806354209999	"3"	34802.923809965	34716.901214509	1.5	0.1
0.01	1	0.00216201500006719	1	97	NA	115.439218943997	0	0.56	1.08	1	95.0377233859981	95.0398854009982	"3"	34802.923809965	34716.901214509	1.5	0.1
0.01	1	0.509467418996792	1	97	NA	115.439218943997	0	0.56	1.08	1	95.2714515229964	95.7809189419931	"3"	34802.923809965	34716.901214509	1.5	0.1
0.01	1	0.18203419099882	1	97	NA	115.439218943997	0	0.56	1.08	1	96.0061418019977	96.1881759929965	"3"	34802.923809965	34716.901214509	1.5	0.1
0.01	1	0.117102477997832	1	97	NA	115.439218943997	0	0.56	1.08	1	96.4234615759997	96.5405640539975	"3"	34802.923809965	34716.901214509	1.5	0.1
0.01	1	0.00208195800223621	1	97	NA	115.439218943997	0	0.56	1.08	1	96.7740574469935	96.7761394049958	"3"	34802.923809965	34716.901214509	1.5	0.1
0.01	1	0.00210784799855901	1	97	NA	115.439218943997	0	0.56	1.08	1	97.0078055459962	97.0099133939948	"3"	34802.923809965	34716.901214509	1.5	0.1
0.01	1	0.00238370800070697	1	97	NA	115.439218943997	0	0.56	1.08	1	97.2414966339929	97.2438803419936	"3"	34802.923809965	34716.901214509	1.5	0.1
0.01	1	0.0104615700038266	1	97	NA	115.439218943997	0	0.56	1.08	1	97.4752013419929	97.4856629119968	"3"	34802.923809965	34716.901214509	1.5	0.1
0.01	1	0.00219705999916187	1	97	NA	115.439218943997	0	0.56	1.08	1	97.7088878529976	97.7110849129967	"3"	34802.923809965	34716.901214509	1.5	0.1
0.01	1	0.0711227460051305	1	97	NA	115.439218943997	0	0.56	1.08	1	97.9426885379944	98.0138112839995	"3"	34802.923809965	34716.901214509	1.5	0.1
0.01	1	0.00216588000330376	1	97	NA	115.439218943997	0	0.56	1.08	1	98.2432352529941	98.2454011329974	"3"	34802.923809965	34716.901214509	1.5	0.1
0.01	1	0.0876297279974096	1	97	NA	115.439218943997	0	0.56	1.08	1	98.4769644059998	98.5645941339972	"3"	34802.923809965	34716.901214509	1.5	0.1
0.01	1	0.0672869859990897	1	97	NA	115.439218943997	0	0.56	1.08	1	98.7941976980001	98.8614846839992	"3"	34802.923809965	34716.901214509	1.5	0.1
0.01	1	0.0788998249990982	1	97	NA	115.439218943997	0	0.56	1.08	1	99.0945815829982	99.1734814079973	"3"	34802.923809965	34716.901214509	1.5	0.1
0.01	1	0.0750724429963157	1	97	NA	115.439218943997	0	0.56	1.08	1	99.3950571099995	99.4701295529958	"3"	34802.923809965	34716.901214509	1.5	0.1
0.01	1	0.0282319289981388	1	97	NA	115.439218943997	0	0.56	1.08	1	99.6956653219968	99.7238972509949	"3"	34802.923809965	34716.901214509	1.5	0.1
0.01	1	0.0661234819999663	1	97	NA	115.439218943997	0	0.56	1.08	1	99.9627502349977	100.028873716998	"3"	34802.923809965	34716.901214509	1.5	0.1
0.01	1	0.0772022849996574	1	97	NA	115.439218943997	0	0.56	1.08	1	100.263182709998	100.340384994997	"3"	34802.923809965	34716.901214509	1.5	0.1
0.01	1	0.0656506320010521	1	97	NA	115.439218943997	0	0.56	1.08	1	100.563773734997	100.629424366998	"3"	34802.923809965	34716.901214509	1.5	0.1
0.01	1	0.692407196998829	1	97	NA	115.439218943997	0	0.56	1.08	1	100.864314355997	101.556721552995	"3"	34802.923809965	34716.901214509	1.5	0.1
0.01	1	0.0859226200045669	1	97	NA	115.439218943997	0	0.56	1.08	1	101.782403171994	101.868325791998	"3"	34802.923809965	34716.901214509	1.5	0.1
0.01	1	0.0491797329959809	1	97	NA	115.439218943997	0	0.56	1.08	1	102.099714771997	102.148894504993	"3"	34802.923809965	34716.901214509	1.5	0.1
0.01	1	0.477151851002418	1	97	NA	115.439218943997	0	0.56	1.08	1	102.383449375993	102.860601226996	"3"	34802.923809965	34716.901214509	1.5	0.1
0.01	1	0.0894328200010932	1	97	NA	115.439218943997	0	0.56	1.08	1	103.084642552996	103.174075372997	"3"	34802.923809965	34716.901214509	1.5	0.1
0.01	1	0.427343602998008	1	97	NA	115.439218943997	0	0.56	1.08	1	103.401887064996	103.829230667994	"3"	34802.923809965	34716.901214509	1.5	0.1
0.01	1	0.0549467349992483	1	97	NA	115.439218943997	0	0.56	1.08	1	104.069593657994	104.124540392993	"3"	34802.923809965	34716.901214509	1.5	0.1
0.01	1	0.652051805998781	1	97	NA	115.439218943997	0	0.56	1.08	1	104.353399453998	105.005451259996	"3"	34802.923809965	34716.901214509	1.5	0.1
0.01	1	0.911097895004787	1	97	NA	115.439218943997	0	0.56	1.08	1	105.238207061993	106.149304956998	"3"	34802.923809965	34716.901214509	1.5	0.1
0.01	1	0.00219236499833642	1	97	NA	115.439218943997	0	0.56	1.08	1	106.373569860996	106.375762225995	"3"	34802.923809965	34716.901214509	1.5	0.1
0.01	1	2.39865357000235	1	97	NA	115.439218943997	0	0.56	1.08	1	106.607220267993	109.005873837996	"3"	34802.923809965	34716.901214509	1.5	0.1
0.01	1	0.296926554998208	1	97	NA	115.439218943997	0	0.56	1.08	1	109.245054399995	109.541980954993	"3"	34802.923809965	34716.901214509	1.5	0.1
0.01	1	0.546086483998806	1	97	NA	115.439218943997	0	0.56	1.08	1	109.77920266	110.325289143999	"3"	34802.923809965	34716.901214509	1.5	0.1
0.01	1	0.626284779995331	1	97	NA	115.439218943997	0	0.56	1.08	1	110.547164782998	111.173449562993	"3"	34802.923809965	34716.901214509	1.5	0.1
0.01	1	0.654787913001201	1	97	NA	115.439218943997	0	0.56	1.08	1	111.398680255996	112.053468168997	"3"	34802.923809965	34716.901214509	1.5	0.1
0.01	1	0.562181292996684	1	97	NA	115.439218943997	0	0.56	1.08	1	112.283418068	112.845599360997	"3"	34802.923809965	34716.901214509	1.5	0.1
0.01	1	0.465243186998123	1	97	NA	115.439218943997	0	0.56	1.08	1	113.068359322999	113.533602509997	"3"	34802.923809965	34716.901214509	1.5	0.1
0.01	1	0.948731415999646	1	97	NA	115.439218943997	0	0.56	1.08	1	113.769270703	114.718002119	"3"	34802.923809965	34716.901214509	1.5	0.1
0.01	1	0.483086827000079	2	97	NA	115.439218943997	0	0.56	1.08	1	114.954600797995	115.437687624995	"3"	34802.923809965	34716.901214509	1.5	0.1
0.01	1	1.42486611500499	1	51	133.153390118998	NA	1	0	1.08	1	117.492225831993	118.917091946998	"4"	34802.923809965	34716.901214509	1.5	0.1
0.01	1	0.0126190110022435	1	51	133.153390118998	NA	1	0	1.08	1	119.144951029994	119.157570040996	"4"	34802.923809965	34716.901214509	1.5	0.1
0.01	1	0.00219751399708912	1	51	133.153390118998	NA	1	0	1.08	1	119.395468315997	119.397665829994	"4"	34802.923809965	34716.901214509	1.5	0.1
0.01	1	0.0794720260018948	1	51	133.153390118998	NA	1	0	1.08	1	119.629089160997	119.708561186999	"4"	34802.923809965	34716.901214509	1.5	0.1
0.01	1	0.0902831860003062	1	51	133.153390118998	NA	1	0	1.08	1	119.946387402997	120.036670588997	"4"	34802.923809965	34716.901214509	1.5	0.1
0.01	1	0.00228829700063216	1	51	133.153390118998	NA	1	0	1.08	1	120.263587687994	120.265875984995	"4"	34802.923809965	34716.901214509	1.5	0.1
0.01	1	0.0272005980004906	1	51	133.153390118998	NA	1	0	1.08	1	120.497246091996	120.524446689997	"4"	34802.923809965	34716.901214509	1.5	0.1
0.01	1	0.145309867002652	1	51	133.153390118998	NA	1	0	1.08	1	120.747696371996	120.893006238999	"4"	34802.923809965	34716.901214509	1.5	0.1
0.01	1	0.0349889749995782	1	51	133.153390118998	NA	1	0	1.08	1	121.115032190995	121.150021165995	"4"	34802.923809965	34716.901214509	1.5	0.1
0.01	1	0.00240997299988521	1	51	133.153390118998	NA	1	0	1.08	1	121.382139919995	121.384549892995	"4"	34802.923809965	34716.901214509	1.5	0.1
0.01	1	0.00220682400686201	1	51	133.153390118998	NA	1	0	1.08	1	121.615872904993	121.618079729	"4"	34802.923809965	34716.901214509	1.5	0.1
0.01	1	0.00219044199911878	1	51	133.153390118998	NA	1	0	1.08	1	121.849562796	121.851753237999	"4"	34802.923809965	34716.901214509	1.5	0.1
0.01	1	0.00217985100607621	1	51	133.153390118998	NA	1	0	1.08	1	122.083318228993	122.08549808	"4"	34802.923809965	34716.901214509	1.5	0.1
0.01	1	0.00320648699562298	1	51	133.153390118998	NA	1	0	1.08	1	122.317038836998	122.320245323994	"4"	34802.923809965	34716.901214509	1.5	0.1
0.01	1	0.00215746699541342	1	51	133.153390118998	NA	1	0	1.08	1	122.550764972999	122.552922439994	"4"	34802.923809965	34716.901214509	1.5	0.1
0.01	1	0.00203971800510772	1	51	133.153390118998	NA	1	0	1.08	1	122.784579896994	122.786619614999	"4"	34802.923809965	34716.901214509	1.5	0.1
0.01	1	0.00227251300384523	1	51	133.153390118998	NA	1	0	1.08	1	123.018198082995	123.020470595999	"4"	34802.923809965	34716.901214509	1.5	0.1
0.01	1	0.00203142499958631	1	51	133.153390118998	NA	1	0	1.08	1	123.251987159994	123.254018584994	"4"	34802.923809965	34716.901214509	1.5	0.1
0.01	1	0.00399246700544609	1	51	133.153390118998	NA	1	0	1.08	1	123.569110394994	123.573102861999	"4"	34802.923809965	34716.901214509	1.5	0.1
0.01	1	0.00424828899849672	1	51	133.153390118998	NA	1	0	1.08	1	123.802890013998	123.807138302996	"4"	34802.923809965	34716.901214509	1.5	0.1
0.01	1	0.00204645099438494	1	51	133.153390118998	NA	1	0	1.08	1	124.036652704999	124.038699155994	"4"	34802.923809965	34716.901214509	1.5	0.1
0.01	1	0.0021853129946976	1	51	133.153390118998	NA	1	0	1.08	1	124.27030556	124.272490872994	"4"	34802.923809965	34716.901214509	1.5	0.1
0.01	1	0.00218011099786963	1	51	133.153390118998	NA	1	0	1.08	1	124.504014432998	124.506194543996	"4"	34802.923809965	34716.901214509	1.5	0.1
0.01	1	0.00218906900408911	1	51	133.153390118998	NA	1	0	1.08	1	124.737701285994	124.739890354998	"4"	34802.923809965	34716.901214509	1.5	0.1
0.01	1	0.00212810800439911	1	51	133.153390118998	NA	1	0	1.08	1	124.971490893993	124.973619001998	"4"	34802.923809965	34716.901214509	1.5	0.1
0.01	1	0.00205173799622571	1	51	133.153390118998	NA	1	0	1.08	1	125.205230202999	125.207281940995	"4"	34802.923809965	34716.901214509	1.5	0.1
0.01	1	0.00219365500379354	1	51	133.153390118998	NA	1	0	1.08	1	125.438936012994	125.441129667997	"4"	34802.923809965	34716.901214509	1.5	0.1
0.01	1	0.043925625999691	1	51	133.153390118998	NA	1	0	1.08	1	125.672730299993	125.716655925993	"4"	34802.923809965	34716.901214509	1.5	0.1
0.01	1	0.00271337600133847	1	51	133.153390118998	NA	1	0	1.08	1	125.939754457999	125.942467834	"4"	34802.923809965	34716.901214509	1.5	0.1
0.01	1	0.0021823829956702	1	51	133.153390118998	NA	1	0	1.08	1	126.173528193998	126.175710576994	"4"	34802.923809965	34716.901214509	1.5	0.1
0.01	1	0.0459544260011171	1	51	133.153390118998	NA	1	0	1.08	1	126.407159325994	126.453113751995	"4"	34802.923809965	34716.901214509	1.5	0.1
0.01	1	0.0515570269999444	1	51	133.153390118998	NA	1	0	1.08	1	126.674363882994	126.725920909994	"4"	34802.923809965	34716.901214509	1.5	0.1
0.01	1	0.0708050329994876	1	51	133.153390118998	NA	1	0	1.08	1	126.958172059996	127.028977092996	"4"	34802.923809965	34716.901214509	1.5	0.1
0.01	1	0.0893785570006003	1	51	133.153390118998	NA	1	0	1.08	1	127.258630639997	127.348009196998	"4"	34802.923809965	34716.901214509	1.5	0.1
0.01	1	0.021979012999509	1	51	133.153390118998	NA	1	0	1.08	1	127.575893062	127.597872074999	"4"	34802.923809965	34716.901214509	1.5	0.1
0.01	1	0.121785700001055	1	51	133.153390118998	NA	1	0	1.08	1	127.826294889994	127.948080589995	"4"	34802.923809965	34716.901214509	1.5	0.1
0.01	1	0.100349026004551	1	51	133.153390118998	NA	1	0	1.08	1	128.176842885994	128.277191911999	"4"	34802.923809965	34716.901214509	1.5	0.1
0.01	1	0.0945200889982516	1	51	133.153390118998	NA	1	0	1.08	1	128.510796374998	128.605316463996	"4"	34802.923809965	34716.901214509	1.5	0.1
0.01	1	0.0893472759998986	1	51	133.153390118998	NA	1	0	1.08	1	128.827906349994	128.917253625994	"4"	34802.923809965	34716.901214509	1.5	0.1
0.01	1	0.00230270600150106	1	51	133.153390118998	NA	1	0	1.08	1	129.145117711996	129.147420417998	"4"	34802.923809965	34716.901214509	1.5	0.1
0.01	1	0.0514194630013662	1	51	133.153390118998	NA	1	0	1.08	1	129.378857911994	129.430277374995	"4"	34802.923809965	34716.901214509	1.5	0.1
0.01	1	0.00239518399757799	1	51	133.153390118998	NA	1	0	1.08	1	129.662739139996	129.665134323994	"4"	34802.923809965	34716.901214509	1.5	0.1
0.01	1	0.00217174899444217	1	51	133.153390118998	NA	1	0	1.08	1	129.896415859999	129.898587608994	"4"	34802.923809965	34716.901214509	1.5	0.1
0.01	1	0.0828855049985577	1	51	133.153390118998	NA	1	0	1.08	1	130.130106564	130.212992068999	"4"	34802.923809965	34716.901214509	1.5	0.1
0.01	1	0.637592085004144	1	51	133.153390118998	NA	1	0	1.08	1	130.447356995996	131.084949081	"4"	34802.923809965	34716.901214509	1.5	0.1
0.01	1	0.00219219900463941	1	51	133.153390118998	NA	1	0	1.08	1	131.315441720995	131.31763392	"4"	34802.923809965	34716.901214509	1.5	0.1
0.01	1	0.0469555790041341	1	51	133.153390118998	NA	1	0	1.08	1	131.549215556995	131.596171136	"4"	34802.923809965	34716.901214509	1.5	0.1
0.01	1	0.0516759199963417	1	51	133.153390118998	NA	1	0	1.08	1	131.833073012	131.884748931996	"4"	34802.923809965	34716.901214509	1.5	0.1
0.01	1	0.0551375939976424	1	51	133.153390118998	NA	1	0	1.08	1	132.116822505996	132.171960099993	"4"	34802.923809965	34716.901214509	1.5	0.1
0.01	1	0.405218870000681	1	51	133.153390118998	NA	1	0	1.08	1	132.400583907998	132.805802777999	"4"	34802.923809965	34716.901214509	1.5	0.1
0.01	1	0.00223740700312192	1	51	133.153390118998	NA	1	0	1.08	1	133.035012297994	133.037249704998	"4"	34802.923809965	34716.901214509	1.5	0.1
0.01	1	0.00219935100176372	1	116	NA	160.622982791996	0	0.6	1.68	1	135.205392377997	135.207591728999	"5"	34802.923809965	34716.901214509	1.5	0.1
0.01	1	0.102688590995967	1	116	NA	160.622982791996	0	0.6	1.68	1	135.439067031999	135.541755622995	"5"	34802.923809965	34716.901214509	1.5	0.1
0.01	1	0.112774457003979	1	116	NA	160.622982791996	0	0.6	1.68	1	135.772956789995	135.885731246999	"5"	34802.923809965	34716.901214509	1.5	0.1
0.01	1	0.0892366370026139	1	116	NA	160.622982791996	0	0.6	1.68	1	136.123524958995	136.212761595998	"5"	34802.923809965	34716.901214509	1.5	0.1
0.01	1	0.0912763119995361	1	116	NA	160.622982791996	0	0.6	1.68	1	136.440735922995	136.532012234995	"5"	34802.923809965	34716.901214509	1.5	0.1
0.01	1	0.0715741980020539	1	116	NA	160.622982791996	0	0.6	1.68	1	136.757906096995	136.829480294997	"5"	34802.923809965	34716.901214509	1.5	0.1
0.01	1	0.0908752500035916	1	116	NA	160.622982791996	0	0.6	1.68	1	137.058447129995	137.149322379999	"5"	34802.923809965	34716.901214509	1.5	0.1
0.01	1	0.00223789099982241	1	116	NA	160.622982791996	0	0.6	1.68	1	137.375728321997	137.377966212996	"5"	34802.923809965	34716.901214509	1.5	0.1
0.01	1	0.0602371159984614	1	116	NA	160.622982791996	0	0.6	1.68	1	137.609354146996	137.669591262995	"5"	34802.923809965	34716.901214509	1.5	0.1
0.01	1	0.00228131999756442	1	116	NA	160.622982791996	0	0.6	1.68	1	137.893279358999	137.895560678997	"5"	34802.923809965	34716.901214509	1.5	0.1
0.01	1	0.0147934589986107	1	116	NA	160.622982791996	0	0.6	1.68	1	138.126966575997	138.141760034996	"5"	34802.923809965	34716.901214509	1.5	0.1
0.01	1	0.00237601099797757	1	116	NA	160.622982791996	0	0.6	1.68	1	138.377414163995	138.379790174993	"5"	34802.923809965	34716.901214509	1.5	0.1
0.01	1	0.0101853230007691	1	116	NA	160.622982791996	0	0.6	1.68	1	138.611139403998	138.621324726999	"5"	34802.923809965	34716.901214509	1.5	0.1
0.01	1	0.00238855700445129	1	116	NA	160.622982791996	0	0.6	1.68	1	138.844838082994	138.847226639999	"5"	34802.923809965	34716.901214509	1.5	0.1
0.01	1	0.014564404002158	1	116	NA	160.622982791996	0	0.6	1.68	1	139.078534242995	139.093098646998	"5"	34802.923809965	34716.901214509	1.5	0.1
0.01	1	0.00218413100083126	1	116	NA	160.622982791996	0	0.6	1.68	1	139.329006569998	139.331190700999	"5"	34802.923809965	34716.901214509	1.5	0.1
0.01	1	0.00213586899917573	1	116	NA	160.622982791996	0	0.6	1.68	1	139.562671258995	139.564807127994	"5"	34802.923809965	34716.901214509	1.5	0.1
0.01	1	0.00216830000135815	1	116	NA	160.622982791996	0	0.6	1.68	1	139.796432069998	139.798600369999	"5"	34802.923809965	34716.901214509	1.5	0.1
0.01	1	0.00209199699747842	1	116	NA	160.622982791996	0	0.6	1.68	1	140.030139344999	140.032231341997	"5"	34802.923809965	34716.901214509	1.5	0.1
0.01	1	0.00221053400309756	1	116	NA	160.622982791996	0	0.6	1.68	1	140.263870268995	140.266080802998	"5"	34802.923809965	34716.901214509	1.5	0.1
0.01	1	0.123848934999842	1	116	NA	160.622982791996	0	0.6	1.68	1	140.497651427999	140.621500362999	"5"	34802.923809965	34716.901214509	1.5	0.1
0.01	1	0.00225791699631372	1	116	NA	160.622982791996	0	0.6	1.68	1	140.848280660997	140.850538577994	"5"	34802.923809965	34716.901214509	1.5	0.1
0.01	1	0.0106447459984338	1	116	NA	160.622982791996	0	0.6	1.68	1	141.081878113	141.092522858999	"5"	34802.923809965	34716.901214509	1.5	0.1
0.01	1	0.00197295899852179	1	116	NA	160.622982791996	0	0.6	1.68	1	141.332440036	141.334412994998	"5"	34802.923809965	34716.901214509	1.5	0.1
0.01	1	0.0314922030011076	1	116	NA	160.622982791996	0	0.6	1.68	1	141.566080154997	141.597572357998	"5"	34802.923809965	34716.901214509	1.5	0.1
0.01	1	0.371229532000143	1	116	NA	160.622982791996	0	0.6	1.68	1	141.833200975998	142.204430507998	"5"	34802.923809965	34716.901214509	1.5	0.1
0.01	1	0.179584953002632	1	116	NA	160.622982791996	0	0.6	1.68	1	142.434220289993	142.613805242996	"5"	34802.923809965	34716.901214509	1.5	0.1
0.01	1	0.257236809004098	1	116	NA	160.622982791996	0	0.6	1.68	1	142.851557835995	143.108794644999	"5"	34802.923809965	34716.901214509	1.5	0.1
0.01	1	0.221596202994988	1	116	NA	160.622982791996	0	0.6	1.68	1	143.335662177	143.557258379995	"5"	34802.923809965	34716.901214509	1.5	0.1
0.01	1	0.297641040997405	1	116	NA	160.622982791996	0	0.6	1.68	1	143.786595753998	144.084236794995	"5"	34802.923809965	34716.901214509	1.5	0.1
0.01	1	0.259339967000415	1	116	NA	160.622982791996	0	0.6	1.68	1	144.320691395995	144.580031362995	"5"	34802.923809965	34716.901214509	1.5	0.1
0.01	1	0.367976485998952	1	116	NA	160.622982791996	0	0.6	1.68	1	144.804798616999	145.172775102998	"5"	34802.923809965	34716.901214509	1.5	0.1
0.01	1	0.295198644002085	1	116	NA	160.622982791996	0	0.6	1.68	1	145.405834715995	145.701033359997	"5"	34802.923809965	34716.901214509	1.5	0.1
0.01	1	0.474530362997029	1	116	NA	160.622982791996	0	0.6	1.68	1	145.923341294998	146.397871657995	"5"	34802.923809965	34716.901214509	1.5	0.1
0.01	1	0.227532193996012	1	116	NA	160.622982791996	0	0.6	1.68	1	146.624598941999	146.852131135995	"5"	34802.923809965	34716.901214509	1.5	0.1
0.01	1	0.202473338002164	1	116	NA	160.622982791996	0	0.6	1.68	1	147.075356744994	147.277830082996	"5"	34802.923809965	34716.901214509	1.5	0.1
0.01	1	0.120306527998764	1	116	NA	160.622982791996	0	0.6	1.68	1	147.509377283997	147.629683811996	"5"	34802.923809965	34716.901214509	1.5	0.1
0.01	1	0.0977118330047233	1	116	NA	160.622982791996	0	0.6	1.68	1	147.860016807994	147.957728640999	"5"	34802.923809965	34716.901214509	1.5	0.1
0.01	1	0.0746691449967329	1	116	NA	160.622982791996	0	0.6	1.68	1	148.193964724	148.268633868996	"5"	34802.923809965	34716.901214509	1.5	0.1
0.01	1	0.0539171659984277	1	116	NA	160.622982791996	0	0.6	1.68	1	148.494479506	148.548396671998	"5"	34802.923809965	34716.901214509	1.5	0.1
0.01	1	0.0517356839991407	1	116	NA	160.622982791996	0	0.6	1.68	1	148.778218258994	148.829953942994	"5"	34802.923809965	34716.901214509	1.5	0.1
0.01	1	0.0633124000014504	1	116	NA	160.622982791996	0	0.6	1.68	1	149.062019329998	149.12533173	"5"	34802.923809965	34716.901214509	1.5	0.1
0.01	1	0.0508178990057786	1	116	NA	160.622982791996	0	0.6	1.68	1	149.362512108994	149.413330007999	"5"	34802.923809965	34716.901214509	1.5	0.1
0.01	1	0.0780935989969294	1	116	NA	160.622982791996	0	0.6	1.68	1	149.646448084997	149.724541683994	"5"	34802.923809965	34716.901214509	1.5	0.1
0.01	1	0.0738978199951816	1	116	NA	160.622982791996	0	0.6	1.68	1	149.946841855999	150.020739675994	"5"	34802.923809965	34716.901214509	1.5	0.1
0.01	1	0.0708171019941801	1	116	NA	160.622982791996	0	0.6	1.68	1	150.247294553999	150.318111655994	"5"	34802.923809965	34716.901214509	1.5	0.1
0.01	1	0.0897838579985546	1	116	NA	160.622982791996	0	0.6	1.68	1	150.547784162998	150.637568020997	"5"	34802.923809965	34716.901214509	1.5	0.1
0.01	1	0.732148832001258	1	116	NA	160.622982791996	0	0.6	1.68	1	150.865118471993	151.597267303994	"5"	34802.923809965	34716.901214509	1.5	0.1
0.01	1	0.00220973700197646	1	116	NA	160.622982791996	0	0.6	1.68	1	151.833381555996	151.835591292998	"5"	34802.923809965	34716.901214509	1.5	0.1
0.01	1	0.593071501003578	1	116	NA	160.622982791996	0	0.6	1.68	1	152.067060302994	152.660131803998	"5"	34802.923809965	34716.901214509	1.5	0.1
0.01	1	0.00219465200643754	1	116	NA	160.622982791996	0	0.6	1.68	1	152.885138301994	152.887332954	"5"	34802.923809965	34716.901214509	1.5	0.1
0.01	1	0.438195085996995	1	116	NA	160.622982791996	0	0.6	1.68	1	153.118847268997	153.557042354994	"5"	34802.923809965	34716.901214509	1.5	0.1
0.01	1	0.00220923699816922	1	116	NA	160.622982791996	0	0.6	1.68	1	153.786653857998	153.788863094996	"5"	34802.923809965	34716.901214509	1.5	0.1
0.01	1	0.434625296999002	1	116	NA	160.622982791996	0	0.6	1.68	1	154.020411193	154.455036489999	"5"	34802.923809965	34716.901214509	1.5	0.1
0.01	1	0.00219792199641233	1	116	NA	160.622982791996	0	0.6	1.68	1	154.688218985997	154.690416907993	"5"	34802.923809965	34716.901214509	1.5	0.1
0.01	1	0.707285892000073	1	116	NA	160.622982791996	0	0.6	1.68	1	154.921915262996	155.629201154996	"5"	34802.923809965	34716.901214509	1.5	0.1
0.01	1	0.643181018000178	1	116	NA	160.622982791996	0	0.6	1.68	1	155.856868715993	156.500049733993	"5"	34802.923809965	34716.901214509	1.5	0.1
0.01	1	1.04924802200549	1	116	NA	160.622982791996	0	0.6	1.68	1	156.724957235994	157.774205258	"5"	34802.923809965	34716.901214509	1.5	0.1
0.01	1	0.818921302001399	1	116	NA	160.622982791996	0	0.6	1.68	1	158.010511600995	158.829432902996	"5"	34802.923809965	34716.901214509	1.5	0.1
0.01	1	0.733774861997517	1	116	NA	160.622982791996	0	0.6	1.68	1	159.062188693999	159.795963555996	"5"	34802.923809965	34716.901214509	1.5	0.1
0.01	1	0.59074943500309	2	116	NA	160.622982791996	0	0.6	1.68	1	160.030461297996	160.621210732999	"5"	34802.923809965	34716.901214509	1.5	0.1
0.01	1	1.23228035499778	1	118	NA	211.214971975998	0	0.78	2.46	1	162.668289595997	163.900569950994	"6"	34802.923809965	34716.901214509	1.5	0.1
0.01	1	0.260080906999065	1	118	NA	211.214971975998	0	0.78	2.46	1	164.137529902997	164.397610809996	"6"	34802.923809965	34716.901214509	1.5	0.1
0.01	1	0.22350499300228	1	118	NA	211.214971975998	0	0.78	2.46	1	164.621613120995	164.845118113997	"6"	34802.923809965	34716.901214509	1.5	0.1
0.01	1	0.244610262001515	1	118	NA	211.214971975998	0	0.78	2.46	1	165.072309206997	165.316919468998	"6"	34802.923809965	34716.901214509	1.5	0.1
0.01	1	0.224765792998369	1	118	NA	211.214971975998	0	0.78	2.46	1	165.539739966996	165.764505759995	"6"	34802.923809965	34716.901214509	1.5	0.1
0.01	1	0.241018540000368	1	118	NA	211.214971975998	0	0.78	2.46	1	165.990489435993	166.231507975994	"6"	34802.923809965	34716.901214509	1.5	0.1
0.01	1	0.275915010002791	1	118	NA	211.214971975998	0	0.78	2.46	1	166.457896672997	166.733811683	"6"	34802.923809965	34716.901214509	1.5	0.1
0.01	1	0.27072685600433	1	118	NA	211.214971975998	0	0.78	2.46	1	166.958725476994	167.229452332998	"6"	34802.923809965	34716.901214509	1.5	0.1
0.01	1	0.297023705003085	1	118	NA	211.214971975998	0	0.78	2.46	1	167.459714605997	167.756738311	"6"	34802.923809965	34716.901214509	1.5	0.1
0.01	1	0.323741146996326	1	118	NA	211.214971975998	0	0.78	2.46	1	167.993942679997	168.317683826994	"6"	34802.923809965	34716.901214509	1.5	0.1
0.01	1	0.493478670003242	1	118	NA	211.214971975998	0	0.78	2.46	1	168.544824059994	169.038302729998	"6"	34802.923809965	34716.901214509	1.5	0.1
0.01	1	0.317679485000554	1	118	NA	211.214971975998	0	0.78	2.46	1	169.262853232998	169.580532717999	"6"	34802.923809965	34716.901214509	1.5	0.1
0.01	1	0.311187430001155	1	118	NA	211.214971975998	0	0.78	2.46	1	169.813659191997	170.124846621999	"6"	34802.923809965	34716.901214509	1.5	0.1
0.01	1	0.200755222998851	1	118	NA	211.214971975998	0	0.78	2.46	1	170.364632616998	170.565387839997	"6"	34802.923809965	34716.901214509	1.5	0.1
0.01	1	0.247199694000301	1	118	NA	211.214971975998	0	0.78	2.46	1	170.798686091999	171.045885785999	"6"	34802.923809965	34716.901214509	1.5	0.1
0.01	1	0.162733302000561	1	118	NA	211.214971975998	0	0.78	2.46	1	171.282858330997	171.445591632997	"6"	34802.923809965	34716.901214509	1.5	0.1
0.01	1	0.249191285001871	1	118	NA	211.214971975998	0	0.78	2.46	1	171.683387157995	171.932578442997	"6"	34802.923809965	34716.901214509	1.5	0.1
0.01	1	0.237243811003282	1	118	NA	211.214971975998	0	0.78	2.46	1	172.167628389994	172.404872200997	"6"	34802.923809965	34716.901214509	1.5	0.1
0.01	1	0.218148280997411	1	118	NA	211.214971975998	0	0.78	2.46	1	172.635189943998	172.853338224995	"6"	34802.923809965	34716.901214509	1.5	0.1
0.01	1	0.231579993000196	1	118	NA	211.214971975998	0	0.78	2.46	1	173.085711700995	173.317291693995	"6"	34802.923809965	34716.901214509	1.5	0.1
0.01	1	0.21894957600307	1	118	NA	211.214971975998	0	0.78	2.46	1	173.553367516994	173.772317092997	"6"	34802.923809965	34716.901214509	1.5	0.1
0.01	1	0.241407532004814	1	118	NA	211.214971975998	0	0.78	2.46	1	174.004015891995	174.245423423999	"6"	34802.923809965	34716.901214509	1.5	0.1
0.01	1	0.268997512001079	1	118	NA	211.214971975998	0	0.78	2.46	1	174.471576742995	174.740574254996	"6"	34802.923809965	34716.901214509	1.5	0.1
0.01	1	0.257004490005784	1	118	NA	211.214971975998	0	0.78	2.46	1	174.972392312993	175.229396802999	"6"	34802.923809965	34716.901214509	1.5	0.1
0.01	1	0.276468861993635	1	118	NA	211.214971975998	0	0.78	2.46	1	175.456420918999	175.732889780993	"6"	34802.923809965	34716.901214509	1.5	0.1
0.01	1	0.27250081999955	1	118	NA	211.214971975998	0	0.78	2.46	1	175.957282153999	176.229782973998	"6"	34802.923809965	34716.901214509	1.5	0.1
0.01	1	0.346463360001508	1	118	NA	211.214971975998	0	0.78	2.46	1	176.458299712998	176.804763073	"6"	34802.923809965	34716.901214509	1.5	0.1
0.01	1	0.266966266004601	1	118	NA	211.214971975998	0	0.78	2.46	1	177.042357782993	177.309324048998	"6"	34802.923809965	34716.901214509	1.5	0.1
0.01	1	0.325711653000326	1	118	NA	211.214971975998	0	0.78	2.46	1	177.543219714993	177.868931367993	"6"	34802.923809965	34716.901214509	1.5	0.1
0.01	1	0.359197018995474	1	118	NA	211.214971975998	0	0.78	2.46	1	178.094193965	178.453390983996	"6"	34802.923809965	34716.901214509	1.5	0.1
0.01	1	0.302120807995379	1	118	NA	211.214971975998	0	0.78	2.46	1	178.678476544999	178.980597352995	"6"	34802.923809965	34716.901214509	1.5	0.1
0.01	1	0.312198208004702	1	118	NA	211.214971975998	0	0.78	2.46	1	179.212724752993	179.524922960998	"6"	34802.923809965	34716.901214509	1.5	0.1
0.01	1	0.361960357004136	1	118	NA	211.214971975998	0	0.78	2.46	1	179.747008066995	180.108968424	"6"	34802.923809965	34716.901214509	1.5	0.1
0.01	1	0.361524478001229	1	118	NA	211.214971975998	0	0.78	2.46	1	180.348129720995	180.709654198996	"6"	34802.923809965	34716.901214509	1.5	0.1
0.01	1	0.320498423003301	1	118	NA	211.214971975998	0	0.78	2.46	1	180.932252365994	181.252750788997	"6"	34802.923809965	34716.901214509	1.5	0.1
0.01	1	0.314513197001361	1	118	NA	211.214971975998	0	0.78	2.46	1	181.483323462999	181.79783666	"6"	34802.923809965	34716.901214509	1.5	0.1
0.01	1	0.282743080002547	1	118	NA	211.214971975998	0	0.78	2.46	1	182.034171923995	182.316915003998	"6"	34802.923809965	34716.901214509	1.5	0.1
0.01	1	0.35036762800155	1	118	NA	211.214971975998	0	0.78	2.46	1	182.551675914998	182.902043542999	"6"	34802.923809965	34716.901214509	1.5	0.1
0.01	1	0.333856933000789	1	118	NA	211.214971975998	0	0.78	2.46	1	183.136059672994	183.469916605995	"6"	34802.923809965	34716.901214509	1.5	0.1
0.01	1	0.308995347004384	1	118	NA	211.214971975998	0	0.78	2.46	1	183.703580762995	184.012576109999	"6"	34802.923809965	34716.901214509	1.5	0.1
0.01	1	0.343570997996721	1	118	NA	211.214971975998	0	0.78	2.46	1	184.237794624998	184.581365622995	"6"	34802.923809965	34716.901214509	1.5	0.1
0.01	1	0.336590904000332	1	118	NA	211.214971975998	0	0.78	2.46	1	184.805416809999	185.142007713999	"6"	34802.923809965	34716.901214509	1.5	0.1
0.01	1	0.304003555000236	1	118	NA	211.214971975998	0	0.78	2.46	1	185.373021011997	185.677024566998	"6"	34802.923809965	34716.901214509	1.5	0.1
0.01	1	0.329503793996992	1	118	NA	211.214971975998	0	0.78	2.46	1	185.907360591998	186.236864385995	"6"	34802.923809965	34716.901214509	1.5	0.1
0.01	1	0.425901893002447	1	118	NA	211.214971975998	0	0.78	2.46	1	186.474931204997	186.900833098	"6"	34802.923809965	34716.901214509	1.5	0.1
0.01	1	1.14302165099798	1	118	NA	211.214971975998	0	0.78	2.46	1	187.126094738	188.269116388998	"6"	34802.923809965	34716.901214509	1.5	0.1
0.01	1	0.388935457995103	1	118	NA	211.214971975998	0	0.78	2.46	1	188.494960545999	188.883896003994	"6"	34802.923809965	34716.901214509	1.5	0.1
0.01	1	0.363470853000763	1	118	NA	211.214971975998	0	0.78	2.46	1	189.112756966999	189.47622782	"6"	34802.923809965	34716.901214509	1.5	0.1
0.01	1	0.330797669004824	1	118	NA	211.214971975998	0	0.78	2.46	1	189.713696850995	190.04449452	"6"	34802.923809965	34716.901214509	1.5	0.1
0.01	1	0.28404273599881	1	118	NA	211.214971975998	0	0.78	2.46	1	190.281307772995	190.565350508994	"6"	34802.923809965	34716.901214509	1.5	0.1
0.01	1	0.33408261200384	1	118	NA	211.214971975998	0	0.78	2.46	1	190.798884503994	191.132967115998	"6"	34802.923809965	34716.901214509	1.5	0.1
0.01	1	0.333539615996415	1	118	NA	211.214971975998	0	0.78	2.46	1	191.36648646	191.700026075996	"6"	34802.923809965	34716.901214509	1.5	0.1
0.01	1	0.42427346399927	1	118	NA	211.214971975998	0	0.78	2.46	1	191.934116277997	192.358389741996	"6"	34802.923809965	34716.901214509	1.5	0.1
0.01	1	0.429032722997363	1	118	NA	211.214971975998	0	0.78	2.46	1	192.58520591	193.014238632997	"6"	34802.923809965	34716.901214509	1.5	0.1
0.01	1	0.270988058000512	1	118	NA	211.214971975998	0	0.78	2.46	1	193.253026901999	193.524014959999	"6"	34802.923809965	34716.901214509	1.5	0.1
0.01	1	0.315411515002779	1	118	NA	211.214971975998	0	0.78	2.46	1	193.753914784997	194.069326299999	"6"	34802.923809965	34716.901214509	1.5	0.1
0.01	1	0.342084212003101	1	118	NA	211.214971975998	0	0.78	2.46	1	194.304947555996	194.647031768	"6"	34802.923809965	34716.901214509	1.5	0.1
0.01	1	0.333362695004325	1	118	NA	211.214971975998	0	0.78	2.46	1	194.872445290996	195.205807986	"6"	34802.923809965	34716.901214509	1.5	0.1
0.01	1	0.411945708998246	1	118	NA	211.214971975998	0	0.78	2.46	1	195.440040135996	195.851985844994	"6"	34802.923809965	34716.901214509	1.5	0.1
0.01	1	0.612318107996543	1	118	NA	211.214971975998	0	0.78	2.46	1	196.074448567997	196.686766675994	"6"	34802.923809965	34716.901214509	1.5	0.1
0.01	1	0.575658186004148	1	118	NA	211.214971975998	0	0.78	2.46	1	196.909162512995	197.484820698999	"6"	34802.923809965	34716.901214509	1.5	0.1
0.01	1	0.343514283995319	1	118	NA	211.214971975998	0	0.78	2.46	1	197.710516881998	198.054031165993	"6"	34802.923809965	34716.901214509	1.5	0.1
0.01	1	0.431361253999057	1	118	NA	211.214971975998	0	0.78	2.46	1	198.278096377995	198.709457631994	"6"	34802.923809965	34716.901214509	1.5	0.1
0.01	1	0.579212238000764	1	118	NA	211.214971975998	0	0.78	2.46	1	198.945928593996	199.525140831996	"6"	34802.923809965	34716.901214509	1.5	0.1
0.01	1	0.48995376899984	1	118	NA	211.214971975998	0	0.78	2.46	1	199.747343792995	200.237297561995	"6"	34802.923809965	34716.901214509	1.5	0.1
0.01	1	1.16343585400318	1	118	NA	211.214971975998	0	0.78	2.46	1	200.465286075996	201.628721929999	"6"	34802.923809965	34716.901214509	1.5	0.1
0.01	1	0.544500031006464	1	118	NA	211.214971975998	0	0.78	2.46	1	201.867445419994	202.411945451	"6"	34802.923809965	34716.901214509	1.5	0.1
0.01	1	0.930232768005226	1	118	NA	211.214971975998	0	0.78	2.46	1	202.635573534993	203.565806302999	"6"	34802.923809965	34716.901214509	1.5	0.1
0.01	1	0.346371122999699	1	118	NA	211.214971975998	0	0.78	2.46	1	203.787462781998	204.133833904998	"6"	34802.923809965	34716.901214509	1.5	0.1
0.01	1	0.144510053003614	1	118	NA	211.214971975998	0	0.78	2.46	1	204.371702209995	204.516212262999	"6"	34802.923809965	34716.901214509	1.5	0.1
0.01	1	1.8580249029983	1	118	NA	211.214971975998	0	0.78	2.46	1	204.755741274996	206.613766177994	"6"	34802.923809965	34716.901214509	1.5	0.1
0.01	1	0.363464210000529	1	118	NA	211.214971975998	0	0.78	2.46	1	206.842604957994	207.206069167994	"6"	34802.923809965	34716.901214509	1.5	0.1
0.01	1	0.298890041005507	1	118	NA	211.214971975998	0	0.78	2.46	1	207.443578814993	207.742468855999	"6"	34802.923809965	34716.901214509	1.5	0.1
0.01	1	0.580125479995331	1	118	NA	211.214971975998	0	0.78	2.46	1	207.977791862999	208.557917342994	"6"	34802.923809965	34716.901214509	1.5	0.1
0.01	1	0.576540967995243	1	118	NA	211.214971975998	0	0.78	2.46	1	208.795812149998	209.372353117993	"6"	34802.923809965	34716.901214509	1.5	0.1
0.01	1	0.00872571299987612	1	118	NA	211.214971975998	0	0.78	2.46	1	209.597166399995	209.605892112995	"6"	34802.923809965	34716.901214509	1.5	0.1
0.01	1	0.533490944995719	1	118	NA	211.214971975998	0	0.78	2.46	1	209.830933044999	210.364423989995	"6"	34802.923809965	34716.901214509	1.5	0.1
0.01	1	0.00219468800059985	1	118	NA	211.214971975998	0	0.78	2.46	1	210.598905794999	210.601100483	"6"	34802.923809965	34716.901214509	1.5	0.1
0.01	1	0.380711431003874	2	118	NA	211.214971975998	0	0.78	2.46	1	210.832669984993	211.213381415997	"6"	34802.923809965	34716.901214509	1.5	0.1
0.01	1	2.03903952800465	1	87	254.647496869999	NA	1	0	2.46	1	213.270164828995	215.309204357	"7"	34802.923809965	34716.901214509	1.5	0.1
0.01	1	0.00212902299972484	1	87	254.647496869999	NA	1	0	2.46	1	215.540525179997	215.542654202996	"7"	34802.923809965	34716.901214509	1.5	0.1
0.01	1	0.0022770599971409	1	87	254.647496869999	NA	1	0	2.46	1	215.774245225999	215.776522285996	"7"	34802.923809965	34716.901214509	1.5	0.1
0.01	1	0.0212787419950473	1	87	254.647496869999	NA	1	0	2.46	1	216.007921142998	216.029199884993	"7"	34802.923809965	34716.901214509	1.5	0.1
0.01	1	0.019214648003981	1	87	254.647496869999	NA	1	0	2.46	1	216.258487221996	216.27770187	"7"	34802.923809965	34716.901214509	1.5	0.1
0.01	1	0.0412923969997792	1	87	254.647496869999	NA	1	0	2.46	1	216.508794475994	216.550086872994	"7"	34802.923809965	34716.901214509	1.5	0.1
0.01	1	0.0464524599956349	1	87	254.647496869999	NA	1	0	2.46	1	216.776114699998	216.822567159994	"7"	34802.923809965	34716.901214509	1.5	0.1
0.01	1	0.0402938780025579	1	87	254.647496869999	NA	1	0	2.46	1	217.059813374995	217.100107252998	"7"	34802.923809965	34716.901214509	1.5	0.1
0.01	1	0.0290054190045339	1	87	254.647496869999	NA	1	0	2.46	1	217.326914483994	217.355919902999	"7"	34802.923809965	34716.901214509	1.5	0.1
0.01	1	0.0208245179965161	1	87	254.647496869999	NA	1	0	2.46	1	217.594005913998	217.614830431994	"7"	34802.923809965	34716.901214509	1.5	0.1
0.01	1	0.0423672510005417	1	87	254.647496869999	NA	1	0	2.46	1	217.844429973993	217.886797224994	"7"	34802.923809965	34716.901214509	1.5	0.1
0.01	1	0.0542199269984849	1	87	254.647496869999	NA	1	0	2.46	1	218.111479535997	218.165699462996	"7"	34802.923809965	34716.901214509	1.5	0.1
0.01	1	0.025000565998198	1	87	254.647496869999	NA	1	0	2.46	1	218.395361395	218.420361960998	"7"	34802.923809965	34716.901214509	1.5	0.1
0.01	1	0.0319390209988342	1	87	254.647496869999	NA	1	0	2.46	1	218.645807178997	218.677746199995	"7"	34802.923809965	34716.901214509	1.5	0.1
0.01	1	0.0447351500042714	1	87	254.647496869999	NA	1	0	2.46	1	218.913001584995	218.957736734999	"7"	34802.923809965	34716.901214509	1.5	0.1
0.01	1	0.0481571419950342	1	87	254.647496869999	NA	1	0	2.46	1	219.180138677999	219.228295819994	"7"	34802.923809965	34716.901214509	1.5	0.1
0.01	1	0.0537079130008351	1	87	254.647496869999	NA	1	0	2.46	1	219.463827755993	219.517535668994	"7"	34802.923809965	34716.901214509	1.5	0.1
0.01	1	0.0494449729958433	1	87	254.647496869999	NA	1	0	2.46	1	219.747589942999	219.797034915995	"7"	34802.923809965	34716.901214509	1.5	0.1
0.01	1	0.0530119409959298	1	87	254.647496869999	NA	1	0	2.46	1	220.031488542998	220.084500483994	"7"	34802.923809965	34716.901214509	1.5	0.1
0.01	1	0.068585842003813	1	87	254.647496869999	NA	1	0	2.46	1	220.315248527993	220.383834369997	"7"	34802.923809965	34716.901214509	1.5	0.1
0.01	1	0.0767354279960273	1	87	254.647496869999	NA	1	0	2.46	1	220.615864883999	220.692600311995	"7"	34802.923809965	34716.901214509	1.5	0.1
0.01	1	0.0723040629964089	1	87	254.647496869999	NA	1	0	2.46	1	220.916231643998	220.988535706994	"7"	34802.923809965	34716.901214509	1.5	0.1
0.01	1	0.0762614699997357	1	87	254.647496869999	NA	1	0	2.46	1	221.216763672994	221.293025142993	"7"	34802.923809965	34716.901214509	1.5	0.1
0.01	1	0.0803710230029537	1	87	254.647496869999	NA	1	0	2.46	1	221.517194582993	221.597565605996	"7"	34802.923809965	34716.901214509	1.5	0.1
0.01	1	0.0834987300040666	1	87	254.647496869999	NA	1	0	2.46	1	221.834480453996	221.917979184	"7"	34802.923809965	34716.901214509	1.5	0.1
0.01	1	0.148564789000375	1	87	254.647496869999	NA	1	0	2.46	1	222.151643610996	222.300208399996	"7"	34802.923809965	34716.901214509	1.5	0.1
0.01	1	0.111030619998928	1	87	254.647496869999	NA	1	0	2.46	1	222.535728554998	222.646759174997	"7"	34802.923809965	34716.901214509	1.5	0.1
0.01	1	0.134584494000592	1	87	254.647496869999	NA	1	0	2.46	1	222.869529609998	223.004114103998	"7"	34802.923809965	34716.901214509	1.5	0.1
0.01	1	0.15311758799362	1	87	254.647496869999	NA	1	0	2.46	1	223.236764627	223.389882214993	"7"	34802.923809965	34716.901214509	1.5	0.1
0.01	1	0.29747818299802	1	87	254.647496869999	NA	1	0	2.46	1	223.620752502997	223.918230685995	"7"	34802.923809965	34716.901214509	1.5	0.1
0.01	1	0.218963226005144	1	87	254.647496869999	NA	1	0	2.46	1	224.155106488994	224.374069714999	"7"	34802.923809965	34716.901214509	1.5	0.1
0.01	1	0.112029196003277	1	87	254.647496869999	NA	1	0	2.46	1	224.605875771995	224.717904967998	"7"	34802.923809965	34716.901214509	1.5	0.1
0.01	1	0.169557711997186	1	87	254.647496869999	NA	1	0	2.46	1	224.95636312	225.125920831997	"7"	34802.923809965	34716.901214509	1.5	0.1
0.01	1	0.127850210999895	1	87	254.647496869999	NA	1	0	2.46	1	225.357024692996	225.484874903996	"7"	34802.923809965	34716.901214509	1.5	0.1
0.01	1	0.161764710996067	1	87	254.647496869999	NA	1	0	2.46	1	225.707584894997	225.869349605993	"7"	34802.923809965	34716.901214509	1.5	0.1
0.01	1	0.176982910001243	1	87	254.647496869999	NA	1	0	2.46	1	226.091581616995	226.268564526996	"7"	34802.923809965	34716.901214509	1.5	0.1
0.01	1	0.186258775000169	1	87	254.647496869999	NA	1	0	2.46	1	226.492375611997	226.678634386997	"7"	34802.923809965	34716.901214509	1.5	0.1
0.01	1	0.23203296399879	1	87	254.647496869999	NA	1	0	2.46	1	226.909594029996	227.141626993995	"7"	34802.923809965	34716.901214509	1.5	0.1
0.01	1	0.195503925002413	1	87	254.647496869999	NA	1	0	2.46	1	227.377056658996	227.572560583998	"7"	34802.923809965	34716.901214509	1.5	0.1
0.01	1	0.248824768001214	1	87	254.647496869999	NA	1	0	2.46	1	227.811253987995	228.060078755996	"7"	34802.923809965	34716.901214509	1.5	0.1
0.01	1	0.231165268000041	1	87	254.647496869999	NA	1	0	2.46	1	228.295321564998	228.526486832998	"7"	34802.923809965	34716.901214509	1.5	0.1
0.01	1	0.179037558002165	1	87	254.647496869999	NA	1	0	2.46	1	228.762896770997	228.941934328999	"7"	34802.923809965	34716.901214509	1.5	0.1
0.01	1	0.248533158002829	1	87	254.647496869999	NA	1	0	2.46	1	229.180135011993	229.428668169996	"7"	34802.923809965	34716.901214509	1.5	0.1
0.01	1	0.205735486997582	1	87	254.647496869999	NA	1	0	2.46	1	229.664245663997	229.869981150994	"7"	34802.923809965	34716.901214509	1.5	0.1
0.01	1	0.235383794999507	1	87	254.647496869999	NA	1	0	2.46	1	230.098348547996	230.333732342995	"7"	34802.923809965	34716.901214509	1.5	0.1
0.01	1	0.214963660000649	1	87	254.647496869999	NA	1	0	2.46	1	230.565728212998	230.780691872998	"7"	34802.923809965	34716.901214509	1.5	0.1
0.01	1	0.275577000000339	1	87	254.647496869999	NA	1	0	2.46	1	231.016497899996	231.292074899997	"7"	34802.923809965	34716.901214509	1.5	0.1
0.01	1	0.232443335000426	1	87	254.647496869999	NA	1	0	2.46	1	231.517381697995	231.749825032995	"7"	34802.923809965	34716.901214509	1.5	0.1
0.01	1	0.268767838999338	1	87	254.647496869999	NA	1	0	2.46	1	231.984901724994	232.253669563994	"7"	34802.923809965	34716.901214509	1.5	0.1
0.01	1	1.13581594800053	1	87	254.647496869999	NA	1	0	2.46	1	232.485695017996	233.621510965997	"7"	34802.923809965	34716.901214509	1.5	0.1
0.01	1	0.278526797999803	1	87	254.647496869999	NA	1	0	2.46	1	233.854601624	234.133128422	"7"	34802.923809965	34716.901214509	1.5	0.1
0.01	1	0.305531427999085	1	87	254.647496869999	NA	1	0	2.46	1	234.355450821997	234.660982249996	"7"	34802.923809965	34716.901214509	1.5	0.1
0.01	1	0.308586053994077	1	87	254.647496869999	NA	1	0	2.46	1	234.889798775999	235.198384829993	"7"	34802.923809965	34716.901214509	1.5	0.1
0.01	1	0.292503958000452	1	87	254.647496869999	NA	1	0	2.46	1	235.423968310999	235.716472268999	"7"	34802.923809965	34716.901214509	1.5	0.1
0.01	1	0.280346211999131	1	87	254.647496869999	NA	1	0	2.46	1	235.941519645996	236.221865857995	"7"	34802.923809965	34716.901214509	1.5	0.1
0.01	1	0.282677527997294	1	87	254.647496869999	NA	1	0	2.46	1	236.458979714997	236.741657242994	"7"	34802.923809965	34716.901214509	1.5	0.1
0.01	1	0.269749148996198	1	87	254.647496869999	NA	1	0	2.46	1	236.976618856999	237.246368005995	"7"	34802.923809965	34716.901214509	1.5	0.1
0.01	1	0.295766921000904	1	87	254.647496869999	NA	1	0	2.46	1	237.477450727994	237.773217648995	"7"	34802.923809965	34716.901214509	1.5	0.1
0.01	1	0.329485497997666	1	87	254.647496869999	NA	1	0	2.46	1	237.995014032	238.324499529997	"7"	34802.923809965	34716.901214509	1.5	0.1
0.01	1	0.274758253995969	1	87	254.647496869999	NA	1	0	2.46	1	238.562632752997	238.837391006993	"7"	34802.923809965	34716.901214509	1.5	0.1
0.01	1	0.357835546004935	1	87	254.647496869999	NA	1	0	2.46	1	239.063388302995	239.421223849	"7"	34802.923809965	34716.901214509	1.5	0.1
0.01	1	0.37296530900494	1	87	254.647496869999	NA	1	0	2.46	1	239.647894179994	240.020859488999	"7"	34802.923809965	34716.901214509	1.5	0.1
0.01	1	0.668365220997657	1	87	254.647496869999	NA	1	0	2.46	1	240.248792041995	240.917157262993	"7"	34802.923809965	34716.901214509	1.5	0.1
0.01	1	0.950275987001078	1	87	254.647496869999	NA	1	0	2.46	1	241.150262045994	242.100538032995	"7"	34802.923809965	34716.901214509	1.5	0.1
0.01	1	0.317207706000772	1	87	254.647496869999	NA	1	0	2.46	1	242.335535950995	242.652743656996	"7"	34802.923809965	34716.901214509	1.5	0.1
0.01	1	0.246554152996396	1	87	254.647496869999	NA	1	0	2.46	1	242.886530942997	243.133085095993	"7"	34802.923809965	34716.901214509	1.5	0.1
0.01	1	0.226574198997696	1	87	254.647496869999	NA	1	0	2.46	1	243.370663579997	243.597237778995	"7"	34802.923809965	34716.901214509	1.5	0.1
0.01	1	0.240040059004968	1	87	254.647496869999	NA	1	0	2.46	1	243.821439732994	244.061479791999	"7"	34802.923809965	34716.901214509	1.5	0.1
0.01	1	0.188282971001172	1	87	254.647496869999	NA	1	0	2.46	1	244.288921064996	244.477204035997	"7"	34802.923809965	34716.901214509	1.5	0.1
0.01	1	0.210904662999383	1	87	254.647496869999	NA	1	0	2.46	1	244.706255243	244.917159905999	"7"	34802.923809965	34716.901214509	1.5	0.1
0.01	1	0.72722292799881	1	87	254.647496869999	NA	1	0	2.46	1	245.157006235	245.884229162999	"7"	34802.923809965	34716.901214509	1.5	0.1
0.01	1	0.256225585995708	1	87	254.647496869999	NA	1	0	2.46	1	246.108641336999	246.364866922995	"7"	34802.923809965	34716.901214509	1.5	0.1
0.01	1	0.0918776820035418	1	87	254.647496869999	NA	1	0	2.46	1	246.592700785994	246.684578467997	"7"	34802.923809965	34716.901214509	1.5	0.1
0.01	1	0.479611429000215	1	87	254.647496869999	NA	1	0	2.46	1	246.909940662998	247.389552091998	"7"	34802.923809965	34716.901214509	1.5	0.1
0.01	1	0.00232089999917662	1	87	254.647496869999	NA	1	0	2.46	1	247.611140656998	247.613461556997	"7"	34802.923809965	34716.901214509	1.5	0.1
0.01	1	0.407809213000291	1	87	254.647496869999	NA	1	0	2.46	1	247.844922213997	248.252731426997	"7"	34802.923809965	34716.901214509	1.5	0.1
0.01	1	0.00222146700252779	1	87	254.647496869999	NA	1	0	2.46	1	248.479274285994	248.481495752996	"7"	34802.923809965	34716.901214509	1.5	0.1
0.01	1	0.419749184999091	1	87	254.647496869999	NA	1	0	2.46	1	248.712969574997	249.132718759996	"7"	34802.923809965	34716.901214509	1.5	0.1
0.01	1	0.583924897997349	1	87	254.647496869999	NA	1	0	2.46	1	249.364128121997	249.948053019994	"7"	34802.923809965	34716.901214509	1.5	0.1
0.01	1	0.40615116799745	1	87	254.647496869999	NA	1	0	2.46	1	250.182078737998	250.588229905996	"7"	34802.923809965	34716.901214509	1.5	0.1
0.01	1	0.733239663000859	1	87	254.647496869999	NA	1	0	2.46	1	250.816549243995	251.549788906996	"7"	34802.923809965	34716.901214509	1.5	0.1
0.01	1	0.622989534997032	1	87	254.647496869999	NA	1	0	2.46	1	251.7847845	252.407774034997	"7"	34802.923809965	34716.901214509	1.5	0.1
0.01	1	0.0403083779965527	1	87	254.647496869999	NA	1	0	2.46	1	252.636239667998	252.676548045994	"7"	34802.923809965	34716.901214509	1.5	0.1
0.01	1	0.566002220999508	1	87	254.647496869999	NA	1	0	2.46	1	252.903376087997	253.469378308997	"7"	34802.923809965	34716.901214509	1.5	0.1
0.01	1	0.0359496070013847	1	87	254.647496869999	NA	1	0	2.46	1	253.704732505998	253.740682112999	"7"	34802.923809965	34716.901214509	1.5	0.1
0.01	1	0.312647637001646	1	87	254.647496869999	NA	1	0	2.46	1	253.971835025994	254.284482662995	"7"	34802.923809965	34716.901214509	1.5	0.1
0.01	1	0.00223771599848988	1	87	254.647496869999	NA	1	0	2.46	1	254.506036412997	254.508274128995	"7"	34802.923809965	34716.901214509	1.5	0.1
0.01	1	0.576888478004548	1	6	258.581217256993	NA	1	0	2.46	1	256.693104064994	257.269992542999	"8"	34802.923809965	34716.901214509	1.5	0.1
0.01	1	0.00252518699562643	1	6	258.581217256993	NA	1	0	2.46	1	257.494377026	257.496902212995	"8"	34802.923809965	34716.901214509	1.5	0.1
0.01	1	0.0439759769942611	1	6	258.581217256993	NA	1	0	2.46	1	257.728147823	257.772123799994	"8"	34802.923809965	34716.901214509	1.5	0.1
0.01	1	0.00216859800275415	1	6	258.581217256993	NA	1	0	2.46	1	257.995297162997	257.997465761	"8"	34802.923809965	34716.901214509	1.5	0.1
0.01	1	0.00219763000495732	1	6	258.581217256993	NA	1	0	2.46	1	258.229007022994	258.231204652999	"8"	34802.923809965	34716.901214509	1.5	0.1
0.01	1	0.00215426000067964	1	6	258.581217256993	NA	1	0	2.46	1	258.462714602996	258.464868862997	"8"	34802.923809965	34716.901214509	1.5	0.1
0.01	1	0.00342618000286166	1	106	NA	289.111760022999	0	0.52	2.98	1	260.616422877996	260.619849057999	"9"	34802.923809965	34716.901214509	1.5	0.1
0.01	1	0.251001561999146	1	106	NA	289.111760022999	0	0.52	2.98	1	260.850098227995	261.101099789994	"9"	34802.923809965	34716.901214509	1.5	0.1
0.01	1	0.33445711999957	1	106	NA	289.111760022999	0	0.52	2.98	1	261.334148622998	261.668605742998	"9"	34802.923809965	34716.901214509	1.5	0.1
0.01	1	0.431582018994959	1	106	NA	289.111760022999	0	0.52	2.98	1	261.901871401999	262.333453420993	"9"	34802.923809965	34716.901214509	1.5	0.1
0.01	1	0.338150335002865	1	106	NA	289.111760022999	0	0.52	2.98	1	262.569678123997	262.907828459	"9"	34802.923809965	34716.901214509	1.5	0.1
0.01	1	0.301795765000861	1	106	NA	289.111760022999	0	0.52	2.98	1	263.137303380994	263.439099145995	"9"	34802.923809965	34716.901214509	1.5	0.1
0.01	1	0.301243219997559	1	106	NA	289.111760022999	0	0.52	2.98	1	263.671478985998	263.972722205996	"9"	34802.923809965	34716.901214509	1.5	0.1
0.01	1	0.358435690999613	1	106	NA	289.111760022999	0	0.52	2.98	1	264.205731073998	264.564166764998	"9"	34802.923809965	34716.901214509	1.5	0.1
0.01	1	0.350247920003312	1	106	NA	289.111760022999	0	0.52	2.98	1	264.790102960993	265.140350880996	"9"	34802.923809965	34716.901214509	1.5	0.1
0.01	1	0.311291876998439	1	106	NA	289.111760022999	0	0.52	2.98	1	265.374344619995	265.685636496994	"9"	34802.923809965	34716.901214509	1.5	0.1
0.01	1	0.440715044998797	1	106	NA	289.111760022999	0	0.52	2.98	1	265.908516598	266.349231642998	"9"	34802.923809965	34716.901214509	1.5	0.1
0.01	1	0.420402780000586	1	106	NA	289.111760022999	0	0.52	2.98	1	266.576333855999	266.996736636	"9"	34802.923809965	34716.901214509	1.5	0.1
0.01	1	0.393045215998427	1	106	NA	289.111760022999	0	0.52	2.98	1	267.227482712995	267.620527928993	"9"	34802.923809965	34716.901214509	1.5	0.1
0.01	1	0.352117943999474	1	106	NA	289.111760022999	0	0.52	2.98	1	267.845159407996	268.197277351996	"9"	34802.923809965	34716.901214509	1.5	0.1
0.01	1	0.367621533005149	1	106	NA	289.111760022999	0	0.52	2.98	1	268.429462864995	268.797084398	"9"	34802.923809965	34716.901214509	1.5	0.1
0.01	1	0.310211576004804	1	106	NA	289.111760022999	0	0.52	2.98	1	269.030519012995	269.340730589	"9"	34802.923809965	34716.901214509	1.5	0.1
0.01	1	0.343902473003254	1	106	NA	289.111760022999	0	0.52	2.98	1	269.564669764994	269.908572237997	"9"	34802.923809965	34716.901214509	1.5	0.1
0.01	1	0.35997540000244	1	106	NA	289.111760022999	0	0.52	2.98	1	270.149004863997	270.508980264	"9"	34802.923809965	34716.901214509	1.5	0.1
0.01	1	0.336406554997666	1	106	NA	289.111760022999	0	0.52	2.98	1	270.733409588	271.069816142997	"9"	34802.923809965	34716.901214509	1.5	0.1
0.01	1	0.304471114999615	1	106	NA	289.111760022999	0	0.52	2.98	1	271.300920245994	271.605391360994	"9"	34802.923809965	34716.901214509	1.5	0.1
0.01	1	0.322731339001621	1	106	NA	289.111760022999	0	0.52	2.98	1	271.835183990996	272.157915329997	"9"	34802.923809965	34716.901214509	1.5	0.1
0.01	1	0.5877021050037	1	106	NA	289.111760022999	0	0.52	2.98	1	272.386183480994	272.973885585998	"9"	34802.923809965	34716.901214509	1.5	0.1
0.01	1	0.344787656002154	1	106	NA	289.111760022999	0	0.52	2.98	1	273.204188207994	273.548975863996	"9"	34802.923809965	34716.901214509	1.5	0.1
0.01	1	0.336285873003362	1	106	NA	289.111760022999	0	0.52	2.98	1	273.771839958994	274.108125831997	"9"	34802.923809965	34716.901214509	1.5	0.1
0.01	1	0.305083906998334	1	106	NA	289.111760022999	0	0.52	2.98	1	274.339380842997	274.644464749996	"9"	34802.923809965	34716.901214509	1.5	0.1
0.01	1	0.274429133998638	1	106	NA	289.111760022999	0	0.52	2.98	1	274.873676757998	275.148105891996	"9"	34802.923809965	34716.901214509	1.5	0.1
0.01	1	0.342004785001336	1	106	NA	289.111760022999	0	0.52	2.98	1	275.374442780994	275.716447565996	"9"	34802.923809965	34716.901214509	1.5	0.1
0.01	1	0.36655036299635	1	106	NA	289.111760022999	0	0.52	2.98	1	275.958857619997	276.325407982993	"9"	34802.923809965	34716.901214509	1.5	0.1
0.01	1	0.309381018996646	1	106	NA	289.111760022999	0	0.52	2.98	1	276.559796504	276.869177522996	"9"	34802.923809965	34716.901214509	1.5	0.1
0.01	1	0.398327463000896	1	106	NA	289.111760022999	0	0.52	2.98	1	277.094033639994	277.492361102995	"9"	34802.923809965	34716.901214509	1.5	0.1
0.01	1	0.523479839001084	1	106	NA	289.111760022999	0	0.52	2.98	1	277.728456373996	278.251936212997	"9"	34802.923809965	34716.901214509	1.5	0.1
0.01	1	0.404393729004369	1	106	NA	289.111760022999	0	0.52	2.98	1	278.479648427994	278.884042156998	"9"	34802.923809965	34716.901214509	1.5	0.1
0.01	1	0.40284294400044	1	106	NA	289.111760022999	0	0.52	2.98	1	279.114173491995	279.517016435995	"9"	34802.923809965	34716.901214509	1.5	0.1
0.01	1	0.328464660000463	1	106	NA	289.111760022999	0	0.52	2.98	1	279.748529575998	280.076994235998	"9"	34802.923809965	34716.901214509	1.5	0.1
0.01	1	0.498251438002626	1	106	NA	289.111760022999	0	0.52	2.98	1	280.299413055996	280.797664493999	"9"	34802.923809965	34716.901214509	1.5	0.1
0.01	1	0.628018741997948	1	106	NA	289.111760022999	0	0.52	2.98	1	281.034132642999	281.662151384997	"9"	34802.923809965	34716.901214509	1.5	0.1
0.01	1	0.43216720700002	1	106	NA	289.111760022999	0	0.52	2.98	1	281.885496922994	282.317664129994	"9"	34802.923809965	34716.901214509	1.5	0.1
0.01	1	0.451061783001933	1	106	NA	289.111760022999	0	0.52	2.98	1	282.553276119994	283.004337902996	"9"	34802.923809965	34716.901214509	1.5	0.1
0.01	1	0.287094578001415	1	106	NA	289.111760022999	0	0.52	2.98	1	283.237764427999	283.524859006	"9"	34802.923809965	34716.901214509	1.5	0.1
0.01	1	0.0976756559975911	1	106	NA	289.111760022999	0	0.52	2.98	1	283.755399032998	283.853074688996	"9"	34802.923809965	34716.901214509	1.5	0.1
0.01	1	0.604583960004675	1	106	NA	289.111760022999	0	0.52	2.98	1	284.089222437993	284.693806397998	"9"	34802.923809965	34716.901214509	1.5	0.1
0.01	1	0.0897514940006658	1	106	NA	289.111760022999	0	0.52	2.98	1	284.923908889999	285.013660384	"9"	34802.923809965	34716.901214509	1.5	0.1
0.01	1	0.0832796470058383	1	106	NA	289.111760022999	0	0.52	2.98	1	285.241182522994	285.32446217	"9"	34802.923809965	34716.901214509	1.5	0.1
0.01	1	0.0876278249997995	1	106	NA	289.111760022999	0	0.52	2.98	1	285.558319657997	285.645947482997	"9"	34802.923809965	34716.901214509	1.5	0.1
0.01	1	0.0899715469931834	1	106	NA	289.111760022999	0	0.52	2.98	1	285.875399883	285.965371429993	"9"	34802.923809965	34716.901214509	1.5	0.1
0.01	1	0.0773886759998277	1	106	NA	289.111760022999	0	0.52	2.98	1	286.192665835995	286.270054511995	"9"	34802.923809965	34716.901214509	1.5	0.1
0.01	1	0.136228818999371	1	106	NA	289.111760022999	0	0.52	2.98	1	286.493279404996	286.629508223996	"9"	34802.923809965	34716.901214509	1.5	0.1
0.01	1	0.129247008000675	1	106	NA	289.111760022999	0	0.52	2.98	1	286.860517523994	286.989764531994	"9"	34802.923809965	34716.901214509	1.5	0.1
0.01	1	0.122544135992939	1	106	NA	289.111760022999	0	0.52	2.98	1	287.211042666	287.333586801993	"9"	34802.923809965	34716.901214509	1.5	0.1
0.01	1	0.0996992919972399	1	106	NA	289.111760022999	0	0.52	2.98	1	287.561696899997	287.661396191994	"9"	34802.923809965	34716.901214509	1.5	0.1
0.01	1	0.414056178000465	1	106	NA	289.111760022999	0	0.52	2.98	1	287.895593584995	288.309649762996	"9"	34802.923809965	34716.901214509	1.5	0.1
0.01	1	0.0897194110002602	1	106	NA	289.111760022999	0	0.52	2.98	1	288.546731450995	288.636450861995	"9"	34802.923809965	34716.901214509	1.5	0.1
0.01	1	0.24606755500281	2	106	NA	289.111760022999	0	0.52	2.98	1	288.863953267995	289.110020822998	"9"	34802.923809965	34716.901214509	1.5	0.1
0.01	1	1.26944172799995	1	21	299.568086847998	NA	1	0	2.98	1	291.150985800996	292.420427528996	"10"	34802.923809965	34716.901214509	1.5	0.1
0.01	1	0.368296307999117	1	21	299.568086847998	NA	1	0	2.98	1	292.653608189998	293.021904497997	"10"	34802.923809965	34716.901214509	1.5	0.1
0.01	1	0.151108851001482	1	21	299.568086847998	NA	1	0	2.98	1	293.254588911994	293.405697762995	"10"	34802.923809965	34716.901214509	1.5	0.1
0.01	1	0.118198135998682	1	21	299.568086847998	NA	1	0	2.98	1	293.638534952996	293.756733088994	"10"	34802.923809965	34716.901214509	1.5	0.1
0.01	1	0.168255653996312	1	21	299.568086847998	NA	1	0	2.98	1	293.989260162998	294.157515816994	"10"	34802.923809965	34716.901214509	1.5	0.1
0.01	1	0.135934174002614	1	21	299.568086847998	NA	1	0	2.98	1	294.389815015995	294.525749189997	"10"	34802.923809965	34716.901214509	1.5	0.1
0.01	1	0.159540994005511	1	21	299.568086847998	NA	1	0	2.98	1	294.757029377994	294.916570371999	"10"	34802.923809965	34716.901214509	1.5	0.1
0.01	1	0.104982279000978	1	21	299.568086847998	NA	1	0	2.98	1	295.141001313998	295.245983592999	"10"	34802.923809965	34716.901214509	1.5	0.1
0.01	1	0.0740756020022673	1	21	299.568086847998	NA	1	0	2.98	1	295.475072777997	295.54914838	"10"	34802.923809965	34716.901214509	1.5	0.1
0.01	1	0.0924916410003789	1	21	299.568086847998	NA	1	0	2.98	1	295.775562922994	295.868054563995	"10"	34802.923809965	34716.901214509	1.5	0.1
0.01	1	0.111573946000135	1	21	299.568086847998	NA	1	0	2.98	1	296.092786725996	296.204360671996	"10"	34802.923809965	34716.901214509	1.5	0.1
0.01	1	0.0904642069945112	1	21	299.568086847998	NA	1	0	2.98	1	296.426610294999	296.517074501993	"10"	34802.923809965	34716.901214509	1.5	0.1
0.01	1	0.110150453998358	1	21	299.568086847998	NA	1	0	2.98	1	296.743803772995	296.853954226994	"10"	34802.923809965	34716.901214509	1.5	0.1
0.01	1	0.0628613039953052	1	21	299.568086847998	NA	1	0	2.98	1	297.077929248	297.140790551995	"10"	34802.923809965	34716.901214509	1.5	0.1
0.01	1	0.0832279850001214	1	21	299.568086847998	NA	1	0	2.98	1	297.378150567994	297.461378552995	"10"	34802.923809965	34716.901214509	1.5	0.1
0.01	1	0.100891718997445	1	21	299.568086847998	NA	1	0	2.98	1	297.695466086996	297.796357805993	"10"	34802.923809965	34716.901214509	1.5	0.1
0.01	1	0.0956223889952525	1	21	299.568086847998	NA	1	0	2.98	1	298.029233907	298.124856295995	"10"	34802.923809965	34716.901214509	1.5	0.1
0.01	1	0.0654873239982408	1	21	299.568086847998	NA	1	0	2.98	1	298.363093262	298.428580585998	"10"	34802.923809965	34716.901214509	1.5	0.1
0.01	1	0.108824943003128	1	21	299.568086847998	NA	1	0	2.98	1	298.663668632995	298.772493575998	"10"	34802.923809965	34716.901214509	1.5	0.1
0.01	1	0.103068711003289	1	21	299.568086847998	NA	1	0	2.98	1	298.997737392994	299.100806103997	"10"	34802.923809965	34716.901214509	1.5	0.1
0.01	1	0.128730477001227	1	21	299.568086847998	NA	1	0	2.98	1	299.331392631997	299.460123108998	"10"	34802.923809965	34716.901214509	1.5	0.1
0.01	1	0.00203337299899431	1	19	309.266387308999	NA	1	0	2.98	1	301.602003533997	301.604036906996	"11"	34802.923809965	34716.901214509	1.5	0.1
0.01	1	0.106080907993601	1	19	309.266387308999	NA	1	0	2.98	1	301.835642127	301.941723034994	"11"	34802.923809965	34716.901214509	1.5	0.1
0.01	1	0.116002285998547	1	19	309.266387308999	NA	1	0	2.98	1	302.169583046998	302.285585332997	"11"	34802.923809965	34716.901214509	1.5	0.1
0.01	1	0.0925242739976966	1	19	309.266387308999	NA	1	0	2.98	1	302.520195284	302.612719557997	"11"	34802.923809965	34716.901214509	1.5	0.1
0.01	1	0.113463011999556	1	19	309.266387308999	NA	1	0	2.98	1	302.837517307998	302.950980319998	"11"	34802.923809965	34716.901214509	1.5	0.1
0.01	1	0.0967202730025747	1	19	309.266387308999	NA	1	0	2.98	1	303.187926266997	303.28464654	"11"	34802.923809965	34716.901214509	1.5	0.1
0.01	1	0.106642003003799	1	19	309.266387308999	NA	1	0	2.98	1	303.521811912993	303.628453915997	"11"	34802.923809965	34716.901214509	1.5	0.1
0.01	1	0.125961719997576	1	19	309.266387308999	NA	1	0	2.98	1	303.855782546998	303.981744266996	"11"	34802.923809965	34716.901214509	1.5	0.1
0.01	1	0.136937782997848	1	19	309.266387308999	NA	1	0	2.98	1	304.206313112998	304.343250895996	"11"	34802.923809965	34716.901214509	1.5	0.1
0.01	1	0.143550609005615	1	19	309.266387308999	NA	1	0	2.98	1	304.573540285994	304.717090894999	"11"	34802.923809965	34716.901214509	1.5	0.1
0.01	1	0.199606271999073	1	19	309.266387308999	NA	1	0	2.98	1	304.957614432999	305.157220704998	"11"	34802.923809965	34716.901214509	1.5	0.1
0.01	1	0.190468198001327	1	19	309.266387308999	NA	1	0	2.98	1	305.391687043993	305.582155241995	"11"	34802.923809965	34716.901214509	1.5	0.1
0.01	1	0.276276317003067	1	19	309.266387308999	NA	1	0	2.98	1	305.809033849997	306.085310167	"11"	34802.923809965	34716.901214509	1.5	0.1
0.01	1	0.311196150003525	1	19	309.266387308999	NA	1	0	2.98	1	306.309906247996	306.621102397999	"11"	34802.923809965	34716.901214509	1.5	0.1
0.01	1	0.28865655700065	1	19	309.266387308999	NA	1	0	2.98	1	306.844182465997	307.132839022997	"11"	34802.923809965	34716.901214509	1.5	0.1
0.01	1	0.251804539002478	1	19	309.266387308999	NA	1	0	2.98	1	307.361577860996	307.613382399999	"11"	34802.923809965	34716.901214509	1.5	0.1
0.01	1	0.263502148001862	1	19	309.266387308999	NA	1	0	2.98	1	307.845818309994	308.109320457996	"11"	34802.923809965	34716.901214509	1.5	0.1
0.01	1	0.266357966000214	1	19	309.266387308999	NA	1	0	2.98	1	308.346658719995	308.613016685995	"11"	34802.923809965	34716.901214509	1.5	0.1
0.01	1	0.302230279994546	1	19	309.266387308999	NA	1	0	2.98	1	308.847401476	309.149631755994	"11"	34802.923809965	34716.901214509	1.5	0.1
0.01	1	0.397861015000672	1	63	NA	326.063165499996	0	0.28	3.26	1	311.318336924996	311.716197939997	"12"	34802.923809965	34716.901214509	1.5	0.1
0.01	1	0.0443437580033788	1	63	NA	326.063165499996	0	0.28	3.26	1	311.952650625994	311.996994383997	"12"	34802.923809965	34716.901214509	1.5	0.1
0.01	1	0.0493974609998986	1	63	NA	326.063165499996	0	0.28	3.26	1	312.219963967	312.269361428	"12"	34802.923809965	34716.901214509	1.5	0.1
0.01	1	0.0463090279954486	1	63	NA	326.063165499996	0	0.28	3.26	1	312.503648992999	312.549958020994	"12"	34802.923809965	34716.901214509	1.5	0.1
0.01	1	0.0501117890016758	1	63	NA	326.063165499996	0	0.28	3.26	1	312.787559247998	312.837671036999	"12"	34802.923809965	34716.901214509	1.5	0.1
0.01	1	0.0453299110013177	1	63	NA	326.063165499996	0	0.28	3.26	1	313.071180283994	313.116510194995	"12"	34802.923809965	34716.901214509	1.5	0.1
0.01	1	0.0594663929950912	1	63	NA	326.063165499996	0	0.28	3.26	1	313.338477172998	313.397943565993	"12"	34802.923809965	34716.901214509	1.5	0.1
0.01	1	0.0301398459996562	1	63	NA	326.063165499996	0	0.28	3.26	1	313.622257972995	313.652397818994	"12"	34802.923809965	34716.901214509	1.5	0.1
0.01	1	0.0428871339972829	1	63	NA	326.063165499996	0	0.28	3.26	1	313.889337203	313.932224336997	"12"	34802.923809965	34716.901214509	1.5	0.1
0.01	1	0.0815223440004047	1	63	NA	326.063165499996	0	0.28	3.26	1	314.156361975998	314.237884319999	"12"	34802.923809965	34716.901214509	1.5	0.1
0.01	1	0.451633709002635	1	63	NA	326.063165499996	0	0.28	3.26	1	314.473616191994	314.925249900996	"12"	34802.923809965	34716.901214509	1.5	0.1
0.01	1	0.0860917399986647	1	63	NA	326.063165499996	0	0.28	3.26	1	315.157999607	315.244091346998	"12"	34802.923809965	34716.901214509	1.5	0.1
0.01	1	0.0663758869995945	1	63	NA	326.063165499996	0	0.28	3.26	1	315.475384961996	315.541760848995	"12"	34802.923809965	34716.901214509	1.5	0.1
0.01	1	0.0293977060064208	1	63	NA	326.063165499996	0	0.28	3.26	1	315.775791468994	315.805189175	"12"	34802.923809965	34716.901214509	1.5	0.1
0.01	1	0.0509445950010559	1	63	NA	326.063165499996	0	0.28	3.26	1	316.042904422997	316.093849017998	"12"	34802.923809965	34716.901214509	1.5	0.1
0.01	1	0.0534574670018628	1	63	NA	326.063165499996	0	0.28	3.26	1	316.326765918995	316.380223385997	"12"	34802.923809965	34716.901214509	1.5	0.1
0.01	1	0.0673254529974656	1	63	NA	326.063165499996	0	0.28	3.26	1	316.610515449996	316.677840902994	"12"	34802.923809965	34716.901214509	1.5	0.1
0.01	1	1.01472841700161	1	63	NA	326.063165499996	0	0.28	3.26	1	316.911038305996	317.925766722998	"12"	34802.923809965	34716.901214509	1.5	0.1
0.01	1	0.137061474997608	1	63	NA	326.063165499996	0	0.28	3.26	1	318.163087595996	318.300149070994	"12"	34802.923809965	34716.901214509	1.5	0.1
0.01	1	0.314892155998677	1	63	NA	326.063165499996	0	0.28	3.26	1	318.530395137997	318.845287293996	"12"	34802.923809965	34716.901214509	1.5	0.1
0.01	1	0.4998703559977	1	63	NA	326.063165499996	0	0.28	3.26	1	319.081413029999	319.581283385996	"12"	34802.923809965	34716.901214509	1.5	0.1
0.01	1	0.398348252994765	1	63	NA	326.063165499996	0	0.28	3.26	1	319.815912967999	320.214261220994	"12"	34802.923809965	34716.901214509	1.5	0.1
0.01	1	0.435182717003045	1	63	NA	326.063165499996	0	0.28	3.26	1	320.450373714993	320.885556431997	"12"	34802.923809965	34716.901214509	1.5	0.1
0.01	1	0.405994642002042	1	63	NA	326.063165499996	0	0.28	3.26	1	321.118039652996	321.524034294998	"12"	34802.923809965	34716.901214509	1.5	0.1
0.01	1	0.88564423200296	1	63	NA	326.063165499996	0	0.28	3.26	1	321.752488702994	322.638132934997	"12"	34802.923809965	34716.901214509	1.5	0.1
0.01	1	0.830011717000161	1	63	NA	326.063165499996	0	0.28	3.26	1	322.871124635996	323.701136352996	"12"	34802.923809965	34716.901214509	1.5	0.1
0.01	1	0.698263534999569	1	63	NA	326.063165499996	0	0.28	3.26	1	323.922864057997	324.621127592996	"12"	34802.923809965	34716.901214509	1.5	0.1
0.01	1	0.452961515002244	1	63	NA	326.063165499996	0	0.28	3.26	1	324.857692476995	325.310653991997	"12"	34802.923809965	34716.901214509	1.5	0.1
0.01	1	0.519351650000317	2	63	NA	326.063165499996	0	0.28	3.26	1	325.542241969997	326.061593619997	"12"	34802.923809965	34716.901214509	1.5	0.1
0.01	1	0.548890803001996	1	54	357.096667264996	NA	1	0	3.26	1	328.113299052995	328.662189855997	"13"	34802.923809965	34716.901214509	1.5	0.1
0.01	1	0.0749682780005969	1	54	357.096667264996	NA	1	0	3.26	1	328.897870034998	328.972838312999	"13"	34802.923809965	34716.901214509	1.5	0.1
0.01	1	0.0862347239963128	1	54	357.096667264996	NA	1	0	3.26	1	329.198306482998	329.284541206995	"13"	34802.923809965	34716.901214509	1.5	0.1
0.01	1	0.0724732920061797	1	54	357.096667264996	NA	1	0	3.26	1	329.515527173993	329.588000465999	"13"	34802.923809965	34716.901214509	1.5	0.1
0.01	1	0.0702201150052133	1	54	357.096667264996	NA	1	0	3.26	1	329.816096257993	329.886316372998	"13"	34802.923809965	34716.901214509	1.5	0.1
0.01	1	0.0573905479977839	1	54	357.096667264996	NA	1	0	3.26	1	330.116596348998	330.173986896996	"13"	34802.923809965	34716.901214509	1.5	0.1
0.01	1	0.0922449339996092	1	54	357.096667264996	NA	1	0	3.26	1	330.400440448997	330.492685382997	"13"	34802.923809965	34716.901214509	1.5	0.1
0.01	1	0.0711832099987078	1	54	357.096667264996	NA	1	0	3.26	1	330.717553912997	330.788737122995	"13"	34802.923809965	34716.901214509	1.5	0.1
0.01	1	0.0659716239970294	1	54	357.096667264996	NA	1	0	3.26	1	331.018025562	331.083997185997	"13"	34802.923809965	34716.901214509	1.5	0.1
0.01	1	0.0626938009954756	1	54	357.096667264996	NA	1	0	3.26	1	331.318580940999	331.381274741994	"13"	34802.923809965	34716.901214509	1.5	0.1
0.01	1	0.0829105869997875	1	54	357.096667264996	NA	1	0	3.26	1	331.619125776	331.702036363	"13"	34802.923809965	34716.901214509	1.5	0.1
0.01	1	0.0784693089954089	1	54	357.096667264996	NA	1	0	3.26	1	331.936228222999	332.014697531995	"13"	34802.923809965	34716.901214509	1.5	0.1
0.01	1	0.119474062004883	1	54	357.096667264996	NA	1	0	3.26	1	332.236844235995	332.356318298	"13"	34802.923809965	34716.901214509	1.5	0.1
0.01	1	0.14581126900157	1	54	357.096667264996	NA	1	0	3.26	1	332.587408691994	332.733219960995	"13"	34802.923809965	34716.901214509	1.5	0.1
0.01	1	0.138826721995429	1	54	357.096667264996	NA	1	0	3.26	1	332.954803428998	333.093630150994	"13"	34802.923809965	34716.901214509	1.5	0.1
0.01	1	0.107392436002556	1	54	357.096667264996	NA	1	0	3.26	1	333.321952307997	333.429344744	"13"	34802.923809965	34716.901214509	1.5	0.1
0.01	1	0.132497767001041	1	54	357.096667264996	NA	1	0	3.26	1	333.655816178994	333.788313945995	"13"	34802.923809965	34716.901214509	1.5	0.1
0.01	1	0.271077935001813	1	54	357.096667264996	NA	1	0	3.26	1	334.023065826994	334.294143761996	"13"	34802.923809965	34716.901214509	1.5	0.1
0.01	1	0.234012995999365	1	54	357.096667264996	NA	1	0	3.26	1	334.523915903999	334.757928899999	"13"	34802.923809965	34716.901214509	1.5	0.1
0.01	1	0.198298160001286	1	54	357.096667264996	NA	1	0	3.26	1	334.991446682994	335.189744842995	"13"	34802.923809965	34716.901214509	1.5	0.1
0.01	1	0.258676951998495	1	54	357.096667264996	NA	1	0	3.26	1	335.425445502995	335.684122454993	"13"	34802.923809965	34716.901214509	1.5	0.1
0.01	1	0.287828763997823	1	54	357.096667264996	NA	1	0	3.26	1	335.909627363995	336.197456127993	"13"	34802.923809965	34716.901214509	1.5	0.1
0.01	1	0.273694780997175	1	54	357.096667264996	NA	1	0	3.26	1	336.427211761998	336.700906542996	"13"	34802.923809965	34716.901214509	1.5	0.1
0.01	1	0.382184845999291	1	54	357.096667264996	NA	1	0	3.26	1	336.928095499999	337.310280345999	"13"	34802.923809965	34716.901214509	1.5	0.1
0.01	1	0.363001431003795	1	54	357.096667264996	NA	1	0	3.26	1	337.545722651994	337.908724082998	"13"	34802.923809965	34716.901214509	1.5	0.1
0.01	1	0.370146467001177	1	54	357.096667264996	NA	1	0	3.26	1	338.146747201994	338.516893668995	"13"	34802.923809965	34716.901214509	1.5	0.1
0.01	1	0.353840527001012	1	54	357.096667264996	NA	1	0	3.26	1	338.747778306999	339.101618834	"13"	34802.923809965	34716.901214509	1.5	0.1
0.01	1	0.39389652400132	1	54	357.096667264996	NA	1	0	3.26	1	339.332055027997	339.725951551998	"13"	34802.923809965	34716.901214509	1.5	0.1
0.01	1	0.33454687899939	1	54	357.096667264996	NA	1	0	3.26	1	339.949711853995	340.284258732994	"13"	34802.923809965	34716.901214509	1.5	0.1
0.01	1	0.336205111998424	1	54	357.096667264996	NA	1	0	3.26	1	340.517340835999	340.853545947997	"13"	34802.923809965	34716.901214509	1.5	0.1
0.01	1	0.344069758000842	1	54	357.096667264996	NA	1	0	3.26	1	341.085058302997	341.429128060998	"13"	34802.923809965	34716.901214509	1.5	0.1
0.01	1	0.352610038993589	1	54	357.096667264996	NA	1	0	3.26	1	341.652558813999	342.005168852993	"13"	34802.923809965	34716.901214509	1.5	0.1
0.01	1	0.297366815000714	1	54	357.096667264996	NA	1	0	3.26	1	342.236925787998	342.534292602999	"13"	34802.923809965	34716.901214509	1.5	0.1
0.01	1	0.385168756001804	1	54	357.096667264996	NA	1	0	3.26	1	342.771315895996	343.156484651998	"13"	34802.923809965	34716.901214509	1.5	0.1
0.01	1	0.360988724998606	1	54	357.096667264996	NA	1	0	3.26	1	343.388812186997	343.749800911995	"13"	34802.923809965	34716.901214509	1.5	0.1
0.01	1	0.398773788001563	1	54	357.096667264996	NA	1	0	3.26	1	343.989912326993	344.388686114995	"13"	34802.923809965	34716.901214509	1.5	0.1
0.01	1	0.373176329005219	1	54	357.096667264996	NA	1	0	3.26	1	344.624366180993	344.997542509998	"13"	34802.923809965	34716.901214509	1.5	0.1
0.01	1	0.355514820003009	1	54	357.096667264996	NA	1	0	3.26	1	345.225294106996	345.580808926999	"13"	34802.923809965	34716.901214509	1.5	0.1
0.01	1	0.324390364999999	1	54	357.096667264996	NA	1	0	3.26	1	345.809601169	346.133991534	"13"	34802.923809965	34716.901214509	1.5	0.1
0.01	1	0.349180311000964	1	54	357.096667264996	NA	1	0	3.26	1	346.360473037996	346.709653348997	"13"	34802.923809965	34716.901214509	1.5	0.1
0.01	1	0.364626258000499	1	54	357.096667264996	NA	1	0	3.26	1	346.944817942996	347.309444200997	"13"	34802.923809965	34716.901214509	1.5	0.1
0.01	1	0.338615336004295	1	54	357.096667264996	NA	1	0	3.26	1	347.545861265993	347.884476601997	"13"	34802.923809965	34716.901214509	1.5	0.1
0.01	1	0.404255688001285	1	54	357.096667264996	NA	1	0	3.26	1	348.113450912999	348.517706601	"13"	34802.923809965	34716.901214509	1.5	0.1
0.01	1	0.352880651997111	1	54	357.096667264996	NA	1	0	3.26	1	348.747922600996	349.100803252994	"13"	34802.923809965	34716.901214509	1.5	0.1
0.01	1	0.336144683999009	1	54	357.096667264996	NA	1	0	3.26	1	349.332226105995	349.668370789994	"13"	34802.923809965	34716.901214509	1.5	0.1
0.01	1	0.393900256000052	1	54	357.096667264996	NA	1	0	3.26	1	349.899797446997	350.293697702997	"13"	34802.923809965	34716.901214509	1.5	0.1
0.01	1	0.376392692996887	1	54	357.096667264996	NA	1	0	3.26	1	350.517551067998	350.893943760995	"13"	34802.923809965	34716.901214509	1.5	0.1
0.01	1	0.439082040997164	1	54	357.096667264996	NA	1	0	3.26	1	351.118537476999	351.557619517996	"13"	34802.923809965	34716.901214509	1.5	0.1
0.01	1	0.394443381999736	1	54	357.096667264996	NA	1	0	3.26	1	351.786373293995	352.180816675995	"13"	34802.923809965	34716.901214509	1.5	0.1
0.01	1	0.905428762998781	1	54	357.096667264996	NA	1	0	3.26	1	352.403987392994	353.309416155993	"13"	34802.923809965	34716.901214509	1.5	0.1
0.01	1	1.26543202899484	1	54	357.096667264996	NA	1	0	3.26	1	353.539361973999	354.804794002994	"13"	34802.923809965	34716.901214509	1.5	0.1
0.01	1	0.610256405001564	1	54	357.096667264996	NA	1	0	3.26	1	355.041926674996	355.652183079997	"13"	34802.923809965	34716.901214509	1.5	0.1
0.01	1	0.415607113995065	1	54	357.096667264996	NA	1	0	3.26	1	355.876562632999	356.292169746994	"13"	34802.923809965	34716.901214509	1.5	0.1
0.01	1	0.460694239001896	1	54	357.096667264996	NA	1	0	3.26	1	356.527670273994	356.988364512996	"13"	34802.923809965	34716.901214509	1.5	0.1
0.01	1	0.377069804999337	1	103	NA	372.726898396999	0	0.46	3.72	1	359.132074894995	359.509144699994	"14"	34802.923809965	34716.901214509	1.5	0.1
0.01	1	0.110926991997985	1	103	NA	372.726898396999	0	0.46	3.72	1	359.749773324998	359.860700316996	"14"	34802.923809965	34716.901214509	1.5	0.1
0.01	1	0.11421829900064	1	103	NA	372.726898396999	0	0.46	3.72	1	360.083655326998	360.197873625999	"14"	34802.923809965	34716.901214509	1.5	0.1
0.01	1	0.099217287999636	1	103	NA	372.726898396999	0	0.46	3.72	1	360.434171443994	360.533388731994	"14"	34802.923809965	34716.901214509	1.5	0.1
0.01	1	0.0855523950012866	1	103	NA	372.726898396999	0	0.46	3.72	1	360.768079877998	360.853632273	"14"	34802.923809965	34716.901214509	1.5	0.1
0.01	1	0.0479030279966537	1	103	NA	372.726898396999	0	0.46	3.72	1	361.085302861	361.133205888997	"14"	34802.923809965	34716.901214509	1.5	0.1
0.01	1	0.050873143998615	1	103	NA	372.726898396999	0	0.46	3.72	1	361.369169288999	361.420042432997	"14"	34802.923809965	34716.901214509	1.5	0.1
0.01	1	0.0260714390024077	1	103	NA	372.726898396999	0	0.46	3.72	1	361.652938964995	361.679010403997	"14"	34802.923809965	34716.901214509	1.5	0.1
0.01	1	0.0384144189956714	1	103	NA	372.726898396999	0	0.46	3.72	1	361.903372387998	361.941786806994	"14"	34802.923809965	34716.901214509	1.5	0.1
0.01	1	0.0355384150025202	1	103	NA	372.726898396999	0	0.46	3.72	1	362.170434985994	362.205973400996	"14"	34802.923809965	34716.901214509	1.5	0.1
0.01	1	0.062894951995986	1	103	NA	372.726898396999	0	0.46	3.72	1	362.437590586	362.500485537996	"14"	34802.923809965	34716.901214509	1.5	0.1
0.01	1	0.0191134179985966	1	103	NA	372.726898396999	0	0.46	3.72	1	362.738161684996	362.757275102995	"14"	34802.923809965	34716.901214509	1.5	0.1
0.01	1	0.0568942530007917	1	103	NA	372.726898396999	0	0.46	3.72	1	362.988546049994	363.045440302994	"14"	34802.923809965	34716.901214509	1.5	0.1
0.01	1	0.028876112002763	1	103	NA	372.726898396999	0	0.46	3.72	1	363.272316300994	363.301192412997	"14"	34802.923809965	34716.901214509	1.5	0.1
0.01	1	0.0424199929984752	1	103	NA	372.726898396999	0	0.46	3.72	1	363.539416652995	363.581836645993	"14"	34802.923809965	34716.901214509	1.5	0.1
0.01	1	0.0399331189983059	1	103	NA	372.726898396999	0	0.46	3.72	1	363.806575083996	363.846508202994	"14"	34802.923809965	34716.901214509	1.5	0.1
0.01	1	0.0507080630050041	1	103	NA	372.726898396999	0	0.46	3.72	1	364.073653652995	364.124361716	"14"	34802.923809965	34716.901214509	1.5	0.1
0.01	1	0.030415205997997	1	103	NA	372.726898396999	0	0.46	3.72	1	364.357503209998	364.387918415996	"14"	34802.923809965	34716.901214509	1.5	0.1
0.01	1	0.0369482669993886	1	103	NA	372.726898396999	0	0.46	3.72	1	364.624538949	364.661487215999	"14"	34802.923809965	34716.901214509	1.5	0.1
0.01	1	0.0175756250027916	1	103	NA	372.726898396999	0	0.46	3.72	1	364.891841389996	364.909417014998	"14"	34802.923809965	34716.901214509	1.5	0.1
0.01	1	0.0408887630037498	1	103	NA	372.726898396999	0	0.46	3.72	1	365.142066769993	365.182955532997	"14"	34802.923809965	34716.901214509	1.5	0.1
0.01	1	0.0437532840005588	1	103	NA	372.726898396999	0	0.46	3.72	1	365.409255287996	365.453008571996	"14"	34802.923809965	34716.901214509	1.5	0.1
0.01	1	0.0642085840008804	1	103	NA	372.726898396999	0	0.46	3.72	1	365.693191676997	365.757400260998	"14"	34802.923809965	34716.901214509	1.5	0.1
0.01	1	0.0188832509957138	1	103	NA	372.726898396999	0	0.46	3.72	1	365.993559939998	366.012443190994	"14"	34802.923809965	34716.901214509	1.5	0.1
0.01	1	0.0431535790048656	1	103	NA	372.726898396999	0	0.46	3.72	1	366.243931244993	366.287084823998	"14"	34802.923809965	34716.901214509	1.5	0.1
0.01	1	0.0473779070016462	1	103	NA	372.726898396999	0	0.46	3.72	1	366.511139752998	366.55851766	"14"	34802.923809965	34716.901214509	1.5	0.1
0.01	1	0.0507914110057754	1	103	NA	372.726898396999	0	0.46	3.72	1	366.794880204994	366.845671616	"14"	34802.923809965	34716.901214509	1.5	0.1
0.01	1	0.0545169800025178	1	103	NA	372.726898396999	0	0.46	3.72	1	367.078737181997	367.133254162	"14"	34802.923809965	34716.901214509	1.5	0.1
0.01	1	0.0734124450027593	1	103	NA	372.726898396999	0	0.46	3.72	1	367.362633592995	367.436046037998	"14"	34802.923809965	34716.901214509	1.5	0.1
0.01	1	0.0531871159982984	1	103	NA	372.726898396999	0	0.46	3.72	1	367.66299741	367.716184525998	"14"	34802.923809965	34716.901214509	1.5	0.1
0.01	1	0.0508285630057799	1	103	NA	372.726898396999	0	0.46	3.72	1	367.946918817994	367.997747380999	"14"	34802.923809965	34716.901214509	1.5	0.1
0.01	1	0.0460499219989288	1	103	NA	372.726898396999	0	0.46	3.72	1	368.230638244997	368.276688166996	"14"	34802.923809965	34716.901214509	1.5	0.1
0.01	1	0.0673574799948256	1	103	NA	372.726898396999	0	0.46	3.72	1	368.514532592999	368.581890072994	"14"	34802.923809965	34716.901214509	1.5	0.1
0.01	1	0.0454790400035563	1	103	NA	372.726898396999	0	0.46	3.72	1	368.814993739994	368.860472779998	"14"	34802.923809965	34716.901214509	1.5	0.1
0.01	1	0.0752232230006484	1	103	NA	372.726898396999	0	0.46	3.72	1	369.082170283997	369.157393506997	"14"	34802.923809965	34716.901214509	1.5	0.1
0.01	1	0.0716872010016232	1	103	NA	372.726898396999	0	0.46	3.72	1	369.382555927994	369.454243128996	"14"	34802.923809965	34716.901214509	1.5	0.1
0.01	1	0.090061617003812	1	103	NA	372.726898396999	0	0.46	3.72	1	369.683057667993	369.773119284997	"14"	34802.923809965	34716.901214509	1.5	0.1
0.01	1	0.0610684220009716	1	103	NA	372.726898396999	0	0.46	3.72	1	370.000351145995	370.061419567995	"14"	34802.923809965	34716.901214509	1.5	0.1
0.01	1	0.0804424899979495	1	103	NA	372.726898396999	0	0.46	3.72	1	370.284138522999	370.364581012996	"14"	34802.923809965	34716.901214509	1.5	0.1
0.01	1	0.044727728003636	1	103	NA	372.726898396999	0	0.46	3.72	1	370.601373672995	370.646101400998	"14"	34802.923809965	34716.901214509	1.5	0.1
0.01	1	0.0718036670004949	1	103	NA	372.726898396999	0	0.46	3.72	1	370.868424713997	370.940228380998	"14"	34802.923809965	34716.901214509	1.5	0.1
0.01	1	0.0513513650003006	1	103	NA	372.726898396999	0	0.46	3.72	1	371.168857647994	371.220209012994	"14"	34802.923809965	34716.901214509	1.5	0.1
0.01	1	0.0487693899995065	1	103	NA	372.726898396999	0	0.46	3.72	1	371.452717606	371.501486996	"14"	34802.923809965	34716.901214509	1.5	0.1
0.01	1	0.0360424809987308	1	103	NA	372.726898396999	0	0.46	3.72	1	371.736531972994	371.772574453993	"14"	34802.923809965	34716.901214509	1.5	0.1
0.01	1	0.0413533760001883	1	103	NA	372.726898396999	0	0.46	3.72	1	372.003657773996	372.045011149996	"14"	34802.923809965	34716.901214509	1.5	0.1
0.01	1	0.0227765090021421	1	103	NA	372.726898396999	0	0.46	3.72	1	372.270720511995	372.293497020997	"14"	34802.923809965	34716.901214509	1.5	0.1
0.01	1	0.204160733002936	2	103	NA	372.726898396999	0	0.46	3.72	1	372.521161756995	372.725322489998	"14"	34802.923809965	34716.901214509	1.5	0.1
0.01	1	0.854845468995336	1	120	NA	391.822197012996	0	0.55	4.27	1	374.758276665998	375.613122134993	"15"	34802.923809965	34716.901214509	1.5	0.1
0.01	1	0.0901419880028698	1	120	NA	391.822197012996	0	0.55	4.27	1	375.843488487997	375.933630476	"15"	34802.923809965	34716.901214509	1.5	0.1
0.01	1	0.0613928629973088	1	120	NA	391.822197012996	0	0.55	4.27	1	376.160612048996	376.222004911993	"15"	34802.923809965	34716.901214509	1.5	0.1
0.01	1	0.0571072579987231	1	120	NA	391.822197012996	0	0.55	4.27	1	376.444367983	376.501475240999	"15"	34802.923809965	34716.901214509	1.5	0.1
0.01	1	0.0609910290004336	1	120	NA	391.822197012996	0	0.55	4.27	1	376.728271837994	376.789262866994	"15"	34802.923809965	34716.901214509	1.5	0.1
0.01	1	0.0730997170030605	1	120	NA	391.822197012996	0	0.55	4.27	1	377.012037251996	377.085136968999	"15"	34802.923809965	34716.901214509	1.5	0.1
0.01	1	0.0693966420003562	1	120	NA	391.822197012996	0	0.55	4.27	1	377.312534426994	377.381931068994	"15"	34802.923809965	34716.901214509	1.5	0.1
0.01	1	0.0555929779948201	1	120	NA	391.822197012996	0	0.55	4.27	1	377.613143982999	377.668736960994	"15"	34802.923809965	34716.901214509	1.5	0.1
0.01	1	0.0609324319957523	1	120	NA	391.822197012996	0	0.55	4.27	1	377.896860016997	377.957792448993	"15"	34802.923809965	34716.901214509	1.5	0.1
0.01	1	0.0571437050020904	1	120	NA	391.822197012996	0	0.55	4.27	1	378.180730920998	378.237874626	"15"	34802.923809965	34716.901214509	1.5	0.1
0.01	1	0.0692056629995932	1	120	NA	391.822197012996	0	0.55	4.27	1	378.464597754995	378.533803417995	"15"	34802.923809965	34716.901214509	1.5	0.1
0.01	1	0.0805002310007694	1	120	NA	391.822197012996	0	0.55	4.27	1	378.765007687995	378.845507918995	"15"	34802.923809965	34716.901214509	1.5	0.1
0.01	1	0.0272956920016441	1	120	NA	391.822197012996	0	0.55	4.27	1	379.082265323996	379.109561015997	"15"	34802.923809965	34716.901214509	1.5	0.1
0.01	1	0.0313365879992489	1	120	NA	391.822197012996	0	0.55	4.27	1	379.332597929999	379.363934517998	"15"	34802.923809965	34716.901214509	1.5	0.1
0.01	1	0.00214774599589873	1	120	NA	391.822197012996	0	0.55	4.27	1	379.599755937998	379.601903683993	"15"	34802.923809965	34716.901214509	1.5	0.1
0.01	1	0.00215016699803527	1	120	NA	391.822197012996	0	0.55	4.27	1	379.833465853997	379.835616020995	"15"	34802.923809965	34716.901214509	1.5	0.1
0.01	1	0.00208633200236363	1	120	NA	391.822197012996	0	0.55	4.27	1	380.067148963994	380.069235295996	"15"	34802.923809965	34716.901214509	1.5	0.1
0.01	1	0.00217315400368534	1	120	NA	391.822197012996	0	0.55	4.27	1	380.300965512994	380.303138666997	"15"	34802.923809965	34716.901214509	1.5	0.1
0.01	1	0.00219174299854785	1	120	NA	391.822197012996	0	0.55	4.27	1	380.534737053997	380.536928796995	"15"	34802.923809965	34716.901214509	1.5	0.1
0.01	1	0.00223335899499943	1	120	NA	391.822197012996	0	0.55	4.27	1	380.768412931	380.770646289995	"15"	34802.923809965	34716.901214509	1.5	0.1
0.01	1	0.00225703300384339	1	120	NA	391.822197012996	0	0.55	4.27	1	381.002123169994	381.004380202998	"15"	34802.923809965	34716.901214509	1.5	0.1
0.01	1	0.00216484100383241	1	120	NA	391.822197012996	0	0.55	4.27	1	381.235798174996	381.237963015999	"15"	34802.923809965	34716.901214509	1.5	0.1
0.01	1	0.00227018100122223	1	120	NA	391.822197012996	0	0.55	4.27	1	381.469643035998	381.471913216999	"15"	34802.923809965	34716.901214509	1.5	0.1
0.01	1	0.00215632999606896	1	120	NA	391.822197012996	0	0.55	4.27	1	381.703240358998	381.705396688994	"15"	34802.923809965	34716.901214509	1.5	0.1
0.01	1	0.00219278100121301	1	120	NA	391.822197012996	0	0.55	4.27	1	381.937006228996	381.939199009998	"15"	34802.923809965	34716.901214509	1.5	0.1
0.01	1	0.00226690999988932	1	120	NA	391.822197012996	0	0.55	4.27	1	382.170748812998	382.173015722998	"15"	34802.923809965	34716.901214509	1.5	0.1
