Trial_type,Response,Points_earned,Trial_start_time,Stim_end_time,Reaction_time,ITI_start_time,ITI_length,Counterbalance,
2.0,1,-5,41723,44240,1808,46242,519.0,1,
3.0,1,100,46769,50411,1711,52413,1454.0,1,
1.0,0,0,53874,56551,2676,58553,1381.0,1,
4.0,1,-100,59941,62555,1124,64557,2868.0,1,
4.0,2,0,67432,71345,1113,73347,3060.0,1,
4.0,1,10,76414,79549,1277,81551,942.0,1,
3.0,1,-10,82500,85227,633,87229,2101.0,1,
1.0,1,5,89337,92249,754,94251,590.0,1,
2.0,1,-5,94848,97423,1118,99425,3834.0,1,
1.0,2,0,103267,107006,1970,109008,1607.0,1,
1.0,1,5,110622,113742,1406,115744,3913.0,1,
2.0,1,-5,119665,122236,1801,124238,1017.0,1,
3.0,1,100,125262,128110,600,130112,922.0,1,
4.0,2,0,131042,133850,524,135852,1697.0,1,
4.0,2,0,137556,140805,431,142807,1420.0,1,
2.0,2,0,144234,147007,316,149009,595.0,1,
2.0,2,0,149611,152166,301,154168,1076.0,1,
1.0,2,0,155251,159050,2942,161052,1902.0,1,
3.0,1,100,162962,165992,1052,167994,1928.0,1,
1.0,2,0,169929,172691,493,174693,1335.0,1,
1.0,2,0,176036,180256,431,182258,507.0,1,
1.0,2,0,182772,185520,879,187522,701.0,1,
1.0,2,0,188230,191188,1279,193190,663.0,1,
4.0,1,10,193861,196384,586,198386,3555.0,1,
3.0,1,100,201948,204665,751,206667,2412.0,1,
1.0,2,0,209086,211762,884,213764,592.0,1,
1.0,2,0,214363,217553,1647,219555,1321.0,1,
3.0,1,-10,220883,224518,721,226520,1866.0,1,
4.0,1,10,228394,231071,612,233073,2291.0,1,
2.0,1,-5,235371,238291,641,240293,2991.0,1,
2.0,2,0,314135,316776,1258,318778,2658.0,1,
1.0,2,0,321444,324462,666,326464,775.0,1,
2.0,2,0,327246,329872,750,331874,2112.0,1,
3.0,1,-10,333993,336883,473,338885,1501.0,1,
3.0,1,-10,340393,343239,600,345241,1977.0,1,
2.0,1,495,347226,350465,553,352467,924.0,1,
2.0,2,0,353398,356516,1443,358518,709.0,1,
1.0,1,5,359234,362063,940,364065,2195.0,1,
3.0,1,100,366268,369101,962,371103,3069.0,1,
3.0,1,-10,374180,377017,930,379019,1144.0,1,
4.0,1,-100,380170,383761,1118,385763,1865.0,1,
1.0,1,5,387635,390904,827,392906,1062.0,1,
4.0,2,0,393975,396486,1099,398488,808.0,1,
3.0,1,100,399303,402658,711,404660,776.0,1,
1.0,2,0,405443,408971,1459,410973,1752.0,1,
1.0,2,0,412732,415478,679,417480,2352.0,1,
1.0,2,0,419839,422661,636,424663,3747.0,1,
1.0,2,0,428417,431218,671,433220,2964.0,1,
1.0,2,0,436192,440200,551,442202,3776.0,1,
3.0,1,-10,445985,448504,617,450506,895.0,1,
4.0,2,0,451408,454597,677,456599,1167.0,1,
1.0,2,0,457773,460294,603,462296,3746.0,1,
3.0,1,-10,466050,468701,593,470703,1131.0,1,
1.0,1,-495,471841,475370,1708,477372,2179.0,1,
4.0,2,0,479558,482260,584,484262,1215.0,1,
3.0,1,-10,485485,488120,654,490122,2711.0,1,
1.0,2,0,492840,496593,765,498595,2474.0,1,
1.0,2,0,501076,503633,567,505635,743.0,1,
4.0,2,0,506385,509362,985,511364,3203.0,1,
3.0,1,100,514574,517734,645,519736,1397.0,1,
3.0,1,-10,589390,591903,346,593905,3892.0,1,
4.0,2,0,597804,600435,633,602437,3604.0,1,
1.0,2,0,606050,608701,626,610703,2096.0,1,
3.0,1,100,612807,615400,645,617402,1142.0,1,
4.0,2,0,618552,622806,632,624808,904.0,1,
1.0,2,0,625719,628343,677,630345,2617.0,1,
2.0,1,-5,632970,636327,709,638329,1534.0,1,
3.0,1,-10,639870,642999,476,645000,738.0,1,
4.0,2,0,645746,648781,530,650783,1949.0,1,
2.0,1,-5,652739,656772,898,658774,3888.0,1,
1.0,2,0,662669,665282,654,667284,846.0,1,
1.0,2,0,668138,671639,492,673641,993.0,1,
4.0,2,0,674642,677275,707,679277,2966.0,1,
4.0,2,0,682250,687135,749,689137,3919.0,1,
2.0,1,-5,693063,696063,643,698065,3413.0,1,
4.0,2,0,701485,705689,637,707691,1954.0,1,
4.0,2,0,709653,712190,856,714192,1361.0,1,
1.0,2,0,715560,718419,658,720421,3175.0,1,
3.0,1,100,723604,726223,510,728225,3801.0,1,
2.0,1,-5,732034,734855,654,736857,1205.0,1,
1.0,2,0,738070,741595,645,743597,1969.0,1,
1.0,2,0,745573,748972,578,750974,2101.0,1,
2.0,1,-5,753084,755681,577,757683,537.0,1,
2.0,1,-5,758227,761076,651,763078,888.0,1,
4.0,2,0,763974,767011,622,769013,1331.0,1,
4.0,2,0,770352,773546,787,775548,3075.0,1,
4.0,2,0,778631,781328,554,783330,2435.0,1,
1.0,2,0,785772,788454,610,790456,1012.0,1,
3.0,1,100,791476,794375,511,796377,1476.0,1,
4.0,2,0,797861,800431,664,802433,2546.0,1,
2.0,1,-5,860405,863739,731,865741,562.0,1,
3.0,1,100,866311,868994,587,870996,1980.0,1,
1.0,2,0,872983,875548,626,877550,1348.0,1,
4.0,2,0,878905,881712,673,883714,597.0,1,
3.0,1,100,884318,887183,633,889185,1862.0,1,
1.0,2,0,891055,893752,567,895754,2445.0,1,
4.0,2,0,898206,901268,872,903270,2740.0,1,
3.0,1,100,906017,909282,579,911284,1414.0,1,
4.0,2,0,912706,915320,631,917322,2796.0,1,
3.0,1,100,920126,922789,577,924791,3059.0,1,
3.0,1,-10,927857,930791,489,932793,1357.0,1,
4.0,2,0,934157,937917,607,939919,3568.0,1,
3.0,1,-10,943495,946824,700,948826,1388.0,1,
2.0,1,-5,950222,952782,797,954784,692.0,1,
2.0,1,-5,955483,958061,596,960063,810.0,1,
1.0,2,0,960880,963870,568,965872,2219.0,1,
2.0,1,495,968098,970865,627,972867,2414.0,1,
2.0,1,-5,975288,977842,708,979844,747.0,1,
2.0,1,-5,980599,983277,607,985279,2296.0,1,
2.0,1,-5,987583,990367,506,992369,1290.0,1,
1.0,2,0,993666,998189,665,1000191,3187.0,1,
1.0,2,0,1003387,1006176,677,1008178,1427.0,1,
4.0,2,0,1009612,1012191,630,1014193,991.0,1,
3.0,1,-10,1015191,1018093,556,1020095,1738.0,1,
1.0,2,0,1021840,1025484,599,1027486,854.0,1,
3.0,1,-10,1028348,1031836,550,1033838,1405.0,1,
2.0,1,-5,1035250,1037849,584,1039851,978.0,1,
4.0,2,0,1040836,1043339,530,1045341,574.0,1,
4.0,2,0,1045922,1048811,577,1050813,1461.0,1,
4.0,2,0,1052281,1054852,671,1056854,2058.0,1,
1.0,2,0,1120952,1124270,616,1126272,2485.0,1,
2.0,1,-5,1128764,1131687,623,1133689,2870.0,1,
2.0,1,-5,1136566,1139204,677,1141206,2760.0,1,
4.0,2,0,1143973,1146567,701,1148569,2680.0,1,
4.0,2,0,1151256,1155420,447,1157422,1053.0,1,
4.0,2,0,1158482,1161837,473,1163839,3218.0,1,
4.0,2,0,1167064,1170093,527,1172095,790.0,1,
2.0,1,-5,1172892,1175666,552,1177668,2712.0,1,
4.0,2,0,1180387,1183208,587,1185210,1602.0,1,
2.0,1,-5,1186819,1190663,573,1192665,1452.0,1,
3.0,1,-10,1194124,1196844,721,1198846,999.0,1,
1.0,2,0,1199853,1202554,814,1204556,1212.0,1,
3.0,1,100,1205775,1208540,696,1210542,645.0,1,
1.0,2,0,1211194,1213866,636,1215868,1335.0,1,
1.0,2,0,1217211,1220277,507,1222279,693.0,1,
2.0,1,-5,1222979,1226210,428,1228212,643.0,1,
2.0,1,-5,1228862,1231796,543,1233798,549.0,1,
2.0,1,-5,1234354,1237465,414,1239467,765.0,1,
3.0,1,-10,1240239,1244464,619,1246466,547.0,1,
4.0,2,0,1247020,1249889,582,1251891,1579.0,1,
3.0,1,-10,1253477,1256392,547,1258394,3813.0,1,
1.0,2,0,1262214,1265899,573,1267901,1929.0,1,
2.0,1,495,1269837,1272726,543,1274728,2176.0,1,
3.0,1,-10,1276911,1279453,631,1281455,1940.0,1,
2.0,1,-5,1283402,1285977,636,1287979,2698.0,1,
3.0,1,100,1290684,1293207,538,1295209,1632.0,1,
4.0,2,0,1296848,1299588,622,1301590,1977.0,1,
2.0,1,-5,1303574,1306231,486,1308233,1415.0,1,
1.0,2,0,1309655,1312637,608,1314639,863.0,1,
3.0,1,-10,1315509,1318288,675,1320290,694.0,1,
3.0,1,100,1380535,1383146,584,1385148,662.0,1,
2.0,1,-5,1385817,1388399,431,1390401,2710.0,1,
3.0,1,100,1393119,1395869,596,1397871,2530.0,1,
2.0,1,-5,1400408,1402947,504,1404949,2286.0,1,
2.0,1,-5,1407242,1410212,575,1412214,1409.0,1,
3.0,1,100,1413631,1416831,594,1418833,2541.0,1,
1.0,2,0,1421381,1424453,672,1426455,2103.0,1,
2.0,1,-5,1428565,1433391,539,1435393,782.0,1,
2.0,1,495,1436182,1439305,539,1441307,2056.0,1,
4.0,2,0,1443370,1446010,878,1448012,1279.0,1,
3.0,1,-10,1449298,1452132,598,1454134,1065.0,1,
3.0,1,100,1455206,1457850,571,1459852,1396.0,1,
2.0,1,-5,1461255,1464456,553,1466458,706.0,1,
2.0,1,-5,1467171,1470487,526,1472489,3113.0,1,
4.0,2,0,1475609,1478367,502,1480369,2939.0,1,
4.0,2,0,1483315,1486335,434,1488337,1779.0,1,
3.0,1,100,1490123,1492639,446,1494641,1207.0,1,
2.0,1,-5,1495855,1498591,539,1500593,1708.0,1,
4.0,2,0,1502309,1505021,716,1507023,1714.0,1,
2.0,1,-5,1508744,1511697,629,1513699,1484.0,1,
2.0,1,-5,1515190,1518226,864,1520228,2180.0,1,
2.0,1,-5,1522415,1525007,378,1527009,520.0,1,
4.0,2,0,1527536,1530447,629,1532449,2180.0,1,
1.0,2,0,1534636,1537232,533,1539234,600.0,1,
3.0,1,-10,1539841,1542367,593,1544369,1003.0,1,
3.0,1,100,1545379,1548717,394,1550719,3245.0,1,
3.0,1,-10,1553971,1556904,466,1558906,1873.0,1,
4.0,2,0,1560786,1563559,680,1565561,1349.0,1,
4.0,2,0,1566917,1569471,567,1571473,1781.0,1,
3.0,1,-10,1573261,1576310,410,1578312,1000.0,1,
