Trial_type,Response,Points_earned,Trial_start_time,Stim_end_time,Reaction_time,ITI_start_time,ITI_length,Counterbalance,
2.0,0,0,61431,63948,2516,65950,519.0,2,
3.0,1,100,66477,70120,1908,72122,1454.0,2,
1.0,1,5,73583,76261,1117,78263,1381.0,2,
4.0,1,-100,79651,82265,856,84267,2868.0,2,
4.0,1,10,87143,91056,479,93058,3060.0,2,
4.0,1,10,96125,99259,1482,101261,942.0,2,
3.0,1,-10,102210,104937,1625,106939,2101.0,2,
1.0,1,5,109047,111960,995,113962,590.0,2,
2.0,1,-5,114559,117135,1030,119137,3834.0,2,
1.0,1,5,122978,126717,818,128719,1607.0,2,
1.0,1,5,130333,133452,660,135454,3913.0,2,
2.0,1,-5,139374,141945,1507,143947,1017.0,2,
3.0,1,100,144972,147821,956,149823,922.0,2,
4.0,1,10,150752,153561,949,155563,1697.0,2,
4.0,1,-100,157267,160516,1100,162518,1420.0,2,
2.0,1,-5,163945,166717,1188,168719,595.0,2,
2.0,2,0,169322,171877,1652,173879,1076.0,2,
1.0,1,-495,174962,178762,1376,180764,1902.0,2,
3.0,1,100,182673,185704,2063,187706,1928.0,2,
1.0,2,0,189641,192403,1156,194405,1335.0,2,
1.0,1,5,195747,199967,1660,201969,507.0,2,
1.0,2,0,202483,205230,1276,207232,701.0,2,
1.0,1,5,207941,210899,993,212901,663.0,2,
4.0,1,-100,213571,216094,1482,218096,3555.0,2,
3.0,1,100,221658,224376,986,226378,2412.0,2,
1.0,2,0,228797,231473,1409,233475,592.0,2,
1.0,1,5,234074,237263,1019,239265,1321.0,2,
3.0,1,-10,240594,244228,2059,246230,1866.0,2,
4.0,1,10,248103,250781,1800,252783,2291.0,2,
2.0,1,-5,255081,258000,2359,260001,2991.0,2,
2.0,1,495,337933,340575,1933,342577,2658.0,2,
1.0,1,5,345242,348259,2149,350261,775.0,2,
2.0,1,-5,351043,353668,1092,355670,2112.0,2,
3.0,1,-10,357789,360679,628,362681,1501.0,2,
3.0,2,0,364189,367036,734,369038,1977.0,2,
2.0,1,-5,371022,374261,1177,376263,924.0,2,
2.0,1,-5,377194,380312,757,382314,709.0,2,
1.0,2,0,383031,385860,1339,387862,2195.0,2,
3.0,1,-10,390064,392896,705,394898,3069.0,2,
3.0,2,0,397974,400812,2750,402814,1144.0,2,
4.0,1,-100,403965,407557,922,409559,1865.0,2,
1.0,1,5,411431,414700,1854,416702,1062.0,2,
4.0,1,-100,417771,420281,1833,422283,808.0,2,
3.0,1,100,423098,426452,1385,428454,776.0,2,
1.0,1,5,429237,432765,1371,434767,1752.0,2,
1.0,1,5,436526,439273,1350,441275,2352.0,2,
1.0,1,5,443634,446457,1475,448459,3747.0,2,
1.0,1,5,452214,455014,1273,457016,2964.0,2,
1.0,2,0,459988,463995,1813,465997,3776.0,2,
3.0,1,-10,469780,472299,1234,474301,895.0,2,
4.0,1,10,475203,478393,910,480395,1167.0,2,
1.0,0,0,481569,484090,2520,486092,3746.0,2,
3.0,1,100,489845,492495,755,494497,1131.0,2,
1.0,1,5,495636,499164,935,501166,2179.0,2,
4.0,1,-100,503352,506054,1345,508056,1215.0,2,
3.0,1,-10,509279,511915,1212,513917,2711.0,2,
1.0,1,-495,516635,520388,847,522390,2474.0,2,
1.0,1,5,524871,527427,792,529429,743.0,2,
4.0,0,0,530179,533155,2975,535157,3203.0,2,
3.0,1,-10,538368,541527,927,543529,1397.0,2,
3.0,1,-10,607117,609630,1315,611632,3892.0,2,
4.0,1,10,615531,618163,801,620165,3604.0,2,
1.0,1,5,623776,626427,1112,628429,2096.0,2,
3.0,1,100,630532,633125,596,635127,1142.0,2,
4.0,1,10,636276,640529,617,642531,904.0,2,
1.0,1,5,643442,646066,827,648068,2617.0,2,
2.0,1,-5,650692,654049,705,656051,1534.0,2,
3.0,1,-10,657592,660721,629,662723,738.0,2,
4.0,1,-100,663468,666503,948,668505,1949.0,2,
2.0,1,-5,670461,674493,938,676495,3888.0,2,
1.0,1,5,680390,683003,860,685005,846.0,2,
1.0,1,5,685858,689360,1161,691362,993.0,2,
4.0,1,-100,692363,694996,1385,696998,2966.0,2,
4.0,1,-100,699971,704856,1657,706858,3919.0,2,
2.0,1,-5,710784,713783,1247,715785,3413.0,2,
4.0,1,-100,719206,723410,1448,725412,1954.0,2,
4.0,2,0,727374,729911,1998,731913,1361.0,2,
1.0,1,5,733281,736140,1244,738142,3175.0,2,
3.0,1,100,741324,743943,1233,745945,3801.0,2,
2.0,1,-5,749754,752574,2153,754576,1205.0,2,
1.0,1,-495,755788,759313,1607,761315,1969.0,2,
1.0,1,5,763292,766691,1618,768693,2101.0,2,
2.0,1,-5,770801,773398,1000,775400,537.0,2,
2.0,2,0,775944,778792,1112,780794,888.0,2,
4.0,1,10,781690,784726,840,786728,1331.0,2,
4.0,1,10,788066,791260,1450,793262,3075.0,2,
4.0,1,10,796344,799041,1701,801043,2435.0,2,
1.0,0,0,803485,806166,2680,808168,1012.0,2,
3.0,1,-10,809188,812087,797,814089,1476.0,2,
4.0,2,0,815572,818141,1459,820143,2546.0,2,
2.0,1,-5,882954,886288,1262,888290,562.0,2,
3.0,1,100,888859,891541,740,893543,1980.0,2,
1.0,1,5,895530,898094,1001,900096,1348.0,2,
4.0,1,10,901452,904258,833,906260,597.0,2,
3.0,1,100,906864,909728,1006,911730,1862.0,2,
1.0,1,5,913599,916297,1797,918299,2445.0,2,
4.0,1,-100,920751,923813,1546,925815,2740.0,2,
3.0,1,100,928562,931826,1159,933828,1414.0,2,
4.0,1,10,935249,937863,2006,939865,2796.0,2,
3.0,1,100,942668,945332,948,947334,3059.0,2,
3.0,0,0,950400,953333,2932,955335,1357.0,2,
4.0,1,-100,956699,960459,2131,962461,3568.0,2,
3.0,2,0,966036,969364,897,971366,1388.0,2,
2.0,1,495,972761,975321,1052,977323,692.0,2,
2.0,2,0,978022,980601,1428,982603,810.0,2,
1.0,1,5,983420,986411,1192,988413,2219.0,2,
2.0,2,0,990640,993407,953,995409,2414.0,2,
2.0,1,-5,997830,1000383,705,1002385,747.0,2,
2.0,1,-5,1003140,1005817,971,1007819,2296.0,2,
2.0,1,-5,1010122,1012906,1561,1014908,1290.0,2,
1.0,1,5,1016205,1020729,1016,1022731,3187.0,2,
1.0,1,5,1025925,1028714,1297,1030716,1427.0,2,
4.0,1,-100,1032150,1034729,831,1036731,991.0,2,
3.0,0,0,1037729,1040630,2900,1042632,1738.0,2,
1.0,0,0,1044377,1048021,3643,1050023,854.0,2,
3.0,0,0,1050885,1054373,3487,1056375,1405.0,2,
2.0,0,0,1057787,1060385,2597,1062387,978.0,2,
4.0,0,0,1063372,1065874,2501,1067876,574.0,2,
4.0,0,0,1068457,1071345,2887,1073347,1461.0,2,
4.0,0,0,1074815,1077385,2569,1079387,2058.0,2,
1.0,1,5,1824776,1828094,1899,1830096,2485.0,2,
2.0,1,-5,1832588,1835511,782,1837513,2870.0,2,
2.0,1,-5,1840390,1843028,1036,1845030,2760.0,2,
4.0,1,10,1847797,1850391,476,1852393,2680.0,2,
4.0,1,10,1855080,1859244,659,1861246,1053.0,2,
4.0,1,-100,1862306,1865661,733,1867663,3218.0,2,
4.0,1,-100,1870888,1873916,836,1875918,790.0,2,
2.0,1,-5,1876715,1879489,709,1881491,2712.0,2,
4.0,1,10,1884210,1887031,649,1889033,1602.0,2,
2.0,1,-5,1890642,1894485,1394,1896487,1452.0,2,
3.0,1,100,1897946,1900666,1022,1902668,999.0,2,
1.0,1,5,1903674,1906376,1188,1908378,1212.0,2,
3.0,1,100,1909597,1912361,1051,1914363,645.0,2,
1.0,1,5,1915015,1917686,891,1919688,1335.0,2,
1.0,1,-495,1921030,1924096,722,1926098,693.0,2,
2.0,1,-5,1926798,1930030,966,1932032,643.0,2,
2.0,1,-5,1932682,1935616,494,1937618,549.0,2,
2.0,1,-5,1938174,1941285,1017,1943287,765.0,2,
3.0,1,-10,1944060,1948285,891,1950287,547.0,2,
4.0,1,10,1950841,1953710,675,1955712,1579.0,2,
3.0,1,-10,1957298,1960213,807,1962215,3813.0,2,
1.0,1,5,1966035,1969720,758,1971722,1929.0,2,
2.0,1,-5,1973658,1976547,1146,1978549,2176.0,2,
3.0,2,0,1980732,1983274,623,1985276,1940.0,2,
2.0,1,495,1987223,1989798,719,1991800,2698.0,2,
3.0,1,-10,1994505,1997029,1616,1999031,1632.0,2,
4.0,1,-100,2000670,2003410,1211,2005412,1977.0,2,
2.0,1,-5,2007396,2010053,1117,2012055,1415.0,2,
1.0,1,5,2013477,2016459,966,2018461,863.0,2,
3.0,1,-10,2019331,2022109,1134,2024111,694.0,2,
3.0,1,-10,2090450,2093060,1387,2095062,662.0,2,
2.0,1,-5,2095731,2098313,1286,2100315,2710.0,2,
3.0,1,100,2103033,2105784,1251,2107786,2530.0,2,
2.0,1,-5,2110323,2112862,1489,2114864,2286.0,2,
2.0,1,-5,2117157,2120127,2302,2122129,1409.0,2,
3.0,2,0,2123545,2126744,449,2128746,2541.0,2,
1.0,1,5,2131294,2134365,741,2136367,2103.0,2,
2.0,2,0,2138477,2143303,1389,2145305,782.0,2,
2.0,1,-5,2146094,2149217,1053,2151219,2056.0,2,
4.0,1,10,2153282,2155922,1251,2157924,1279.0,2,
3.0,1,-10,2159210,2162043,1778,2164045,1065.0,2,
3.0,1,-10,2165117,2167760,730,2169762,1396.0,2,
2.0,1,-5,2171165,2174366,1026,2176368,706.0,2,
2.0,2,0,2177081,2180398,1043,2182400,3113.0,2,
4.0,1,10,2185520,2188278,1018,2190280,2939.0,2,
4.0,1,-100,2193226,2196246,734,2198248,1779.0,2,
3.0,1,-10,2200034,2202549,991,2204551,1207.0,2,
2.0,1,495,2205765,2208501,537,2210503,1708.0,2,
4.0,1,-100,2212219,2214932,896,2216934,1714.0,2,
2.0,2,0,2218655,2221608,1273,2223610,1484.0,2,
2.0,1,-5,2225101,2228137,897,2230139,2180.0,2,
2.0,1,-5,2232326,2234917,1367,2236919,520.0,2,
4.0,1,-100,2237446,2240356,1405,2242358,2180.0,2,
1.0,1,5,2244545,2247141,1068,2249143,600.0,2,
3.0,2,0,2249750,2252277,1174,2254279,1003.0,2,
3.0,1,100,2255289,2258627,638,2260629,3245.0,2,
3.0,2,0,2263881,2266814,953,2268816,1873.0,2,
4.0,1,10,2270696,2273469,1050,2275471,1349.0,2,
4.0,1,10,2276827,2279380,1020,2281382,1781.0,2,
3.0,1,-10,2283170,2286219,868,2288221,1000.0,2,
