Trial_type,Response,Points_earned,Trial_start_time,Stim_end_time,Reaction_time,ITI_start_time,ITI_length,Counterbalance,
2.0,0,0,115045,117562,2516,119564,519.0,1,
3.0,2,0,120091,123734,1986,125736,1454.0,1,
1.0,1,5,127198,129876,836,131878,1381.0,1,
4.0,1,-100,133266,135879,777,137881,2868.0,1,
4.0,1,10,140756,144668,933,146670,3060.0,1,
4.0,1,10,149737,152872,1561,154874,942.0,1,
3.0,1,100,155824,158552,1283,160554,2101.0,1,
1.0,0,0,162662,165574,2911,167576,590.0,1,
2.0,1,-5,168173,170748,939,172750,3834.0,1,
1.0,1,5,176591,180329,1280,182331,1607.0,1,
1.0,1,5,183945,187064,1056,189066,3913.0,1,
2.0,1,-5,192986,195558,1975,197560,1017.0,1,
3.0,1,-10,198584,201432,875,203434,922.0,1,
4.0,1,10,204363,207171,615,209173,1697.0,1,
4.0,0,0,210877,214125,3247,216127,1420.0,1,
2.0,1,-5,217554,220326,1355,222328,595.0,1,
2.0,1,-5,222930,225485,1051,227487,1076.0,1,
1.0,1,5,228570,232370,583,234372,1902.0,1,
3.0,1,100,236282,239313,1474,241315,1928.0,1,
1.0,1,-495,243250,246012,789,248014,1335.0,1,
1.0,1,5,249356,253575,696,255577,507.0,1,
1.0,1,5,256091,258838,965,260840,701.0,1,
1.0,1,5,261548,264507,676,266509,663.0,1,
4.0,1,-100,267179,269703,683,271705,3555.0,1,
3.0,1,100,275267,277985,1281,279987,2412.0,1,
1.0,2,0,282407,285082,1145,287084,592.0,1,
1.0,1,5,287683,290872,967,292874,1321.0,1,
3.0,1,100,294202,297836,1804,299838,1866.0,1,
4.0,2,0,301711,304389,1534,306391,2291.0,1,
2.0,1,495,308690,311610,1219,313612,2991.0,1,
2.0,1,-5,377517,380159,67,382161,2658.0,1,
1.0,1,5,384826,387844,809,389846,775.0,1,
2.0,2,0,390628,393253,1949,395255,2112.0,1,
3.0,1,-10,397374,400264,1207,402266,1501.0,1,
3.0,1,-10,403774,406621,1354,408623,1977.0,1,
2.0,2,0,410607,413846,585,415848,924.0,1,
2.0,1,-5,416779,419897,560,421899,709.0,1,
1.0,1,5,422615,425443,555,427445,2195.0,1,
3.0,1,-10,429648,432480,933,434482,3069.0,1,
3.0,2,0,437558,440396,1974,442398,1144.0,1,
4.0,1,-100,443549,447141,668,449143,1865.0,1,
1.0,1,5,451015,454284,1478,456286,1062.0,1,
4.0,1,10,457355,459865,791,461867,808.0,1,
3.0,1,100,462682,466036,1344,468038,776.0,1,
1.0,1,5,468821,472349,1629,474351,1752.0,1,
1.0,1,5,476110,478857,1056,480859,2352.0,1,
1.0,1,5,483218,486041,1908,488043,3747.0,1,
1.0,1,-495,491798,494598,1260,496600,2964.0,1,
1.0,2,0,499572,503579,1027,505581,3776.0,1,
3.0,1,-10,509364,511884,2055,513886,895.0,1,
4.0,1,-100,514788,517978,955,519980,1167.0,1,
1.0,1,5,521154,523676,2226,525678,3746.0,1,
3.0,2,0,529431,532081,1701,534083,1131.0,1,
1.0,1,5,535221,538749,422,540751,2179.0,1,
4.0,2,0,542937,545639,1407,547641,1215.0,1,
3.0,1,100,548864,551499,905,553501,2711.0,1,
1.0,1,5,556219,559972,984,561974,2474.0,1,
1.0,2,0,564455,567012,1202,569014,743.0,1,
4.0,2,0,569764,572740,1623,574742,3203.0,1,
3.0,1,-10,577952,581111,1152,583113,1397.0,1,
3.0,1,-10,642677,645190,1249,647192,3892.0,1,
4.0,1,-100,651092,653723,1037,655725,3604.0,1,
1.0,1,5,659336,661987,1810,663989,2096.0,1,
3.0,1,-10,666093,668686,971,670688,1142.0,1,
4.0,2,0,671837,676091,1078,678093,904.0,1,
1.0,1,5,679003,681627,1146,683629,2617.0,1,
2.0,0,0,686253,689610,3356,691612,1534.0,1,
3.0,1,100,693153,696282,2763,698284,738.0,1,
4.0,1,10,699029,702064,1679,704066,1949.0,1,
2.0,1,-5,706022,710055,824,712057,3888.0,1,
1.0,1,5,715952,718565,2482,720567,846.0,1,
1.0,1,-495,721420,724921,930,726923,993.0,1,
4.0,2,0,727924,730557,1648,732559,2966.0,1,
4.0,2,0,735532,740417,1417,742419,3919.0,1,
2.0,1,-5,746345,749345,956,751347,3413.0,1,
4.0,1,-100,754767,758971,1996,760973,1954.0,1,
4.0,2,0,762935,765471,916,767473,1361.0,1,
1.0,1,5,768841,771699,1042,773701,3175.0,1,
3.0,1,-10,776883,779502,1550,781504,3801.0,1,
2.0,2,0,785312,788132,856,790134,1205.0,1,
1.0,1,5,791346,794871,1045,796873,1969.0,1,
1.0,1,5,798849,802248,821,804250,2101.0,1,
2.0,1,-5,806358,808955,736,810957,537.0,1,
2.0,2,0,811501,814350,1055,816352,888.0,1,
4.0,2,0,817248,820285,1642,822287,1331.0,1,
4.0,2,0,823625,826819,1075,828821,3075.0,1,
4.0,1,10,831903,834600,1929,836602,2435.0,1,
1.0,1,5,839044,841726,1784,843728,1012.0,1,
3.0,1,100,844747,847646,1145,849648,1476.0,1,
4.0,2,0,851132,853702,1504,855704,2546.0,1,
2.0,1,-5,908500,911834,1549,913836,562.0,1,
3.0,1,-10,914406,917089,917,919091,1980.0,1,
1.0,1,5,921078,923643,1388,925645,1348.0,1,
4.0,2,0,927000,929807,828,931809,597.0,1,
3.0,0,0,932413,935277,2863,937279,1862.0,1,
1.0,1,5,939148,941845,636,943847,2445.0,1,
4.0,2,0,946299,949361,1304,951363,2740.0,1,
3.0,1,100,954110,957375,646,959377,1414.0,1,
4.0,2,0,960798,963413,1269,965415,2796.0,1,
3.0,1,100,968218,970881,1032,972883,3059.0,1,
3.0,1,100,975949,978882,865,980884,1357.0,1,
4.0,2,0,982248,986008,1295,988010,3568.0,1,
3.0,1,100,991585,994914,1111,996916,1388.0,1,
2.0,1,-5,998311,1000872,1668,1002874,692.0,1,
2.0,2,0,1003573,1006152,1047,1008154,810.0,1,
1.0,1,5,1008971,1011961,733,1013963,2219.0,1,
2.0,2,0,1016189,1018955,1466,1020957,2414.0,1,
2.0,1,-5,1023378,1025932,1742,1027934,747.0,1,
2.0,2,0,1028689,1031367,1169,1033369,2296.0,1,
2.0,2,0,1035672,1038456,1437,1040458,1290.0,1,
1.0,1,5,1041755,1046278,884,1048280,3187.0,1,
1.0,1,5,1051474,1054262,2527,1056264,1427.0,1,
4.0,2,0,1057698,1060277,1143,1062279,991.0,1,
3.0,1,100,1063277,1066179,866,1068181,1738.0,1,
1.0,1,-495,1069926,1073571,1462,1075573,854.0,1,
3.0,1,100,1076434,1079923,1190,1081925,1405.0,1,
2.0,2,0,1083337,1085935,832,1087937,978.0,1,
4.0,1,10,1088922,1091424,2342,1093426,574.0,1,
4.0,2,0,1094007,1096896,753,1098898,1461.0,1,
4.0,2,0,1100366,1102937,793,1104939,2058.0,1,
1.0,1,5,1171067,1174385,1690,1176387,2485.0,1,
2.0,2,0,1178880,1181804,1982,1183806,2870.0,1,
2.0,1,-5,1186683,1189321,889,1191323,2760.0,1,
4.0,2,0,1194090,1196683,1096,1198685,2680.0,1,
4.0,2,0,1201372,1205536,1283,1207538,1053.0,1,
4.0,2,0,1208598,1211953,954,1213955,3218.0,1,
4.0,1,-100,1217180,1220209,1447,1222211,790.0,1,
2.0,2,0,1223008,1225782,1032,1227784,2712.0,1,
4.0,2,0,1230503,1233324,1245,1235326,1602.0,1,
2.0,2,0,1236935,1240779,1894,1242781,1452.0,1,
3.0,1,-10,1244240,1246960,997,1248962,999.0,1,
1.0,1,5,1249968,1252670,689,1254672,1212.0,1,
3.0,1,-10,1255891,1258655,787,1260657,645.0,1,
1.0,1,5,1261309,1263980,929,1265982,1335.0,1,
1.0,1,5,1267324,1270389,940,1272391,693.0,1,
2.0,1,495,1273092,1276323,1913,1278325,643.0,1,
2.0,1,-5,1278975,1281909,1665,1283911,549.0,1,
2.0,1,-5,1284468,1287579,870,1289581,765.0,1,
3.0,1,-10,1290353,1294578,1330,1296580,547.0,1,
4.0,2,0,1297134,1300003,1052,1302005,1579.0,1,
3.0,2,0,1303592,1306507,1072,1308509,3813.0,1,
1.0,1,5,1312329,1316014,1344,1318016,1929.0,1,
2.0,2,0,1319952,1322841,1470,1324843,2176.0,1,
3.0,1,-10,1327026,1329569,609,1331571,1940.0,1,
2.0,1,-5,1333519,1336094,1411,1338096,2698.0,1,
3.0,2,0,1340801,1343324,1040,1345326,1632.0,1,
4.0,1,-100,1346965,1349704,1178,1351706,1977.0,1,
2.0,1,-5,1353690,1356347,1329,1358349,1415.0,1,
1.0,1,5,1359772,1362754,1077,1364756,863.0,1,
3.0,1,-10,1365626,1368405,783,1370407,694.0,1,
3.0,1,100,1434111,1436722,1340,1438724,662.0,1,
2.0,1,-5,1439393,1441976,946,1443978,2710.0,1,
3.0,1,-10,1446695,1449445,1239,1451447,2530.0,1,
2.0,0,0,1453985,1456523,2537,1458525,2286.0,1,
2.0,1,-5,1460818,1463788,690,1465790,1409.0,1,
3.0,1,-10,1467206,1470406,1421,1472408,2541.0,1,
1.0,1,5,1474956,1478028,1157,1480030,2103.0,1,
2.0,2,0,1482140,1486966,1139,1488968,782.0,1,
2.0,1,-5,1489757,1492879,1023,1494881,2056.0,1,
4.0,1,-100,1496944,1499584,843,1501586,1279.0,1,
3.0,1,-10,1502872,1505705,1128,1507707,1065.0,1,
3.0,2,0,1508779,1511422,1197,1513424,1396.0,1,
2.0,1,-5,1514828,1518029,697,1520031,706.0,1,
2.0,1,-5,1520744,1524060,979,1526062,3113.0,1,
4.0,2,0,1529182,1531940,1722,1533942,2939.0,1,
4.0,2,0,1536888,1539908,1126,1541910,1779.0,1,
3.0,1,100,1543696,1546212,1144,1548214,1207.0,1,
2.0,2,0,1549428,1552164,1261,1554166,1708.0,1,
4.0,2,0,1555882,1558594,726,1560596,1714.0,1,
2.0,1,-5,1562317,1565270,597,1567272,1484.0,1,
2.0,2,0,1568763,1571799,1325,1573801,2180.0,1,
2.0,1,-5,1575988,1578580,1146,1580582,520.0,1,
4.0,2,0,1581109,1584019,1475,1586021,2180.0,1,
1.0,1,-495,1588208,1590804,825,1592806,600.0,1,
3.0,1,-10,1593413,1595939,1679,1597941,1003.0,1,
3.0,1,100,1598951,1602289,747,1604291,3245.0,1,
3.0,2,0,1607543,1610476,1545,1612478,1873.0,1,
4.0,2,0,1614358,1617131,1064,1619133,1349.0,1,
4.0,2,0,1620489,1623042,1749,1625044,1781.0,1,
3.0,1,100,1626832,1629881,2185,1631883,1000.0,1,
