Trial_type,Response,Points_earned,Trial_start_time,Stim_end_time,Reaction_time,ITI_start_time,ITI_length,Counterbalance2,1,-5,100637,103156,1600,105160,519,13,1,100,105691,109334,1557,111339,1454,11,1,5,112805,115487,1970,117492,1381,14,1,-100,118884,121497,1148,123502,2868,14,2,0,126381,130295,1190,132300,3060,14,1,10,135373,138509,1983,140514,942,13,1,-10,141469,144197,974,146202,2101,11,1,5,148315,151227,985,153231,590,12,1,-5,153832,156407,1256,158412,3834,11,1,5,162258,165997,1615,168000,1607,11,2,0,169626,172746,1179,174751,3913,12,1,-5,178677,181249,1001,183254,1017,13,1,100,184282,187132,1079,189137,922,14,1,10,190071,192879,636,194884,1697,14,2,0,196593,199843,1350,201847,1420,12,2,0,203279,206053,1762,208058,595,12,1,-5,208665,211220,1435,213224,1076,11,1,5,214318,218118,1279,220123,1902,13,1,100,222038,225068,638,227072,1928,11,2,0,229011,231773,2105,233778,1335,11,0,0,235125,239345,4218,241351,507,11,0,0,242062,244810,2746,246815,701,11,0,0,247528,250487,2957,252492,663,14,0,0,253167,255691,2522,257696,3555,13,0,0,261263,263981,2716,265986,2412,11,0,0,268412,271088,2674,273093,592,11,0,0,273697,276887,3188,278891,1321,13,0,0,280225,283859,3633,285864,1866,14,0,0,287742,290419,2676,292423,2291,12,0,0,294726,297647,2919,299652,2991,12,1,-5,60690,63208,953,65213,519,13,1,100,65745,69388,895,71393,1454,11,1,5,72859,75536,1131,77540,1381,14,2,0,78942,81556,958,83561,2868,14,2,0,86440,90354,2219,92360,3060,14,1,-100,95432,98567,1126,100572,942,13,1,-10,101525,104253,476,106258,2101,11,1,5,108370,111282,648,113288,590,12,1,-5,113890,116465,1189,118470,3834,11,1,5,122316,126055,871,128060,1607,11,1,5,129678,132798,1126,134803,3913,12,2,0,138729,141302,1170,143306,1017,13,1,100,144406,147255,553,149261,922,14,2,0,150195,153005,1208,155010,1697,14,2,0,156721,159971,961,161976,1420,12,1,-5,163410,166183,1324,168188,595,12,2,0,168796,171352,1045,173358,1076,11,1,-495,174448,178248,1138,180254,1902,13,1,100,182168,185198,673,187203,1928,11,1,5,189144,191906,1632,193911,1335,11,2,0,195259,199480,1377,201484,507,11,2,0,202002,204750,2347,206756,701,11,1,5,207470,210429,806,212436,663,14,2,0,213111,215637,844,217642,3555,13,1,100,221210,223927,779,225932,2412,11,2,0,228357,231033,2575,233038,592,11,2,0,233644,236834,1494,238840,1321,13,1,-10,240172,243807,1021,245813,1866,14,2,0,247690,250368,1046,252373,2291,12,1,-5,254675,257595,1592,259600,2991,12,2,0,344389,347031,1691,349036,2658,11,1,5,351705,354724,661,356729,775,12,1,495,357516,360143,1573,362148,2112,13,1,-10,364274,367164,1102,369169,1501,13,1,-10,370682,373529,535,375534,1977,12,2,0,377523,380763,2217,382767,924,12,1,-5,383709,386827,1548,388833,709,11,2,0,389555,392384,1276,394389,2195,13,1,100,396597,399430,495,401435,3069,13,1,-10,404516,407353,1200,409357,1144,14,2,0,410513,414106,1594,416111,1865,11,1,5,417987,421256,1850,423261,1062,14,2,0,424336,426847,895,428852,808,13,1,100,429730,433085,697,435090,776,11,2,0,435879,439408,1929,441413,1752,11,1,5,443177,445924,903,447929,2352,11,2,0,450292,453115,1360,455120,3747,11,2,0,458881,461682,1238,463687,2964,11,1,5,466662,470670,877,472674,3776,13,1,-10,476463,478983,890,480988,895,14,2,0,481896,485088,1910,487093,1167,11,2,0,488271,490793,1675,492799,3746,13,1,-10,496557,499208,865,501213,1131,11,1,5,502357,505886,1751,507891,2179,14,1,10,510083,512786,1327,514791,1215,13,1,-10,516019,518655,1226,520660,2711,11,1,5,523447,527200,1719,529205,2474,11,2,0,531692,534249,1107,536256,743,14,2,0,537012,539990,1918,541995,3203,13,1,100,545210,548370,1114,550375,1397,13,1,-10,611189,613703,1110,615709,3892,14,1,10,619614,622245,1401,624250,3604,11,1,5,627866,630517,1514,632522,2096,13,1,100,634631,637224,1057,639229,1142,14,2,0,640383,644637,1035,646642,904,11,2,0,647559,650184,1378,652190,2617,12,1,-5,654819,658177,1144,660181,1534,13,1,-10,661727,664856,818,666861,738,14,1,10,667645,670680,1273,672686,1949,12,1,-5,674767,678800,1862,680805,3888,11,2,0,684704,687318,1366,689323,846,11,1,5,690182,693684,625,695689,993,14,1,-100,696695,699327,1377,701333,2966,14,1,-100,704313,709200,1064,711205,3919,12,1,-5,715136,718136,1577,720141,3413,14,2,0,723566,727771,1165,729776,1954,14,2,0,731742,734279,1501,736284,1361,11,1,-495,737656,740515,2175,742520,3175,13,1,100,745707,748326,847,750331,3801,12,0,0,754144,756965,2819,758970,1205,11,2,0,760187,763713,1615,765717,1969,11,2,0,767698,771097,1152,773102,2101,12,1,-5,775215,777812,1505,779816,537,12,1,-5,780364,783213,1980,785218,888,14,2,0,786119,789157,880,791161,1331,14,2,0,792503,795698,1324,797704,3075,14,2,0,800790,803487,1401,805493,2435,11,2,0,807940,810622,1212,812627,1012,13,1,100,813651,816550,463,818554,1476,14,1,10,820041,822611,895,824616,2546,12,1,-5,882627,885961,962,887967,562,13,1,100,888541,891224,931,893229,1980,11,2,0,895223,897788,1562,899793,1348,14,2,0,901153,903960,819,905964,597,13,2,0,906573,909437,2382,911442,1862,11,1,5,913317,916015,823,918020,2445,14,2,0,920477,923540,945,925545,2740,13,1,100,928297,931562,891,933567,1414,14,2,0,934993,937609,1081,939614,2796,13,1,100,942422,945086,1919,947091,3059,13,2,0,950163,953097,960,955102,1357,14,1,-100,956482,960242,1647,962248,3568,13,1,100,965828,969157,2094,971162,1388,12,2,0,972562,975123,1571,977128,692,12,1,-5,978013,980592,1285,982598,810,11,2,0,983420,986411,2212,988416,2219,12,1,-5,990648,993415,2418,995420,2414,12,1,495,997847,1000401,1797,1002406,747,12,2,0,1003166,1005851,1072,1007856,2296,12,2,0,1010164,1012949,1944,1014954,1290,11,2,0,1016258,1020782,2051,1022786,3187,11,1,5,1025987,1028777,1016,1030782,1427,14,2,0,1032221,1034800,912,1036805,991,13,1,-10,1037808,1040710,1076,1042715,1738,11,2,0,1044467,1048112,2221,1050117,854,13,1,-10,1050984,1054473,1808,1056478,1405,12,2,0,1057896,1060495,1617,1062500,978,14,2,0,1063490,1066000,1635,1068004,574,14,2,0,1068590,1071481,1253,1073486,1461,14,1,-100,1074960,1077531,1851,1079536,2058,11,2,0,1148404,1151722,958,1153727,2485,12,1,-5,1156224,1159158,1825,1161163,2870,12,1,-5,1164046,1166684,1167,1168688,2760,14,2,0,1171460,1174054,880,1176059,2680,14,2,0,1178752,1182916,1135,1184920,1053,14,2,0,1185985,1189341,1116,1191347,3218,14,2,0,1194576,1197605,1416,1199610,790,12,1,-5,1200412,1203187,1710,1205193,2712,14,2,0,1207917,1210739,901,1212744,1602,12,1,-5,1214358,1218203,1393,1220208,1452,13,1,-10,1221672,1224392,541,1226398,999,11,2,0,1227409,1230111,1464,1232116,1212,13,1,-10,1233340,1236105,549,1238110,645,11,0,0,1238768,1241439,2670,1243444,1335,11,2,0,1244792,1247858,1087,1249863,693,12,1,-5,1250568,1253800,812,1255805,643,12,1,-5,1256462,1259396,1103,1261401,549,12,2,0,1261963,1265074,1136,1267079,765,13,1,-10,1267866,1272090,831,1274094,547,14,2,0,1274652,1277522,745,1279527,1579,13,2,0,1281118,1284034,1222,1286039,3813,11,2,0,1289864,1293550,1016,1295554,1929,12,1,-5,1297495,1300384,834,1302389,2176,13,1,100,1304577,1307121,724,1309126,1940,12,2,0,1311081,1313657,564,1315662,2698,13,1,-10,1318372,1320896,1363,1322901,1632,14,2,0,1324546,1327287,794,1329292,1977,12,2,0,1331281,1333938,735,1335943,1415,11,2,0,1337371,1340353,695,1342360,863,13,2,0,1343235,1346014,1350,1348019,694,1