Trial_type,Response,Points_earned,Trial_start_time,Stim_end_time,Reaction_time,ITI_start_time,ITI_length,Counterbalance,
2.0,1,-5,70831,73349,2172,75351,519.0,2,
3.0,1,100,75878,79520,497,81522,1454.0,2,
1.0,2,0,82984,85662,351,87664,1381.0,2,
4.0,1,-100,89052,91665,447,93667,2868.0,2,
4.0,2,0,96543,100456,2698,102458,3060.0,2,
4.0,1,10,105525,108660,1034,110662,942.0,2,
3.0,1,-10,111611,114339,1680,116341,2101.0,2,
1.0,2,0,118449,121361,637,123363,590.0,2,
2.0,1,-5,123960,126535,741,128537,3834.0,2,
1.0,1,5,132379,136118,876,138120,1607.0,2,
1.0,1,5,139734,142854,673,144856,3913.0,2,
2.0,1,-5,148776,151348,463,153350,1017.0,2,
3.0,1,100,154374,157222,538,159224,922.0,2,
4.0,2,0,160154,162962,1631,164964,1697.0,2,
4.0,1,10,166668,169917,466,171919,1420.0,2,
2.0,2,0,173346,176119,1183,178121,595.0,2,
2.0,1,-5,178723,181278,1965,183280,1076.0,2,
1.0,1,5,184363,188163,696,190165,1902.0,2,
3.0,1,100,192074,195104,579,197106,1928.0,2,
1.0,1,5,199041,201802,1546,203804,1335.0,2,
1.0,1,-495,205146,209366,1092,211368,507.0,2,
1.0,1,5,211882,214630,711,216632,701.0,2,
1.0,1,5,217341,220300,417,222302,663.0,2,
4.0,1,10,222972,225495,1100,227497,3555.0,2,
3.0,2,0,231059,233776,1446,235778,2412.0,2,
1.0,1,5,238197,240872,480,242874,592.0,2,
1.0,1,5,243473,246662,632,248664,1321.0,2,
3.0,1,100,249992,253627,670,255629,1866.0,2,
4.0,1,-100,257502,260180,1727,262182,2291.0,2,
2.0,1,495,264480,267400,850,269402,2991.0,2,
2.0,1,-5,367813,370454,1642,372456,2658.0,2,
1.0,1,5,375121,378138,398,380140,775.0,2,
2.0,1,-5,380922,383547,1121,385549,2112.0,2,
3.0,1,-10,387668,390559,804,392561,1501.0,2,
3.0,1,-10,394069,396916,620,398918,1977.0,2,
2.0,1,-5,400902,404141,516,406143,924.0,2,
2.0,1,-5,407074,410191,610,412193,709.0,2,
1.0,1,5,412909,415737,1231,417739,2195.0,2,
3.0,1,-10,419941,422773,937,424775,3069.0,2,
3.0,1,100,427851,430688,1025,432690,1144.0,2,
4.0,2,0,433841,437433,1375,439435,1865.0,2,
1.0,1,5,441307,444575,759,446577,1062.0,2,
4.0,1,-100,447646,450156,1245,452158,808.0,2,
3.0,1,-10,452973,456327,616,458329,776.0,2,
1.0,1,5,459112,462640,325,464642,1752.0,2,
1.0,1,5,466401,469148,627,471150,2352.0,2,
1.0,2,0,473509,476332,1503,478334,3747.0,2,
1.0,1,5,482088,484888,361,486890,2964.0,2,
1.0,1,-495,489863,493871,905,495873,3776.0,2,
3.0,1,100,499656,502176,643,504178,895.0,2,
4.0,1,10,505081,508271,1242,510273,1167.0,2,
1.0,1,5,511447,513969,872,515971,3746.0,2,
3.0,1,-10,519725,522375,1760,524377,1131.0,2,
1.0,1,5,525515,529043,595,531045,2179.0,2,
4.0,1,-100,533231,535934,1974,537936,1215.0,2,
3.0,1,-10,539158,541794,743,543796,2711.0,2,
1.0,1,5,546514,550267,455,552269,2474.0,2,
1.0,1,5,554750,557306,730,559308,743.0,2,
4.0,1,-100,560058,563034,1355,565036,3203.0,2,
3.0,1,-10,568246,571406,595,573408,1397.0,2,
3.0,1,100,636505,639018,1334,641020,3892.0,2,
4.0,2,0,644919,647551,1430,649553,3604.0,2,
1.0,2,0,653164,655815,823,657817,2096.0,2,
3.0,1,-10,659920,662512,889,664514,1142.0,2,
4.0,2,0,665663,669916,881,671918,904.0,2,
1.0,2,0,672830,675454,1238,677456,2617.0,2,
2.0,1,-5,680080,683437,517,685439,1534.0,2,
3.0,1,100,686981,690110,1563,692112,738.0,2,
4.0,2,0,692857,695892,861,697894,1949.0,2,
2.0,1,-5,699850,703882,1279,705884,3888.0,2,
1.0,2,0,709779,712392,1094,714394,846.0,2,
1.0,2,0,715248,718750,2353,720752,993.0,2,
4.0,2,0,721752,724385,1253,726387,2966.0,2,
4.0,2,0,729361,734246,1027,736248,3919.0,2,
2.0,1,-5,740174,743173,592,745175,3413.0,2,
4.0,2,0,748596,752801,2055,754803,1954.0,2,
4.0,2,0,756764,759301,1370,761303,1361.0,2,
1.0,2,0,762672,765531,1078,767533,3175.0,2,
3.0,1,-10,770715,773333,961,775335,3801.0,2,
2.0,1,-5,779143,781963,982,783965,1205.0,2,
1.0,2,0,785177,788703,861,790705,1969.0,2,
1.0,2,0,792682,796082,847,798084,2101.0,2,
2.0,1,-5,800192,802789,1160,804791,537.0,2,
2.0,1,495,805335,808183,1082,810185,888.0,2,
4.0,2,0,811080,814116,981,816118,1331.0,2,
4.0,2,0,817456,820651,720,822653,3075.0,2,
4.0,2,0,825736,828434,943,830436,2435.0,2,
1.0,2,0,832878,835560,996,837562,1012.0,2,
3.0,1,100,838581,841479,1002,843481,1476.0,2,
4.0,2,0,844964,847533,1674,849535,2546.0,2,
2.0,1,-5,922733,926066,1411,928068,562.0,2,
3.0,1,100,928637,931319,521,933321,1980.0,2,
1.0,2,0,935308,937873,1174,939875,1348.0,2,
4.0,2,0,941230,944037,935,946039,597.0,2,
3.0,1,100,946643,949508,1293,951510,1862.0,2,
1.0,2,0,953379,956076,916,958078,2445.0,2,
4.0,2,0,960530,963591,1516,965593,2740.0,2,
3.0,1,100,968340,971605,2832,973607,1414.0,2,
4.0,2,0,975029,977644,2474,979646,2796.0,2,
3.0,1,100,982449,985113,2051,987115,3059.0,2,
3.0,1,100,990181,993114,900,995116,1357.0,2,
4.0,2,0,996480,1000239,922,1002241,3568.0,2,
3.0,1,-10,1005816,1009145,984,1011147,1388.0,2,
2.0,1,-5,1012542,1015103,1000,1017105,692.0,2,
2.0,1,-5,1017804,1020383,579,1022385,810.0,2,
1.0,2,0,1023202,1026193,1277,1028195,2219.0,2,
2.0,1,-5,1030421,1033187,827,1035189,2414.0,2,
2.0,1,-5,1037610,1040163,861,1042165,747.0,2,
2.0,1,-5,1042920,1045598,1158,1047600,2296.0,2,
2.0,1,-5,1049903,1052688,523,1054690,1290.0,2,
1.0,2,0,1055987,1060511,876,1062513,3187.0,2,
1.0,2,0,1065707,1068495,1662,1070497,1427.0,2,
4.0,2,0,1071931,1074509,1252,1076511,991.0,2,
3.0,1,-10,1077509,1080411,1785,1082413,1738.0,2,
1.0,2,0,1084158,1087803,501,1089805,854.0,2,
3.0,1,-10,1090666,1094155,709,1096157,1405.0,2,
2.0,1,-5,1097569,1100167,802,1102169,978.0,2,
4.0,1,10,1103154,1105656,353,1107658,574.0,2,
4.0,2,0,1108239,1111127,1391,1113129,1461.0,2,
4.0,2,0,1114597,1117168,1109,1119170,2058.0,2,
1.0,2,0,1185285,1188603,1269,1190605,2485.0,2,
2.0,1,-5,1193097,1196021,1012,1198023,2870.0,2,
2.0,1,-5,1200900,1203539,591,1205541,2760.0,2,
4.0,2,0,1208308,1210901,1453,1212903,2680.0,2,
4.0,2,0,1215590,1219753,829,1221755,1053.0,2,
4.0,2,0,1222815,1226170,894,1228172,3218.0,2,
4.0,2,0,1231397,1234426,955,1236428,790.0,2,
2.0,1,-5,1237225,1240000,1362,1242001,2712.0,2,
4.0,0,0,1244721,1247542,2820,1249544,1602.0,2,
2.0,1,495,1251153,1254996,592,1256998,1452.0,2,
3.0,1,-10,1258457,1261177,748,1263179,999.0,2,
1.0,2,0,1264185,1266887,1190,1268889,1212.0,2,
3.0,1,-10,1270108,1272873,855,1274875,645.0,2,
1.0,2,0,1275528,1278199,731,1280201,1335.0,2,
1.0,2,0,1281543,1284608,759,1286610,693.0,2,
2.0,1,-5,1287310,1290542,857,1292544,643.0,2,
2.0,1,-5,1293194,1296127,696,1298129,549.0,2,
2.0,1,-5,1298686,1301797,587,1303799,765.0,2,
3.0,1,100,1304572,1308797,1481,1310799,547.0,2,
4.0,2,0,1311353,1314223,1069,1316225,1579.0,2,
3.0,1,-10,1317811,1320726,1127,1322728,3813.0,2,
1.0,2,0,1326548,1330232,1079,1332234,1929.0,2,
2.0,1,-5,1334171,1337060,914,1339062,2176.0,2,
3.0,1,-10,1341245,1343788,970,1345790,1940.0,2,
2.0,1,-5,1347737,1350312,595,1352314,2698.0,2,
3.0,1,-10,1355019,1357542,566,1359544,1632.0,2,
4.0,2,0,1361183,1363922,1646,1365924,1977.0,2,
2.0,1,-5,1367908,1370565,691,1372567,1415.0,2,
1.0,2,0,1373989,1376971,762,1378973,863.0,2,
3.0,1,100,1379843,1382622,622,1384624,694.0,2,
3.0,1,-10,1447725,1450336,1091,1452338,662.0,2,
2.0,1,495,1453007,1455590,737,1457592,2710.0,2,
3.0,1,100,1460309,1463059,623,1465061,2530.0,2,
2.0,1,-5,1467598,1470136,1849,1472138,2286.0,2,
2.0,1,-5,1474431,1477401,784,1479403,1409.0,2,
3.0,1,100,1480819,1484019,1010,1486021,2541.0,2,
1.0,2,0,1488569,1491641,1681,1493643,2103.0,2,
2.0,1,-5,1495753,1500579,1476,1502581,782.0,2,
2.0,1,-5,1503370,1506492,461,1508494,2056.0,2,
4.0,2,0,1510557,1513196,1082,1515198,1279.0,2,
3.0,1,100,1516484,1519318,727,1521320,1065.0,2,
3.0,1,-10,1522392,1525036,1192,1527038,1396.0,2,
2.0,1,-5,1528441,1531643,1051,1533645,706.0,2,
2.0,1,-5,1534358,1537674,787,1539676,3113.0,2,
4.0,2,0,1542797,1545554,845,1547556,2939.0,2,
4.0,2,0,1550502,1553522,1001,1555524,1779.0,2,
3.0,1,100,1557310,1559826,927,1561828,1207.0,2,
2.0,1,-5,1563042,1565779,624,1567781,1708.0,2,
4.0,2,0,1569497,1572209,1210,1574211,1714.0,2,
2.0,1,-5,1575932,1578884,1732,1580886,1484.0,2,
2.0,1,-5,1582377,1585413,849,1587415,2180.0,2,
2.0,1,-5,1589602,1592194,1198,1594196,520.0,2,
4.0,2,0,1594723,1597634,1111,1599636,2180.0,2,
1.0,2,0,1601823,1604420,2286,1606422,600.0,2,
3.0,1,100,1607029,1609555,1022,1611557,1003.0,2,
3.0,1,-10,1612567,1615904,972,1617907,3245.0,2,
3.0,1,100,1621159,1624092,627,1626094,1873.0,2,
4.0,2,0,1627974,1630747,1453,1632749,1349.0,2,
4.0,2,0,1634105,1636659,1163,1638661,1781.0,2,
3.0,1,-10,1640449,1643498,740,1645500,1000.0,2,
