Trial_type,Response,Points_earned,Trial_start_time,Stim_end_time,Reaction_time,ITI_start_time,ITI_length,Counterbalance,
2.0,1,-5,185981,188499,1512,190503,519.0,2,
3.0,1,100,191033,194676,1286,196680,1454.0,2,
1.0,1,5,198145,200822,894,202826,1381.0,2,
4.0,1,-100,204218,206831,1060,208835,2868.0,2,
4.0,2,0,211714,215629,1019,217633,3060.0,2,
4.0,1,10,220704,223839,1648,225843,942.0,2,
3.0,1,-10,226796,229524,1047,231528,2101.0,2,
1.0,1,5,233640,236552,1312,238556,590.0,2,
2.0,1,-5,239157,241732,1232,243736,3834.0,2,
1.0,1,5,247581,251320,1157,253324,1607.0,2,
1.0,1,5,254942,258062,898,260066,3913.0,2,
2.0,1,-5,263990,266562,842,268566,1017.0,2,
3.0,1,100,269594,272443,966,274447,922.0,2,
4.0,1,10,275380,278188,1515,280192,1697.0,2,
4.0,1,10,281900,285149,990,287153,1420.0,2,
2.0,1,-5,288584,291357,1966,293361,595.0,2,
2.0,2,0,293967,296522,682,298527,1076.0,2,
1.0,1,-495,299613,303413,983,305417,1902.0,2,
3.0,1,100,307330,310360,735,312364,1928.0,2,
1.0,1,5,314303,317065,871,319069,1335.0,2,
1.0,1,5,320415,324635,925,326639,507.0,2,
1.0,1,5,327157,329905,862,331909,701.0,2,
1.0,2,0,332621,335580,1168,337584,663.0,2,
4.0,1,-100,338258,340782,1018,342786,3555.0,2,
3.0,1,100,346352,349070,1407,351074,2412.0,2,
1.0,2,0,353497,356173,1412,358177,592.0,2,
1.0,2,0,358785,361975,1708,363979,1321.0,2,
3.0,1,-10,365311,368946,791,370950,1866.0,2,
4.0,1,-100,372827,375505,1644,377509,2291.0,2,
2.0,2,0,379811,382732,677,384736,2991.0,2,
2.0,2,0,459016,461658,1102,463662,2658.0,2,
1.0,2,0,466331,469349,905,471353,775.0,2,
2.0,2,0,472139,474765,888,476770,2112.0,2,
3.0,1,-10,478893,481784,786,483788,1501.0,2,
3.0,1,-10,485299,488146,574,490150,1977.0,2,
2.0,2,0,492138,495376,1459,497380,924.0,2,
2.0,1,495,498315,501433,795,503437,709.0,2,
1.0,2,0,504157,506986,1050,508990,2195.0,2,
3.0,1,100,511196,514029,443,516034,3069.0,2,
3.0,1,-10,519113,521951,757,523955,1144.0,2,
4.0,1,10,525110,528702,1640,530706,1865.0,2,
1.0,2,0,532582,535850,1219,537854,1062.0,2,
4.0,1,-100,538927,541438,788,543442,808.0,2,
3.0,1,100,544261,547616,834,549620,776.0,2,
1.0,2,0,550407,553935,893,555939,1752.0,2,
1.0,2,0,557702,560448,637,562452,2352.0,2,
1.0,2,0,564815,567637,563,569641,3747.0,2,
1.0,1,5,573399,576200,1058,578204,2964.0,2,
1.0,2,0,581180,585188,851,587194,3776.0,2,
3.0,1,-10,590981,593501,610,595505,895.0,2,
4.0,1,-100,596411,599601,1388,601605,1167.0,2,
1.0,1,5,602783,605304,1169,607309,3746.0,2,
3.0,1,-10,611066,613717,659,615721,1131.0,2,
1.0,1,5,616863,620392,1600,622396,2179.0,2,
4.0,2,0,624586,627289,1273,629293,1215.0,2,
3.0,1,-10,630519,633155,693,635159,2711.0,2,
1.0,2,0,637882,641634,1465,643638,2474.0,2,
1.0,2,0,646123,648680,690,650684,743.0,2,
4.0,2,0,651438,654415,1405,656419,3203.0,2,
3.0,1,100,659633,662792,485,664796,1397.0,2,
3.0,1,-10,729482,731996,894,734000,3892.0,2,
4.0,1,10,737902,740533,924,742537,3604.0,2,
1.0,2,0,746152,748802,1057,750806,2096.0,2,
3.0,1,100,752913,755506,595,757510,1142.0,2,
4.0,2,0,758663,762917,1135,764921,904.0,2,
1.0,2,0,765836,768461,1950,770465,2617.0,2,
2.0,1,-5,773093,776450,507,778454,1534.0,2,
3.0,1,-10,779999,783127,720,785131,738.0,2,
4.0,2,0,785881,788916,1113,790920,1949.0,2,
2.0,1,-5,792881,796914,730,798918,3888.0,2,
1.0,2,0,802817,805430,848,807434,846.0,2,
1.0,2,0,808291,811793,994,813797,993.0,2,
4.0,2,0,814801,817435,1012,819439,2966.0,2,
4.0,2,0,822416,827301,989,829305,3919.0,2,
2.0,1,-5,833235,836235,484,838239,3413.0,2,
4.0,2,0,841663,845868,763,847872,1954.0,2,
4.0,1,-100,849837,852373,821,854377,1361.0,2,
1.0,2,0,855749,858608,883,860612,3175.0,2,
3.0,1,100,863798,866417,535,868421,3801.0,2,
2.0,1,-5,872233,875054,826,877058,1205.0,2,
1.0,2,0,878274,881800,840,883804,1969.0,2,
1.0,2,0,885784,889183,773,891187,2101.0,2,
2.0,1,-5,893299,895895,1022,897899,537.0,2,
2.0,1,-5,898447,901296,754,903300,888.0,2,
4.0,2,0,904199,907236,798,909240,1331.0,2,
4.0,2,0,910582,913777,695,915781,3075.0,2,
4.0,2,0,918867,921564,597,923568,2435.0,2,
1.0,2,0,926014,928695,781,930699,1012.0,2,
3.0,1,100,931722,934621,380,936625,1476.0,2,
4.0,2,0,938112,940682,699,942686,2546.0,2,
2.0,1,-5,1000578,1003912,1006,1005916,562.0,2,
3.0,1,100,1006489,1009172,582,1011176,1980.0,2,
1.0,2,0,1013167,1015732,641,1017736,1348.0,2,
4.0,2,0,1019095,1021901,837,1023905,597.0,2,
3.0,1,100,1024513,1027377,596,1029381,1862.0,2,
1.0,2,0,1031254,1033951,609,1035955,2445.0,2,
4.0,2,0,1038411,1041473,839,1043477,2740.0,2,
3.0,1,100,1046228,1049493,674,1051497,1414.0,2,
4.0,2,0,1052922,1055537,684,1057541,2796.0,2,
3.0,1,100,1060348,1063011,563,1065015,3059.0,2,
3.0,1,-10,1068085,1071018,480,1073022,1357.0,2,
4.0,2,0,1074390,1078150,734,1080154,3568.0,2,
3.0,1,-10,1083733,1087062,605,1089066,1388.0,2,
2.0,1,-5,1090465,1093026,703,1095030,692.0,2,
2.0,1,-5,1095732,1098310,473,1100314,810.0,2,
1.0,2,0,1101134,1104124,1118,1106128,2219.0,2,
2.0,1,495,1108358,1111125,430,1113130,2414.0,2,
2.0,1,-5,1115554,1118108,559,1120112,747.0,2,
2.0,1,-5,1120870,1123548,632,1125552,2296.0,2,
2.0,1,-5,1127859,1130644,505,1132648,1290.0,2,
1.0,2,0,1133949,1138472,659,1140476,3187.0,2,
1.0,2,0,1143674,1146462,550,1148466,1427.0,2,
4.0,2,0,1149904,1152483,522,1154487,991.0,2,
3.0,1,-10,1155489,1158391,467,1160395,1738.0,2,
1.0,2,0,1162144,1165788,763,1167792,854.0,2,
3.0,1,-10,1168657,1172145,614,1174149,1405.0,2,
2.0,1,-5,1175565,1178163,585,1180167,978.0,2,
4.0,2,0,1181156,1183658,1064,1185662,574.0,2,
4.0,2,0,1186247,1189136,646,1191140,1461.0,2,
4.0,2,0,1192612,1195183,622,1197187,2058.0,2,
1.0,2,0,1260345,1263663,891,1265667,2485.0,2,
2.0,1,-5,1268164,1271088,520,1273092,2870.0,2,
2.0,1,-5,1275973,1278612,1045,1280616,2760.0,2,
4.0,2,0,1283387,1285981,606,1287985,2680.0,2,
4.0,2,0,1290676,1294840,811,1296844,1053.0,2,
4.0,2,0,1297908,1301263,745,1303267,3218.0,2,
4.0,1,10,1306496,1309525,653,1311529,790.0,2,
2.0,1,-5,1312330,1315105,834,1317109,2712.0,2,
4.0,2,0,1319832,1322653,657,1324658,1602.0,2,
2.0,1,-5,1326270,1330114,623,1332118,1452.0,2,
3.0,1,-10,1333581,1336301,613,1338305,999.0,2,
1.0,2,0,1339315,1342017,678,1344021,1212.0,2,
3.0,1,100,1345244,1348009,577,1350013,645.0,2,
1.0,2,0,1350669,1353340,765,1355344,1335.0,2,
1.0,2,0,1356690,1359755,694,1361759,693.0,2,
2.0,1,-5,1362463,1365695,904,1367699,643.0,2,
2.0,1,-5,1368353,1371287,566,1373291,549.0,2,
2.0,1,-5,1373851,1376962,620,1378966,765.0,2,
3.0,1,-10,1379742,1383967,565,1385971,547.0,2,
4.0,2,0,1386529,1389398,492,1391402,1579.0,2,
3.0,1,-10,1392992,1395907,551,1397911,3813.0,2,
1.0,2,0,1401735,1405420,758,1407424,1929.0,2,
2.0,1,495,1409364,1412253,585,1414257,2176.0,2,
3.0,1,-10,1416444,1418988,554,1420992,1940.0,2,
2.0,1,-5,1422943,1425518,524,1427522,2698.0,2,
3.0,1,100,1430231,1432754,539,1434758,1632.0,2,
4.0,2,0,1436401,1439141,679,1441145,1977.0,2,
2.0,1,-5,1443133,1445790,626,1447794,1415.0,2,
1.0,2,0,1449220,1452202,745,1454206,863.0,2,
3.0,1,-10,1455080,1457858,755,1459862,694.0,2,
3.0,1,100,1542685,1545296,786,1547300,662.0,2,
2.0,1,-5,1547973,1550556,456,1552560,2710.0,2,
3.0,1,100,1555281,1558032,553,1560036,2530.0,2,
2.0,1,-5,1562577,1565116,522,1567120,2286.0,2,
2.0,1,-5,1569417,1572386,564,1574390,1409.0,2,
3.0,1,100,1575810,1579009,548,1581013,2541.0,2,
1.0,2,0,1583565,1586637,628,1588641,2103.0,2,
2.0,1,-5,1590755,1595582,583,1597586,782.0,2,
2.0,1,495,1598379,1601501,576,1603505,2056.0,2,
4.0,2,0,1605572,1608211,597,1610215,1279.0,2,
3.0,1,-10,1611505,1614338,621,1616342,1065.0,2,
3.0,1,100,1617418,1620062,517,1622066,1396.0,2,
2.0,1,-5,1623473,1626674,725,1628678,706.0,2,
2.0,1,-5,1629395,1632712,675,1634717,3113.0,2,
4.0,2,0,1637841,1640599,699,1642603,2939.0,2,
4.0,2,0,1645553,1648572,671,1650576,1779.0,2,
3.0,1,100,1652366,1654882,764,1656886,1207.0,2,
2.0,2,0,1658104,1660841,866,1662845,1708.0,2,
4.0,2,0,1664564,1667277,660,1669281,1714.0,2,
2.0,1,-5,1671005,1673958,362,1675962,1484.0,2,
2.0,1,-5,1677457,1680492,581,1682496,2180.0,2,
2.0,1,-5,1684687,1687279,502,1689283,520.0,2,
4.0,2,0,1689813,1692724,652,1694728,2180.0,2,
1.0,2,0,1696919,1699516,571,1701520,600.0,2,
3.0,1,-10,1702131,1704658,594,1706662,1003.0,2,
3.0,1,100,1707676,1711014,632,1713018,3245.0,2,
3.0,1,-10,1716274,1719206,501,1721210,1873.0,2,
4.0,2,0,1723094,1725867,652,1727871,1349.0,2,
4.0,2,0,1729231,1731785,740,1733789,1781.0,2,
3.0,1,-10,1735581,1738631,567,1740635,1000.0,2,
