Trial_type,Response,Points_earned,Trial_start_time,Stim_end_time,Reaction_time,ITI_start_time,ITI_length,Counterbalance,
2.0,1,-5,92838,95355,2469,97357,519.0,1,
3.0,1,100,97884,101527,1835,103529,1454.0,1,
1.0,1,5,104990,107668,1063,109670,1381.0,1,
4.0,1,-100,111058,113672,800,115674,2868.0,1,
4.0,1,10,118549,122461,1532,124463,3060.0,1,
4.0,1,10,127530,130664,1271,132666,942.0,1,
3.0,1,-10,133615,136343,999,138345,2101.0,1,
1.0,1,5,140453,143366,1950,145368,590.0,1,
2.0,1,-5,145965,148541,1447,150543,3834.0,1,
1.0,1,5,154384,158122,847,160124,1607.0,1,
1.0,1,5,161738,164857,742,166859,3913.0,1,
2.0,2,0,170779,173351,1081,175353,1017.0,1,
3.0,1,100,176377,179226,930,181228,922.0,1,
4.0,2,0,182157,184966,588,186968,1697.0,1,
4.0,2,0,188673,191921,1466,193923,1420.0,1,
2.0,1,-5,195350,198122,1317,200124,595.0,1,
2.0,1,-5,200726,203280,761,205282,1076.0,1,
1.0,1,-495,206365,210165,916,212167,1902.0,1,
3.0,1,100,214076,217107,933,219109,1928.0,1,
1.0,2,0,221044,223806,949,225808,1335.0,1,
1.0,2,0,227150,231369,748,233371,507.0,1,
1.0,1,5,233885,236632,1027,238634,701.0,1,
1.0,1,5,239342,242300,1786,244302,663.0,1,
4.0,1,10,244973,247496,1036,249498,3555.0,1,
3.0,1,100,253060,255778,923,257780,2412.0,1,
1.0,2,0,260199,262874,1618,264876,592.0,1,
1.0,2,0,265475,268664,481,270666,1321.0,1,
3.0,1,-10,271994,275628,738,277630,1866.0,1,
4.0,1,-100,279503,282181,1402,284183,2291.0,1,
2.0,1,495,286481,289402,1053,291404,2991.0,1,
2.0,1,-5,358863,361505,1305,363507,2658.0,1,
1.0,2,0,366172,369190,1339,371192,775.0,1,
2.0,1,-5,371974,374599,956,376601,2112.0,1,
3.0,1,-10,378720,381610,1120,383612,1501.0,1,
3.0,1,-10,385120,387967,570,389969,1977.0,1,
2.0,1,-5,391953,395192,806,397194,924.0,1,
2.0,1,-5,398125,401243,497,403245,709.0,1,
1.0,2,0,403961,406790,1715,408792,2195.0,1,
3.0,1,100,410994,413826,787,415828,3069.0,1,
3.0,1,-10,418904,421741,810,423743,1144.0,1,
4.0,1,-100,424894,428486,942,430488,1865.0,1,
1.0,2,0,432360,435629,556,437631,1062.0,1,
4.0,1,10,438700,441211,888,443213,808.0,1,
3.0,1,100,444028,447382,507,449384,776.0,1,
1.0,2,0,450167,453695,1248,455697,1752.0,1,
1.0,1,5,457457,460204,2180,462206,2352.0,1,
1.0,2,0,464565,467388,639,469390,3747.0,1,
1.0,2,0,473144,475945,942,477947,2964.0,1,
1.0,1,5,480919,484926,1625,486928,3776.0,1,
3.0,1,-10,490711,493230,1043,495232,895.0,1,
4.0,1,-100,496134,499323,1199,501325,1167.0,1,
1.0,1,5,502499,505021,1444,507023,3746.0,1,
3.0,1,-10,510776,513427,849,515429,1131.0,1,
1.0,0,0,516567,520095,3527,522097,2179.0,1,
4.0,1,-100,524283,526985,748,528987,1215.0,1,
3.0,1,-10,530209,532844,620,534846,2711.0,1,
1.0,1,5,537564,541317,1134,543319,2474.0,1,
1.0,1,5,545800,548357,981,550359,743.0,1,
4.0,1,10,551109,554086,824,556088,3203.0,1,
3.0,1,100,559298,562457,877,564459,1397.0,1,
3.0,1,-10,626471,628985,1240,630987,3892.0,1,
4.0,1,-100,634886,637517,700,639519,3604.0,1,
1.0,1,5,643130,645780,1527,647782,2096.0,1,
3.0,1,100,649885,652478,646,654480,1142.0,1,
4.0,1,10,655629,659883,1280,661885,904.0,1,
1.0,2,0,662796,665420,1183,667422,2617.0,1,
2.0,1,-5,670046,673403,636,675405,1534.0,1,
3.0,1,-10,676946,680074,696,682076,738.0,1,
4.0,2,0,682821,685856,1389,687858,1949.0,1,
2.0,1,-5,689814,693847,792,695849,3888.0,1,
1.0,2,0,699744,702357,430,704359,846.0,1,
1.0,2,0,705212,708713,512,710715,993.0,1,
4.0,2,0,711715,714348,1697,716350,2966.0,1,
4.0,1,10,719323,724208,1076,726210,3919.0,1,
2.0,1,-5,730136,733136,751,735138,3413.0,1,
4.0,2,0,738558,742763,1568,744765,1954.0,1,
4.0,1,-100,746727,749263,1269,751265,1361.0,1,
1.0,2,0,752633,755491,1048,757493,3175.0,1,
3.0,1,100,760675,763294,867,765296,3801.0,1,
2.0,1,-5,769104,771925,531,773927,1205.0,1,
1.0,2,0,775139,778664,1162,780666,1969.0,1,
1.0,1,5,782642,786041,1829,788043,2101.0,1,
2.0,0,0,790151,792747,2595,794749,537.0,1,
2.0,1,-5,795293,798142,408,800144,888.0,1,
4.0,1,-100,801039,804076,564,806078,1331.0,1,
4.0,2,0,807416,810610,708,812612,3075.0,1,
4.0,2,0,815694,818391,641,820393,2435.0,1,
1.0,1,5,822835,825516,1374,827518,1012.0,1,
3.0,1,100,828537,831436,443,833438,1476.0,1,
4.0,2,0,834921,837491,1248,839493,2546.0,1,
2.0,1,495,903027,906361,850,908363,562.0,1,
3.0,1,100,908932,911615,866,913617,1980.0,1,
1.0,2,0,915604,918169,624,920171,1348.0,1,
4.0,2,0,921526,924332,1134,926334,597.0,1,
3.0,1,100,926938,929802,495,931804,1862.0,1,
1.0,2,0,933673,936370,680,938372,2445.0,1,
4.0,1,-100,940824,943886,1771,945888,2740.0,1,
3.0,2,0,948635,951899,353,953901,1414.0,1,
4.0,1,-100,955322,957936,2050,959938,2796.0,1,
3.0,1,100,962741,965404,952,967406,3059.0,1,
3.0,1,100,970472,973406,895,975408,1357.0,1,
4.0,2,0,976772,980532,1369,982534,3568.0,1,
3.0,1,-10,986109,989438,439,991440,1388.0,1,
2.0,1,-5,992835,995395,989,997397,692.0,1,
2.0,1,-5,998097,1000675,873,1002677,810.0,1,
1.0,2,0,1003494,1006484,1127,1008486,2219.0,1,
2.0,1,-5,1010712,1013479,2393,1015481,2414.0,1,
2.0,1,-5,1017902,1020457,897,1022459,747.0,1,
2.0,1,-5,1023213,1025891,891,1027893,2296.0,1,
2.0,2,0,1030196,1032980,820,1034982,1290.0,1,
1.0,1,-495,1036279,1040802,1112,1042804,3187.0,1,
1.0,1,5,1045998,1048787,1250,1050789,1427.0,1,
4.0,2,0,1052223,1054802,1276,1056804,991.0,1,
3.0,1,-10,1057802,1060704,935,1062706,1738.0,1,
1.0,1,5,1064451,1068095,2073,1070097,854.0,1,
3.0,1,-10,1070958,1074446,999,1076448,1405.0,1,
2.0,1,-5,1077860,1080458,932,1082460,978.0,1,
4.0,2,0,1083445,1085948,1281,1087950,574.0,1,
4.0,2,0,1088531,1091420,856,1093422,1461.0,1,
4.0,2,0,1094890,1097461,561,1099463,2058.0,1,
1.0,2,0,1166632,1169950,916,1171952,2485.0,1,
2.0,1,-5,1174444,1177367,886,1179369,2870.0,1,
2.0,1,-5,1182246,1184884,719,1186886,2760.0,1,
4.0,2,0,1189653,1192246,1059,1194248,2680.0,1,
4.0,2,0,1196935,1201099,779,1203101,1053.0,1,
4.0,2,0,1204161,1207516,828,1209518,3218.0,1,
4.0,2,0,1212743,1215771,821,1217773,790.0,1,
2.0,1,-5,1218570,1221344,632,1223346,2712.0,1,
4.0,2,0,1226065,1228887,699,1230889,1602.0,1,
2.0,1,-5,1232498,1236342,618,1238344,1452.0,1,
3.0,1,-10,1239803,1242523,973,1244525,999.0,1,
1.0,2,0,1245531,1248232,885,1250234,1212.0,1,
3.0,1,-10,1251453,1254217,596,1256219,645.0,1,
1.0,2,0,1256871,1259542,909,1261544,1335.0,1,
1.0,2,0,1262886,1265952,1119,1267954,693.0,1,
2.0,1,-5,1268654,1271886,703,1273888,643.0,1,
2.0,1,495,1274538,1277472,643,1279474,549.0,1,
2.0,1,-5,1280030,1283140,572,1285142,765.0,1,
3.0,1,100,1285914,1290138,710,1292140,547.0,1,
4.0,2,0,1292694,1295563,794,1297565,1579.0,1,
3.0,1,-10,1299151,1302067,1080,1304069,3813.0,1,
1.0,2,0,1307889,1311574,782,1313576,1929.0,1,
2.0,1,-5,1315512,1318401,814,1320403,2176.0,1,
3.0,1,-10,1322586,1325128,994,1327130,1940.0,1,
2.0,1,-5,1329077,1331652,1071,1333654,2698.0,1,
3.0,1,-10,1336359,1338883,591,1340885,1632.0,1,
4.0,2,0,1342524,1345264,1272,1347266,1977.0,1,
2.0,1,-5,1349250,1351907,553,1353909,1415.0,1,
1.0,2,0,1355331,1358312,1972,1360314,863.0,1,
3.0,1,100,1361184,1363962,444,1365964,694.0,1,
3.0,1,-10,1436380,1438990,937,1440992,662.0,1,
2.0,1,-5,1441661,1444243,473,1446245,2710.0,1,
3.0,1,100,1448962,1451713,673,1453715,2530.0,1,
2.0,1,-5,1456252,1458791,657,1460793,2286.0,1,
2.0,1,495,1463086,1466055,723,1468057,1409.0,1,
3.0,1,100,1469473,1472672,425,1474674,2541.0,1,
1.0,2,0,1477222,1480293,611,1482295,2103.0,1,
2.0,1,-5,1484405,1489232,797,1491234,782.0,1,
2.0,1,-5,1492023,1495146,552,1497148,2056.0,1,
4.0,2,0,1499211,1501850,619,1503852,1279.0,1,
3.0,1,100,1505138,1507971,646,1509973,1065.0,1,
3.0,1,-10,1511046,1513689,529,1515691,1396.0,1,
2.0,1,-5,1517094,1520296,986,1522298,706.0,1,
2.0,1,-5,1523011,1526328,803,1528330,3113.0,1,
4.0,2,0,1531450,1534208,702,1536210,2939.0,1,
4.0,2,0,1539156,1542175,665,1544177,1779.0,1,
3.0,1,100,1545963,1548478,487,1550480,1207.0,1,
2.0,1,-5,1551694,1554430,701,1556432,1708.0,1,
4.0,2,0,1558148,1560861,545,1562863,1714.0,1,
2.0,1,-5,1564584,1567537,816,1569539,1484.0,1,
2.0,1,-5,1571030,1574066,619,1576068,2180.0,1,
2.0,1,-5,1578255,1580846,558,1582848,520.0,1,
4.0,2,0,1583375,1586285,652,1588287,2180.0,1,
1.0,2,0,1590474,1593071,663,1595073,600.0,1,
3.0,1,100,1595680,1598207,1189,1600209,1003.0,1,
3.0,1,-10,1601219,1604557,674,1606559,3245.0,1,
3.0,1,100,1609811,1612743,643,1614745,1873.0,1,
4.0,2,0,1616625,1619397,799,1621399,1349.0,1,
4.0,2,0,1622755,1625308,718,1627310,1781.0,1,
3.0,1,-10,1629098,1632148,714,1634150,1000.0,1,
